File Name: 10Nmar.log
Channel 1: 'RF', 5845 values, engineering units: mV, no filters.
Channel 2: 'BF', 5845 values, engineering units: mV, no filters.
Channel 3: 'VM', 5845 values, engineering units: mV, no filters.
Channel 4: 'ST', 5845 values, engineering units: mV, no filters.
Channel 5: 'FX', 293 values, engineering units: deg, no filters, extrapolated from 50 to 1000 samples per second.

-0.0015	0	0.0007	0	-1
-0.0008	0.0015	0.003	-0.0015	-1
0.0007	0.0015	0.0037	-0.0023	-1
-0.0008	0	0.0022	-0.0015	-1
0	-0.0008	0.003	-0.0008	-1
-0.0008	0.0007	0.0022	-0.0015	-1
-0.0008	0.0007	0.0007	-0.0023	-1
0.0007	0	-0.0015	-0.0023	-1
-0.0008	0.003	-0.0023	-0.0015	-1
0.0007	0.0015	-0.0053	-0.0015	-1
-0.0015	0	-0.0068	-0.0008	-1
-0.0015	0.0007	-0.0046	0.0007	-1
-0.0015	0.0015	-0.0046	0.0015	-1
-0.003	0	-0.0053	0.0007	-1
-0.0015	-0.0015	-0.006	0	-1
-0.0008	0	-0.006	0	-1.1
-0.0008	0.0007	-0.0046	-0.0023	-1.1
-0.0008	-0.0008	-0.0046	-0.0038	-1.1
-0.0008	-0.0008	-0.0053	-0.0015	-1.1
0.0007	-0.0008	-0.0038	0	-1.1
0	-0.0008	-0.0038	0	-1.1
-0.0008	0.0007	-0.0046	-0.0015	-1.1
0.0007	0.0007	-0.0053	-0.0038	-1.1
0.0015	0.0007	-0.0046	-0.0023	-1.1
0.0007	-0.0008	-0.0015	-0.0015	-1
0	-0.0008	-0.0008	-0.0015	-1
-0.0008	0.0007	0	-0.003	-1
-0.0008	0.0015	-0.0008	-0.003	-1
0.0007	0.0015	0.0007	-0.0023	-0.9
0.0015	0.0007	0.0007	-0.0008	-0.9
0.0007	0.0007	0.0022	-0.0008	-0.9
0.0007	0.0015	0.0007	-0.003	-0.9
0.0007	0.0015	0.0007	-0.003	-0.9
0.0007	0	0.003	-0.0015	-0.9
0.0007	0	0.003	-0.0023	-0.9
-0.0008	-0.0008	0.0015	-0.0046	-0.8
-0.0008	-0.0008	-0.0008	-0.0023	-0.8
-0.0008	-0.0008	-0.0015	-0.0015	-0.8
-0.0015	0.0007	-0.0023	-0.003	-0.8
0	0.0022	-0.0015	-0.003	-0.7
0.0015	0.0007	-0.003	-0.0008	-0.7
0.0015	0.0015	-0.0015	-0.0015	-0.7
0.0015	0.0015	-0.003	-0.003	-0.6
0.0007	0.0007	-0.003	-0.0015	-0.5
0.0015	0.0015	-0.0015	-0.0008	-0.5
0.0007	0.0007	-0.003	-0.003	-0.5
0.0015	0.0015	-0.0008	-0.003	-0.4
0.0007	0.0022	-0.0015	-0.0015	-0.4
-0.0015	0.0015	-0.0046	0	-0.3
0	0.0015	-0.0038	0.0007	-0.2
0.0007	0.0015	0	0.0007	-0.2
0.0007	0	0.0007	0.0015	-0.1
-0.0008	0.0007	0.0007	0.0015	-0.1
-0.003	0.0007	0.0045	0.003	0
-0.0015	0.0015	0.0067	0.0022	0
-0.0008	0.0015	0.006	0.0015	0.1
-0.0008	0.0007	0.0052	0.003	0.1
0.0007	0	0.006	0.0022	0.2
0.0015	-0.0015	0.0052	0.0015	0.3
0.003	0.0007	0.0045	0.003	0.3
0.0015	0	0.0045	0.003	0.4
-0.0008	-0.0008	0.0052	0.003	0.4
-0.0008	0.0007	0.0052	0.0052	0.5
0.0015	-0.0008	0.0067	0.0052	0.6
0.0007	0.0007	0.0052	0.0037	0.7
0.0015	-0.0008	0.0045	0.003	0.8
0	0	0.0037	0.0037	0.8
-0.0008	0	0.003	0.003	0.9
-0.0015	-0.0008	0.0037	0.0015	1
-0.0015	0.0007	0.0022	0.003	1.1
0.0007	0	0.0007	0.0045	1.2
0.0007	0.0007	0.003	0.0007	1.2
0.0007	-0.0008	0.003	0.0015	1.3
0.0007	0.0007	0.0022	0.003	1.4
0.0007	-0.0008	0.0015	0.0022	1.5
0.0015	-0.0008	-0.0008	0.003	1.5
0.0007	-0.0008	-0.0008	0.003	1.6
-0.0008	-0.0008	-0.003	0.003	1.7
-0.0008	0.0015	-0.003	0.0015	1.8
-0.0015	0.0015	0	0.0015	1.8
-0.0015	0.003	-0.0008	0.0015	1.9
-0.003	0.003	-0.0008	0.0007	2
-0.0038	0.0015	-0.0015	0.0007	2.1
-0.0008	0.0015	-0.0023	0	2.2
0	0.0015	-0.0015	0.0007	2.3
0.0007	0.0007	-0.003	0.0022	2.4
0.0007	-0.0008	-0.0046	0.0037	2.5
0	0	-0.0046	0.0037	2.6
0	-0.0008	-0.0046	0.0045	2.6
-0.0008	-0.0015	-0.0046	0.006	2.7
-0.0008	-0.0023	-0.0046	0.0052	2.8
0	-0.0015	-0.0046	0.003	2.9
0	-0.0008	-0.0038	0.0022	3
0.0007	-0.0008	-0.006	0.0007	3.1
0.0007	-0.0015	-0.0068	-0.0015	3.2
0.0007	-0.0023	-0.0068	-0.0015	3.3
0.0007	-0.0008	-0.0083	0.0007	3.4
0	-0.0015	-0.0083	0.0015	3.5
0	-0.003	-0.0098	0.003	3.6
0	-0.0008	-0.0083	0.0045	3.6
0	0	-0.0105	0.0007	3.7
0.0007	-0.0008	-0.0105	0	3.8
0	-0.0008	-0.0105	0.0015	3.9
-0.0008	0.0015	-0.0105	-0.0008	4
-0.0008	0.0015	-0.0083	-0.0008	4.1
-0.0008	0.0015	-0.0105	0.0007	4.2
0.0007	0.0015	-0.0105	0.0015	4.3
0.0007	0.003	-0.012	0.0015	4.4
-0.0008	0.0007	-0.0098	0	4.5
-0.0008	0	-0.0091	-0.0015	4.6
-0.0015	0.0007	-0.0083	-0.0023	4.7
-0.0008	0.0007	-0.0068	-0.0008	4.8
0.0007	0.0007	-0.0068	0	4.9
0.0007	0	-0.006	0	4.9
0.0007	-0.0015	-0.006	0.0015	5
0.0015	-0.0015	-0.0046	0.0007	5.2
0.0015	0	-0.0038	-0.0015	5.3
0.0022	-0.0008	-0.0038	-0.0008	5.3
0.0007	0.0007	-0.0046	0	5.4
0.0007	0.0015	-0.0046	-0.0008	5.5
0	0	-0.0038	-0.0008	5.6
-0.0008	-0.0008	-0.0038	-0.0008	5.7
0	-0.0008	-0.0023	-0.0023	5.8
0	-0.0008	-0.0015	-0.0023	6
0.0015	0.0007	-0.0008	-0.003	6.1
0.0015	0.0022	0.0015	-0.0015	6.2
-0.0008	0.0015	0.003	-0.0015	6.3
0.0007	0.0015	0.003	-0.003	6.4
-0.0008	0.0015	0.0015	0	6.5
-0.0008	0	0.0045	-0.0008	6.7
-0.0015	-0.0008	0.006	-0.0008	6.7
0.0007	-0.0008	0.0067	0	6.8
0.0022	-0.0008	0.0082	-0.0015	7
0.0015	0.0022	0.009	-0.0008	7.1
0.0037	0.003	0.012	0.0007	7.2
0.0045	0.0022	0.012	0.0007	7.3
0.0045	0.0022	0.012	-0.0008	7.4
0.003	0.0015	0.0082	-0.0008	7.5
0.0015	0.0022	0.006	-0.0008	7.6
0.0015	0.0037	0.006	-0.0015	7.8
0.0015	0.003	0.006	-0.0023	7.9
0.0015	0.003	0.0052	-0.003	8
0.0007	0.0022	0.003	-0.003	8.1
0	0.0015	0.0037	-0.0008	8.3
-0.0015	0.0007	0.003	0.0007	8.4
-0.0015	0.0015	-0.0008	-0.0008	8.5
0.0007	0.0015	-0.003	-0.0008	8.7
0.0015	0.003	-0.0046	-0.003	8.8
0	0.0015	-0.003	-0.0046	9
-0.0015	0.0007	-0.0023	0.0007	9.1
-0.0015	0.0022	-0.003	0.0015	9.2
0.0007	0.0015	-0.0038	0.0007	9.3
0.0015	0.0022	-0.0046	0.0007	9.4
0.0015	0.0015	-0.0053	0	9.6
-0.0008	0.0015	-0.0098	0.0015	9.7
-0.0008	0.0007	-0.0091	0.0015	9.9
-0.0008	0.0007	-0.0068	0.003	10
0.0007	0.0007	-0.0068	0.0045	10.1
0.0015	0.0007	-0.0053	0.0015	10.3
0.0007	0.0007	-0.0053	0	10.4
-0.0008	0	-0.0053	-0.0008	10.5
-0.0015	-0.0015	-0.0068	-0.0008	10.7
-0.003	-0.0023	-0.0083	-0.0015	10.8
-0.0023	0	-0.0068	-0.0038	11
-0.0015	-0.0023	-0.0038	-0.0008	11.2
-0.0008	-0.003	-0.0053	0.0022	11.3
-0.0015	-0.0015	-0.0053	0.0045	11.5
-0.0023	-0.0015	-0.003	0.0067	11.6
-0.0008	-0.0008	-0.0038	0.0075	11.8
0.0007	-0.0008	-0.0046	0.009	11.9
0.0015	-0.0008	-0.0023	0.0067	12.1
0.003	0.0015	-0.0008	0.0067	12.3
0.0022	0.0007	0.003	0.0097	12.4
0.0022	0.0007	0.0075	0.0112	12.6
0.0052	0.0015	0.0082	0.0082	12.7
0.0052	0.0007	0.0097	0.0052	12.9
0.0045	0.0007	0.0075	0.0082	13
0.003	-0.0008	0.0045	0.012	13.2
0.0015	-0.0015	-0.0008	0.012	13.4
0	-0.0008	-0.003	0.0112	13.5
-0.0008	0	-0.003	0.012	13.7
0.0007	-0.0008	-0.0053	0.009	13.9
-0.0008	0.0007	-0.0046	0.0067	14.1
-0.003	0.0007	-0.0053	0.0052	14.3
-0.003	-0.0008	-0.0038	0.0052	14.5
-0.0015	-0.0008	-0.0038	0.0045	14.7
-0.0015	-0.0008	-0.0015	0.0015	14.9
-0.0015	0	0.0007	-0.0015	15.2
-0.0023	0.0007	0.0015	-0.0015	15.3
-0.0015	0.0007	0.003	-0.0023	15.6
0	0	0.0022	-0.0068	15.8
-0.0008	0.0007	0.0015	-0.0091	16
-0.0015	0.0007	0.0015	-0.0113	16.2
-0.0023	0.0015	0.0007	-0.0165	16.4
-0.0015	0.0015	0.0015	-0.024	16.6
-0.0015	0	0.003	-0.03	16.8
0.0007	0.0007	0.003	-0.0203	17
0.0007	0.0007	0.0007	-0.0105	17.2
0.0007	-0.0008	0.0015	-0.0091	17.5
-0.0008	0	0.0015	-0.0105	17.6
0	0.0015	-0.0008	-0.0128	17.9
0	0.0015	-0.0008	-0.006	18.1
0	0.0015	-0.0015	-0.006	18.4
0	0.0015	-0.0015	-0.0083	18.7
-0.0008	0.0022	-0.003	-0.0075	19
-0.0008	0	-0.0015	-0.0105	19.3
0	0	-0.0015	-0.0091	19.6
-0.0015	0.0007	-0.0015	-0.0091	19.8
-0.0008	0	0.0007	-0.0105	20.1
0	0.0015	0.003	-0.0143	20.4
0.0007	0.0015	0.003	-0.0098	20.7
0.0007	0.0007	0.003	-0.0015	21
0	0	0.0037	-0.0008	21.2
0	-0.0015	0.003	0.0007	21.5
0.0007	0.0007	0.006	-0.0053	21.8
0.0007	-0.0008	0.0067	-0.0098	22.1
0.0015	-0.0008	0.0082	-0.0068	22.4
0.0015	-0.0008	0.0105	-0.0075	22.6
0.0015	-0.0008	0.009	-0.0046	22.9
0.0007	0.0015	0.009	-0.0015	23.2
0.0015	0.0007	0.009	-0.003	23.5
0.0007	0	0.009	-0.0008	23.8
0.0015	0.0015	0.009	-0.0008	24.1
0.0007	0.0015	0.009	0.0015	24.4
-0.0008	0.003	0.0082	0.0037	24.7
0.0007	0.0022	0.0075	0.0022	25
0	0.0007	0.0082	0.003	25.2
0	0.0015	0.0082	0.003	25.6
0.0007	0.0015	0.0082	0.003	25.8
0.0007	0.0007	0.0075	0.003	26.1
-0.0008	0.0022	0.0075	0.0015	26.5
-0.0008	0.003	0.009	0.0015	26.7
0	0	0.009	0.0007	27
0.0007	-0.0015	0.0082	0.0007	27.3
0.0007	-0.0015	0.009	0.003	27.6
0.0015	-0.0015	0.012	0.003	27.9
0.0045	0.0015	0.012	0.0037	28.2
0.0052	0.0015	0.0135	0.003	28.5
0.0037	0.0015	0.0142	0.0037	28.8
0.0022	0	0.012	0.0022	29.1
0.0015	-0.0008	0.0105	0.0022	29.4
0.0007	0.0007	0.009	0.003	29.7
0	0	0.009	0.0022	29.9
0.0007	-0.0008	0.0067	0.0022	30.1
0.0015	0	0.0067	0.0015	30.4
0.0007	0.0007	0.0082	0.0015	30.7
0.0007	0.0007	0.0045	0.003	31
0	0.0007	0.0015	0.0015	31.2
-0.0008	0.0015	-0.0023	0.0015	31.5
0.0007	0.0022	-0.003	0.0007	31.7
0	0.0007	-0.0023	0.0007	32
-0.0008	0.0007	-0.0038	0.0007	32.2
-0.0008	0.0015	-0.003	-0.0008	32.5
0.0007	0.0007	0.0007	-0.0015	32.8
0.0007	0.0022	0.006	-0.0015	33
0.0015	0.0015	0.0067	0.0007	33.3
0.003	0.0022	0.0052	0.0007	33.5
0.0015	0.0015	0.0045	-0.0015	33.8
0.0007	0.0007	0.0022	-0.003	34.1
0	0.0015	0.0045	-0.0053	34.3
0.0007	0.0007	0.0045	-0.0053	34.6
0.0015	0.0007	0.0022	-0.0038	34.8
0.0007	0	0.003	-0.0038	35
0.0015	-0.0008	0.006	-0.0023	35.2
0.0015	0.0015	0.009	-0.0023	35.4
0.0015	0.0015	0.0082	-0.0046	35.6
0.0015	0.0015	0.012	-0.0046	35.9
0.0015	-0.0008	0.0105	-0.0046	36.1
0.003	-0.0015	0.0082	-0.0053	36.3
0.003	0.0015	0.0052	-0.0075	36.5
0.0007	0.003	0	-0.0091	36.8
-0.0008	0.0015	-0.0008	-0.0091	36.9
-0.0015	0.003	-0.0015	-0.0091	37.2
-0.0008	0.003	-0.0046	-0.0075	37.4
-0.0015	0	-0.003	-0.0068	37.6
-0.0008	-0.0023	-0.0038	-0.0068	37.8
0	-0.003	-0.0053	-0.0053	38.1
-0.0008	-0.003	-0.003	-0.0068	38.2
-0.0015	-0.0053	-0.0023	-0.003	38.5
-0.003	-0.003	-0.003	0.0007	38.7
-0.0046	-0.0015	-0.0075	0.0015	38.9
-0.0046	-0.0015	-0.0098	0.0052	39.1
-0.0008	0.0007	-0.0068	0.0067	39.4
-0.0015	0.0015	-0.006	0.0082	39.6
-0.0015	0.0015	-0.0068	0.009	39.9
-0.0015	0.0015	-0.0098	0.0105	40.1
-0.003	0.003	-0.0075	0.0127	40.4
-0.0023	0.003	-0.0105	0.012	40.6
-0.003	0.0007	-0.012	0.012	40.8
-0.003	0.0015	-0.0075	0.0127	41.1
-0.0015	0.0007	-0.0053	0.015	41.3
0	0.0015	-0.0008	0.0165	41.5
-0.0008	0.0022	-0.0015	0.0172	41.8
0.0007	0.003	-0.003	0.0165	42
0	0.0015	-0.003	0.0142	42.3
-0.0015	-0.0008	-0.0046	0.0135	42.5
-0.0008	0.0007	-0.0046	0.012	42.7
-0.0015	0.0007	-0.0075	0.0127	43
-0.0008	-0.0008	-0.0053	0.0142	43.2
-0.0008	-0.0008	-0.0023	0.0142	43.5
-0.0015	-0.0008	-0.0008	0.012	43.7
0.0007	0.0007	-0.0038	0.0105	44
0.0015	0	-0.0068	0.009	44.2
0.0007	-0.0008	-0.0053	0.006	44.5
0.0007	0.0015	-0.0068	0.0045	44.7
0	0	-0.0053	0.0022	45
0.0015	0	-0.003	0.0022	45.2
0.003	0.0007	-0.003	0.0015	45.4
0.003	0.0007	-0.0038	0.0007	45.7
0.0007	0.0022	-0.0053	0.0007	45.9
0.0007	0.0015	-0.003	-0.0008	46.2
0.0007	0.0015	-0.003	-0.003	46.4
0.0007	0.0015	-0.0068	-0.0053	46.7
-0.0015	-0.0008	-0.0105	-0.0083	46.9
-0.003	-0.0008	-0.0158	-0.0083	47.2
-0.003	-0.0008	-0.0158	-0.0091	47.4
-0.0038	-0.0015	-0.015	-0.0083	47.7
-0.0038	-0.0023	-0.0128	-0.0091	47.9
-0.003	-0.0015	-0.0098	-0.0091	48.2
-0.003	-0.0008	-0.0091	-0.0075	48.4
-0.003	0.0007	-0.0091	-0.0091	48.7
-0.0023	0.003	-0.0091	-0.0083	48.9
-0.0008	0.003	-0.0091	-0.0068	49.1
-0.0008	0.0037	-0.0075	-0.0068	49.3
-0.0023	0.0082	-0.003	-0.0046	49.5
-0.0008	0.0157	-0.0008	-0.003	49.7
-0.0008	0.0157	-0.0008	-0.0023	49.9
-0.0008	0.012	0.003	-0.0015	50.2
0.0007	0.012	0.003	-0.003	50.4
0.0015	0.0202	0.0052	-0.0023	50.6
0.0015	0.0202	0.0045	-0.0023	50.8
0.0015	0.0067	0.0037	-0.003	51
0.0007	-0.006	0.0052	-0.0038	51.2
0.0015	-0.0165	0.0067	-0.0023	51.4
0.0007	-0.0218	0.009	-0.0023	51.6
0.0015	-0.021	0.0082	-0.003	51.8
0.0022	-0.0203	0.0105	-0.0023	52
0.003	-0.0173	0.0097	-0.003	52.2
0.0045	-0.0128	0.0105	-0.003	52.5
0.0052	-0.0068	0.0135	-0.0046	52.6
0.0052	0.003	0.0135	-0.0038	52.9
0.0045	0.0127	0.015	-0.003	53
0.0037	0.0135	0.015	-0.003	53.1
0.0037	0.0067	0.0142	-0.0008	53.3
0.003	0	0.0142	0.0007	53.4
0.0022	-0.0075	0.012	-0.0015	53.5
0.003	-0.0128	0.009	0.0007	53.7
0.0015	-0.012	0.006	0.003	53.8
0.0007	-0.0113	0.0045	0.0022	54
-0.0008	-0.0105	0.0045	0.0022	54.1
-0.0008	-0.012	0.003	0.0045	54.2
-0.0008	-0.0091	0.0052	0.003	54.3
-0.0008	-0.0091	0.003	-0.0008	54.4
-0.0008	-0.0083	0.003	-0.0008	54.6
-0.0015	-0.0053	0.0015	-0.0008	54.7
-0.0008	-0.0038	0.0007	-0.0015	54.9
-0.0008	-0.0008	0	-0.003	55
-0.0015	-0.0008	-0.0023	-0.0038	55.1
-0.0023	0.0022	-0.0046	-0.003	55.3
-0.0015	0.0015	-0.0068	-0.003	55.4
-0.0015	0.003	-0.0068	-0.0015	55.5
-0.0015	0.0067	-0.0068	-0.0008	55.6
0.0007	0.0052	-0.006	-0.0015	55.6
0.0007	0.0082	-0.0023	0	55.7
0.0007	0.009	-0.0023	0.0007	55.8
-0.0008	0.0105	-0.0015	0.0022	55.8
-0.0008	0.0105	0.0007	0.003	55.8
0.0007	0.0097	0.003	0.0015	55.9
-0.0008	0.009	0.0015	0.0015	56
-0.0008	0.0067	0.0007	0.003	56
0.0007	0.0082	0.0007	0.003	56.1
0.0015	0.0067	0.0037	0.003	56.1
0.0022	0.0052	0.0067	0.003	56.2
0.003	0.0052	0.0067	0.0052	56.2
0.003	0.0045	0.0075	0.006	56.3
0.003	0.0052	0.0105	0.0067	56.3
0.0045	0.0067	0.0127	0.0052	56.4
0.0045	0.0052	0.012	0.006	56.4
0.0045	0.0045	0.0097	0.0052	56.5
0.003	0.003	0.0052	0.0015	56.6
0.0015	0.003	0.003	0.003	56.6
0.0007	0.003	-0.0015	0.0015	56.6
-0.0008	0.0015	-0.003	0.0007	56.6
-0.0008	0.0015	-0.0015	0.0007	56.6
0	0.0007	-0.0053	0.0022	56.6
0	0.0022	-0.0046	0.0022	56.6
0.0007	0.003	-0.003	0.0015	56.6
-0.0008	0.0007	-0.0046	0.0015	56.6
0	0.0007	-0.0046	0	56.6
0.0015	-0.0008	-0.0038	-0.0008	56.6
0	-0.003	-0.0046	-0.0008	56.6
0.0015	-0.0023	-0.0015	0.0015	56.6
0.0015	0.0007	0.0007	0	56.6
0.0022	0.0007	0.0007	-0.0008	56.6
0.0015	-0.0008	-0.0008	-0.0023	56.6
-0.0008	-0.0015	-0.0008	-0.0046	56.6
0	-0.0015	-0.0008	-0.003	56.6
0.0007	-0.0008	-0.0023	-0.003	56.5
0.0015	-0.0008	-0.0015	-0.003	56.5
0.0007	-0.0008	-0.0008	-0.0038	56.5
-0.0008	-0.003	0	-0.0023	56.5
0	-0.0023	-0.0008	-0.0023	56.5
-0.0015	-0.0008	-0.0046	-0.003	56.4
-0.0015	0	-0.0053	-0.0015	56.4
-0.0015	0.0015	-0.0046	-0.0008	56.3
-0.0023	0.0007	-0.0046	-0.0015	56.3
-0.0015	-0.0008	-0.0046	-0.0023	56.2
-0.0015	0	-0.003	-0.0023	56.2
-0.0008	0.0007	-0.0023	-0.0008	56.2
0.0007	-0.0008	-0.0015	-0.0015	56.1
0.0007	0.0007	-0.0015	0	56.1
0	0.0007	-0.003	-0.0008	56.1
0.0007	-0.0023	-0.0046	-0.0015	56
0.0007	-0.003	-0.0068	-0.003	56
-0.0008	-0.0008	-0.006	-0.003	55.9
-0.0008	-0.0008	-0.0038	-0.0008	55.9
-0.0008	0.0007	-0.0068	-0.0015	55.8
-0.0008	0	-0.0083	-0.0015	55.8
-0.0008	-0.0008	-0.0091	0	55.8
-0.0015	-0.0015	-0.0091	-0.0015	55.7
-0.0008	-0.0008	-0.0083	-0.0015	55.6
-0.0008	0	-0.0046	-0.0015	55.6
0.0007	-0.0015	-0.0015	-0.003	55.5
0.0015	-0.0008	0	-0.0015	55.4
0.0007	0.0007	0	-0.0008	55.3
0.0007	0.0015	0.0007	-0.0008	55.2
0.0007	0.0015	0.0015	-0.0023	55.1
0.0007	0.0007	0.0007	-0.0023	55
-0.0008	0.0015	-0.0015	-0.0008	54.9
-0.0008	0.0007	-0.0015	0.0007	54.9
0	0.0022	-0.0038	0.0007	54.8
-0.0015	0.0007	-0.003	0.0015	54.7
-0.0008	0	-0.0008	0.0015	54.6
0	0	0	0	54.5
0.0007	0	-0.0008	0.0007	54.4
0.0015	0.0015	-0.0023	0.0015	54.4
-0.0008	-0.0008	-0.0008	0.003	54.3
0.0007	-0.0015	0.0007	0.003	54.2
0	-0.0008	-0.0015	0.0022	54.1
0.0007	0.0007	-0.003	0.003	54
0	0	-0.0015	0.0015	53.9
-0.0015	0.0007	-0.003	0.0007	53.8
-0.0015	0.0007	-0.0023	0.0015	53.6
0.0007	0.0007	0.0022	0.0045	53.5
0.0015	0.003	0.0045	0.003	53.3
0.0015	0.0015	0.0052	0	53.2
0.003	-0.0015	0.0052	0.0007	53.1
0.003	-0.0008	0.0045	0.0007	52.9
0.0022	0.0007	0.003	0.0007	52.8
0.0007	0.0015	0.0022	0.0007	52.6
0.0015	0.0015	0.003	0.0007	52.5
-0.0008	0.0007	-0.0008	-0.0008	52.3
-0.0008	0.0015	-0.0008	-0.0008	52.2
-0.0008	0.003	0.0015	-0.0008	52.1
-0.0008	0.0022	0.0015	-0.0015	51.9
0.0007	0.0015	0	0	51.8
0	0.0022	-0.0015	0.0007	51.7
0.0007	0.0022	0.0015	0.0007	51.5
0.0007	0.0015	0.0007	0.0015	51.3
-0.0008	0.0015	-0.0008	0.0015	51.2
0.0007	0.0015	0.0015	0.0007	51
0.0015	0.003	0	0.0007	50.8
0.0015	0.0022	0.0022	0.0007	50.7
0.0007	0.0015	0.0015	0	50.4
0.0007	0.0015	-0.0008	0	50.3
0.0015	0.0015	0.0007	-0.0008	50
0.0007	-0.0008	0.0007	-0.0015	49.9
0.0007	0.0015	0.0015	-0.0015	49.6
0	0.0007	-0.0008	-0.0008	49.5
-0.0008	0.0007	-0.0015	-0.0015	49.2
-0.0008	0.0007	-0.0008	-0.0008	49
-0.0008	0.0015	0.0007	0.0015	48.8
-0.0008	0.003	0.003	0	48.6
0	0.0022	0.0015	0.0015	48.4
-0.0008	0.0015	-0.0008	-0.0008	48.2
0	0.0007	-0.0015	-0.0023	48
0	0	-0.0008	0	47.8
0.0007	0.0015	0.0007	-0.0015	47.6
0	0.0015	0.0007	-0.0008	47.4
-0.0008	0.0007	0.0015	-0.0015	47.2
0.0007	0.0007	0.0007	-0.0046	46.9
-0.0008	0.0007	0.0007	-0.0046	46.7
0.0015	0.0015	0.0015	-0.0015	46.4
0.0022	0.003	0.0045	0.0007	46.2
0.0015	0.0015	0.0045	-0.0046	45.9
0.003	0.0015	0.0045	-0.012	45.6
0.0022	-0.0015	0.0052	-0.0158	45.4
0.0022	-0.003	0.0045	-0.0188	45.1
0.0015	-0.003	0.0037	-0.012	44.8
0	-0.0008	0.003	0.0142	44.5
0.0015	0.0015	0.003	0.0352	44.3
0.0007	0.0007	0.0045	0.0307	44.1
0	0.0007	0.0045	0.0142	43.8
0	-0.0015	0.0037	0.0097	43.5
0	0.0007	0.003	0.003	43.2
-0.0023	-0.0008	0.0045	-0.006	43
-0.0015	-0.003	0.003	-0.0038	42.7
0.0007	-0.0023	0.0037	-0.0015	42.4
-0.0008	-0.0015	0.0052	0.0015	42.2
0.0015	0.0007	0.0045	0.0045	41.9
0	-0.0008	0.0045	0.0015	41.6
-0.0015	0	0.0015	-0.0015	41.3
-0.0008	0.0007	-0.0008	-0.0008	41
-0.0015	0.0015	0.0015	0.0015	40.7
-0.0008	0.0015	0.0015	-0.0008	40.4
-0.0008	0.0015	0.0007	-0.0015	40
0	0.0007	0.0022	-0.0015	39.8
0	-0.0008	0.003	-0.0015	39.5
0.0015	-0.0008	0.0022	-0.0046	39.1
0.0007	-0.0023	0.0015	-0.0098	38.8
0.0007	-0.0015	0.0007	-0.0091	38.5
0	0.0007	-0.0015	-0.0068	38.2
0	0	-0.0008	-0.0008	37.9
0.0007	0.0022	-0.0015	0.012	37.6
0.0007	0.0022	-0.0008	0.015	37.3
0.0007	0.0007	0.0015	0.0052	36.9
-0.0015	0	0.0007	0.0007	36.7
0	0.0007	0.0022	0.0007	36.4
0.0007	-0.0008	0.0045	-0.0015	36
0	-0.0008	0.0015	-0.0008	35.7
0	0	0.0007	0.0007	35.4
-0.0008	0.0007	0.0007	0.0045	35.1
0.0007	0.003	0.0037	0.0105	34.8
0	0.003	0.0037	0.0082	34.5
0	0.0007	0.0022	-0.0053	34.1
-0.0008	-0.0008	0.003	-0.0098	33.8
-0.0015	-0.003	0.0037	-0.0023	33.5
0.0007	-0.0015	0.0067	-0.0015	33.2
0.0015	0.0007	0.0067	-0.0008	32.9
0.0015	0	0.0037	0.0015	32.6
0.0007	-0.0008	0.0045	0.0045	32.2
0.0007	-0.0008	0.0022	0.0052	31.9
0.0015	-0.0008	0.0015	0.0015	31.6
0.0015	-0.0023	0	0.003	31.3
0.0007	-0.0015	-0.003	0.0022	31
-0.0008	-0.0008	-0.0038	-0.0008	30.6
0	0.0007	-0.003	-0.0023	30.3
0.0015	0.0022	-0.003	-0.0046	30
0.0015	-0.0008	-0.003	-0.0015	29.7
0.0007	-0.0008	-0.0023	-0.0023	29.4
0.0007	-0.0015	-0.0023	-0.0128	29
0.0007	-0.0008	-0.003	-0.0263	28.8
0	-0.0008	-0.0038	-0.0293	28.4
0.0007	-0.0008	-0.003	-0.0233	28.2
0	0.0015	-0.0046	-0.0091	27.9
0.0007	0.0007	-0.003	0.0195	27.5
0	0.0022	-0.0023	0.0442	27.2
0.0015	0.0007	-0.0008	0.0405	27
0.0015	-0.0008	-0.003	-0.0015	26.6
0.0007	-0.0038	-0.0068	-0.0443	26.3
0.0007	-0.0046	-0.0098	-0.048	26
-0.0008	-0.0008	-0.0113	-0.0293	25.7
0	0.0022	-0.0105	-0.0046	25.4
0	0.0067	-0.0083	0.0277	25.1
0.0015	0.009	-0.0068	0.0682	24.8
0.0045	0.009	-0.0046	0.096	24.5
0.0052	0.0052	0.003	0.0562	24.2
0.003	-0.0015	0.0045	0.0022	23.9
0.0015	-0.0075	0.003	-0.0053	23.6
0.0007	-0.0083	0	-0.0105	23.3
0	-0.0053	-0.0023	-0.012	22.9
0.0007	-0.0068	-0.0038	-0.0143	22.7
-0.0008	-0.0068	-0.0038	-0.0181	22.4
0.0007	-0.0075	-0.0053	-0.0315	22
0.0007	-0.0083	-0.0083	-0.054	21.7
-0.0015	-0.0068	-0.0083	-0.0511	21.4
-0.0053	-0.003	-0.0091	-0.0375	21.1
-0.0083	0.0015	-0.0075	-0.0233	20.8
-0.0091	0.0067	-0.0046	0.0127	20.5
-0.0113	0.015	-0.0008	0.0735	20.2
-0.0105	0.0247	0.003	0.0847	19.8
-0.0046	0.0172	0.009	0.0142	19.5
0.0015	0.009	0.0142	-0.0195	19.2
0.0007	0.0052	0.009	-0.0256	18.9
0.003	0	0.0045	-0.042	18.6
0.003	0.003	0.0022	-0.0361	18.3
0.0015	0.0007	-0.0008	-0.0285	18
0.003	0.0007	-0.0015	-0.0008	17.6
0.0022	0.0045	-0.0015	0.0172	17.3
0.0015	0.0007	-0.0015	0.015	17
0.0022	-0.0008	-0.0008	0.042	16.6
0.0052	0	0.0045	0.0495	16.4
0.006	-0.0008	0.0022	0.0217	16.1
0.0022	-0.0023	-0.0008	-0.0075	15.7
0.0007	-0.0008	-0.003	-0.0225	15.5
0.0015	-0.0023	-0.0075	-0.0203	15.2
0.0015	-0.003	-0.0083	-0.0195	14.8
-0.0008	-0.0008	-0.0015	-0.0203	14.5
-0.0015	-0.0015	0.009	-0.027	14.2
-0.0046	-0.0015	0.0067	-0.0383	13.9
-0.0083	-0.0015	-0.0008	-0.0338	13.6
-0.0091	-0.003	-0.0046	-0.0285	13.3
-0.0091	-0.0068	-0.003	-0.0248	13
-0.0046	-0.0068	0.0015	-0.003	12.7
-0.0015	-0.0023	0.0052	0.033	12.4
0.0015	0.003	0.0135	0.054	12.1
0.0015	0.0082	0.0135	0.0457	11.7
0.0007	0.0157	0.006	0.0262	11.5
0.0135	0.027	-0.0008	0.0142	11.2
0.03	0.018	-0.0083	-0.0015	10.8
0.0352	0.003	-0.0128	-0.0091	10.5
0.0322	-0.0023	-0.0195	-0.0143	10.3
0.0195	0.0007	-0.0256	-0.024	10.1
0.0067	-0.0015	-0.0368	-0.0143	9.8
-0.0015	-0.0143	-0.0248	-0.012	9.6
-0.0038	-0.0165	0.0127	-0.0105	9.4
0.003	-0.021	0.0217	-0.0091	9.1
0.0082	-0.0218	0.0165	-0.024	8.9
0.0052	-0.0143	0.0157	-0.021	8.6
-0.0173	-0.003	0.009	-0.0068	8.4
-0.0405	0.009	0.0052	0.009	8.2
-0.054	0.003	-0.0015	0.003	8
-0.0593	-0.0105	-0.0068	-0.0256	7.7
-0.039	-0.021	-0.012	-0.0308	7.5
-0.0128	-0.0368	-0.0203	-0.0165	7.2
-0.003	-0.0383	-0.0293	0.0097	7
-0.0008	-0.0233	-0.033	0.0367	6.8
0.0112	-0.0015	-0.0315	0.0517	6.6
0.0262	0.0217	-0.0293	0.0427	6.3
0.0262	0.039	-0.0195	-0.0075	6.1
0.0225	0.033	-0.0083	-0.0383	5.8
0.027	0.0157	-0.0008	-0.0278	5.7
0.021	0.0375	-0.0008	-0.0083	5.5
0.003	0.0802	0.0007	-0.012	5.3
-0.0256	0.0502	0.003	-0.042	5.2
-0.0555	-0.0195	0.009	-0.039	5
-0.0653	-0.0143	0.0217	-0.0083	4.8
-0.042	-0.0083	0.0202	0.03	4.7
-0.0068	-0.0203	0.0225	0.0585	4.5
0.0187	-0.0181	0.0307	0.0697	4.3
0.0382	-0.0091	0.0435	0.0757	4.1
0.042	0.0277	0.0577	0.0592	4
0.0382	0.0375	0.0645	0.0337	3.8
0.027	0.0277	0.063	0.0142	3.6
0.0112	0.027	0.054	0.003	3.5
0.0097	0.009	0.051	-0.0015	3.3
0.015	-0.0233	0.051	-0.0143	3.1
0.0142	-0.0278	0.0502	-0.027	3
0.012	-0.024	0.0532	-0.0361	2.8
0.012	-0.0256	0.0487	-0.0188	2.6
0.012	-0.0105	0.0405	0.0142	2.4
0.0022	0	0.0345	0.0337	2.3
-0.0038	0.0052	0.0277	0.045	2.1
0	-0.0053	0.0202	0.0367	1.9
-0.0105	-0.0091	0.018	0.0255	1.7
-0.0248	-0.0083	0.0277	0.009	1.5
-0.0233	-0.0015	0.0345	-0.03	1.3
-0.0083	0.012	0.0292	-0.0593	1.1
0.0105	0.0052	0.021	-0.09	0.9
0.0127	-0.0173	0.0097	-0.1193	0.7
0.0007	-0.0218	-0.0008	-0.1035	0.5
-0.0128	-0.0158	-0.0015	-0.06	0.3
-0.0158	-0.021	0.009	0.0045	0.1
-0.0173	-0.0203	0.0157	0.0817	-0.1
-0.012	-0.0233	0.0127	0.132	-0.3
-0.0015	-0.0225	0.012	0.132	-0.5
0.0082	-0.021	0.0052	0.093	-0.7
0.0232	-0.0158	-0.021	0.0412	-0.9
0.042	0	-0.0458	0.006	-1
0.0577	0.0255	-0.0668	0.0052	-1.3
0.048	0.0555	-0.0878	0.012	-1.5
0.0277	0.0772	-0.093	0.0232	-1.6
0.0082	0.06	-0.081	0.0052	-1.7
-0.0135	-0.0008	-0.0653	-0.0518	-1.8
-0.03	-0.033	-0.0465	-0.084	-2
-0.0465	-0.06	-0.0323	-0.117	-2.1
-0.0473	-0.0578	-0.0233	-0.1178	-2.2
-0.027	-0.0263	-0.012	-0.0458	-2.3
-0.0158	-0.0173	-0.0105	0.0285	-2.5
-0.0165	-0.0113	-0.0195	0.0945	-2.6
-0.012	-0.0083	-0.0323	0.12	-2.7
-0.0135	-0.0046	-0.0278	0.099	-2.9
-0.0023	0.009	-0.0143	0.093	-3
0.0105	0.0442	-0.012	0.0667	-3.2
0.0105	0.0982	-0.015	0.0465	-3.3
0.0135	0.168	-0.0188	0.0352	-3.4
0.012	0.1305	-0.0165	-0.003	-3.5
0.0105	0.018	-0.0046	-0.0098	-3.6
0.0127	0.0112	0.0142	-0.0173	-3.8
0.0045	-0.0068	0.0255	-0.0353	-3.9
0.0007	-0.0278	0.0345	-0.0233	-4.1
0.0262	-0.012	0.0277	-0.0158	-4.1
0.0457	-0.024	0.0127	-0.0218	-4.1
0.0307	-0.0293	-0.003	-0.042	-4.1
0.0202	-0.039	-0.0353	-0.0743	-4
0.0142	-0.0398	-0.054	-0.0863	-4
0.015	-0.0293	-0.0593	-0.0683	-4
0.018	-0.0188	-0.0563	-0.0436	-3.9
-0.0091	-0.0158	-0.0413	-0.0323	-3.9
-0.0413	-0.0128	-0.0278	-0.0181	-3.9
-0.0593	-0.021	-0.0195	0.0045	-3.9
-0.084	-0.0443	-0.0098	0.0165	-3.9
-0.108	-0.0368	-0.0098	0.0255	-3.8
-0.0878	-0.0038	-0.0181	0.0172	-3.8
-0.0233	0.0247	-0.0218	-0.0158	-3.8
0.0307	0.015	-0.0195	-0.0315	-3.7
0.0427	0.0015	-0.012	-0.03	-3.7
0.0367	0.0082	-0.003	-0.0346	-3.7
0.009	-0.0075	0.0082	-0.0278	-3.7
-0.0113	-0.033	0.027	-0.012	-3.6
0.0232	-0.0225	0.0375	0.0045	-3.6
0.048	-0.0165	0.0262	0.0255	-3.5
0.0592	-0.0091	0.0105	0.0435	-3.4
0.0645	-0.0008	0.003	0.0427	-3.3
0.0502	0.0127	-0.003	0.027	-3.2
0.0165	0.0585	0.0007	0.0127	-3.1
-0.033	0.039	0.0165	-0.0158	-2.9
-0.0593	-0.0046	0.0165	-0.0375	-2.8
-0.057	-0.0091	-0.0008	-0.0263	-2.7
-0.0503	-0.0038	-0.0083	-0.0053	-2.6
-0.03	0.0015	-0.0233	0.015	-2.4
-0.0023	-0.0158	-0.0256	0.0165	-2.3
-0.0091	-0.024	-0.0308	0.003	-2.2
-0.012	-0.024	-0.0218	-0.0113	-2.1
0.003	-0.0361	0	-0.0083	-2
0.0277	-0.042	0.0142	0.0045	-1.8
0.0682	-0.0338	0.0315	-0.0098	-1.8
0.0787	-0.0383	0.0337	-0.0405	-1.6
0.0585	-0.063	0.0322	-0.063	-1.5
0.033	-0.033	0.0247	-0.0308	-1.4
0.0225	0.0007	0.0202	0.0195	-1.3
-0.0075	0.0082	0.0187	0.0517	-1.1
-0.054	0.0615	0.018	0.09	-0.9
-0.0803	0.063	0.0105	0.0892	-0.7
-0.1013	0.0127	-0.0083	0.069	-0.5
-0.0856	0.0112	-0.0091	0.0465	-0.4
-0.033	0.036	-0.003	0.012	-0.2
-0.0053	0.1117	0.012	0.0105	0
-0.0008	0.2212	0.0292	0.0292	0.2
0.0165	0.2482	0.0405	0.0337	0.4
0.0262	0.0765	0.0195	0.0127	0.5
0.0367	-0.066	-0.0015	-0.0046	0.7
0.0435	-0.0263	-0.0038	-0.0038	0.9
0.0375	-0.0278	-0.0128	-0.0068	1
0.0195	-0.0181	-0.015	-0.0158	1.2
-0.0038	-0.012	-0.0195	-0.0293	1.4
-0.0181	-0.0203	-0.0195	-0.0233	1.6
-0.024	0.003	-0.021	-0.0158	1.8
-0.012	-0.0075	-0.0068	-0.0225	1.9
0.0097	-0.0165	0.0067	-0.0285	2.1
0.0195	-0.0293	0.0045	-0.0315	2.3
0.012	-0.0346	-0.0075	-0.0293	2.4
-0.0015	-0.0443	-0.0225	-0.0285	2.5
-0.0105	-0.054	-0.0165	-0.0278	2.6
-0.0083	-0.0593	-0.0158	-0.0315	2.7
-0.0046	-0.0548	-0.0203	-0.0315	2.8
0.0067	-0.0225	-0.0308	-0.0233	3
0.0195	0.0022	-0.054	-0.0143	3.1
0.0292	0.0225	-0.0495	0.0007	3.2
0.042	0.0262	-0.0233	0.0067	3.3
0.0517	0.0037	0.0195	0.0142	3.4
0.057	-0.024	0.0915	0.0202	3.5
0.0435	-0.0308	0.1087	0.0157	3.6
0.0082	-0.0181	0.06	0.0195	3.7
-0.0091	-0.0046	-0.0046	0.0217	3.8
0.0487	0.0007	-0.0353	0.0225	4
0.0975	0.0015	0.0045	0.0232	4
0.1027	-0.0046	0.042	0.0157	4.2
0.0802	-0.0285	0.0787	0.006	4.3
-0.0173	-0.0346	0.0855	-0.0053	4.4
-0.1065	-0.0225	0.0262	-0.0105	4.5
-0.1426	-0.0053	-0.0091	-0.0188	4.5
-0.108	0.018	-0.0173	-0.0203	4.4
-0.0533	0.0157	-0.0173	-0.0053	4.3
-0.0218	0.0045	-0.0128	0.0112	4.2
0.0105	0.0007	-0.0015	0.0195	4.1
-0.0503	-0.0105	0.0015	0.0045	4
-0.126	-0.0128	-0.0225	-0.0083	4
-0.075	-0.0105	-0.0458	-0.0046	3.9
0.0022	-0.006	-0.0503	-0.0068	3.8
0.0225	0.0007	-0.0405	-0.0083	3.7
0.0172	0.0075	-0.027	-0.006	3.6
-0.012	0.0165	-0.0075	-0.0023	3.6
-0.0495	0.0127	0.009	0.0015	3.5
-0.0518	0.0052	0.0157	0.0015	3.4
-0.0038	-0.0008	0.0217	0.0052	3.3
0.0315	-0.006	0.0172	0.0052	3.2
0.0202	-0.006	0.009	0.0022	3.1
0.0232	-0.0038	0.0022	0.0022	3.1
0.0232	0.0037	-0.0008	0	3
0.0232	0.0135	-0.0053	-0.0053	2.9
0.0232	0.0142	-0.0068	-0.0128	3.1
0.0112	0.012	-0.0038	-0.0158	3.2
0.012	0.0105	0	-0.0113	3.4
0.0157	0.0097	0.0052	-0.006	3.6
0.0255	0.0105	0.0015	-0.006	3.7
0.024	0.0105	-0.0053	-0.0046	3.9
0.0217	0.009	-0.0023	0.0015	4
0.0195	0.0082	0.0007	0.0067	4.2
0.0195	0.0075	-0.0068	0.003	4.4
0.0195	0.0045	-0.0113	0.0007	4.5
0.0165	0.0045	-0.0135	0.009	4.7
0.0157	0.0045	-0.0181	0.0097	4.9
0.0097	0.0007	-0.0158	0.006	5
0.0082	0.0022	-0.0158	0.0135	5.2
0.0075	0.0082	-0.0225	0.018	5.4
0.006	0.0105	-0.0203	0.0112	5.5
-0.0008	0.0097	-0.0143	0.0075	5.7
-0.0128	0.009	0.0022	0.0067	5.9
-0.0203	0.0067	0.0127	0.003	6
-0.012	0.0037	0.0082	0.0015	6.2
0.0112	0	0.0045	-0.006	6.3
0.012	-0.0083	0.0127	-0.0083	6.4
0.0015	-0.0181	0.0187	-0.0038	6.5
-0.0053	-0.0143	0.0255	-0.0083	6.6
-0.0181	-0.0015	0.033	-0.0091	6.7
-0.0308	-0.0053	0.0217	-0.0098	6.7
-0.0368	-0.003	0.0255	-0.0046	6.8
-0.0346	0.009	0.0007	0.0015	6.9
-0.0218	0.015	-0.0608	0.0052	7
-0.0158	0.012	-0.0788	0.0112	7.2
-0.0165	0.0127	-0.0256	0.0082	7.2
0.0067	0.0247	0.0502	0.0045	7.3
0.0457	0.0255	0.1027	-0.0015	7.4
0.0592	0.0112	0.1155	-0.003	7.5
0.0345	-0.0083	0.0997	0.0007	7.6
0.0367	-0.0068	0.0727	0.0015	7.7
0.099	0.0022	0.033	0.0052	7.8
0.144	-0.0143	-0.0158	0.0007	7.9
0.1455	-0.033	-0.0315	-0.0015	8
0.09	-0.0315	-0.0068	0	8.1
-0.0285	-0.0263	0.0105	-0.0023	8.1
-0.1283	-0.0158	0.0397	0.0007	8.1
-0.1328	-0.0083	0.0352	0.0037	8.1
-0.0436	-0.0038	0.018	0.0082	8
0.0067	0.015	0.0165	0.012	8
0.012	0.0082	-0.0008	0.0075	8
0.051	-0.0015	0.009	0.003	8
0.0862	0.0202	0.0172	-0.0046	8
0.075	0.0307	0.0315	-0.0091	7.9
-0.039	0.0112	0.03	-0.0053	7.9
-0.1658	-0.006	0.003	-0.0038	7.9
-0.1575	-0.0256	-0.0308	-0.006	7.9
-0.1343	-0.0413	-0.0721	-0.0068	7.9
-0.1463	-0.0233	-0.0968	-0.0046	7.8
-0.0623	-0.0023	-0.075	-0.0008	7.8
-0.0053	0.015	-0.0428	0.0007	7.8
-0.012	0.0277	-0.039	-0.0015	7.8
-0.0256	0.0262	-0.0323	-0.0023	7.8
-0.042	0.012	-0.0233	0.0007	7.7
-0.0068	-0.0046	-0.006	0.0045	7.7
0.012	-0.0128	-0.0113	0.0067	7.7
0.0165	-0.0165	-0.0278	0.0082	7.7
0.0232	-0.0053	-0.03	0.0097	7.7
0.018	0.009	-0.0383	0.0045	7.7
0.0127	0.0082	-0.0308	-0.0038	7.7
0.0045	0.0067	-0.0225	-0.0098	7.7
0.009	0.0165	-0.0105	-0.012	7.7
0.0105	0.006	-0.0015	-0.0075	7.7
0.0142	0.0007	0.0007	-0.0015	7.7
0.012	0.0037	0.0007	-0.003	7.6
0.0165	-0.0015	-0.0015	-0.0008	7.6
0.0555	0.0015	0.0015	0.0097	7.6
0.069	-0.0008	0.0037	0.0142	7.6
0.0412	0.0015	0.0135	0.0172	7.6
0.0232	0	0.0247	0.0315	7.6
0.0195	0.003	0.0337	0.0345	7.6
0.0232	0.006	0.03	0.0202	7.6
0.027	0.003	0.0262	0.0082	7.6
0.0202	0.006	0.0262	-0.0038	7.6
0.0157	0.003	0.018	-0.0068	7.6
0.0082	0.0007	0.018	-0.0046	7.6
0.0015	-0.003	0.0187	-0.0075	7.7
-0.0008	-0.003	0.0165	-0.0053	7.7
-0.006	-0.0046	0.0127	-0.0075	7.8
-0.0091	-0.006	0.009	-0.0083	7.8
-0.0135	-0.003	-0.0015	-0.0053	7.9
-0.0105	-0.0046	-0.012	-0.0068	8
0.003	-0.0008	-0.0165	-0.006	8
0.0082	0.003	-0.0128	-0.0053	8.1
-0.0008	0.0022	-0.0038	-0.0053	8.1
-0.006	0	-0.0008	-0.0046	8.2
-0.0075	0.0007	0.0022	-0.003	8.2
-0.0015	0.003	0.009	-0.0015	8.3
0.009	0.0052	0.0157	-0.0015	8.4
0.0165	0.0007	0.0255	-0.0046	8.4
0.018	-0.0113	0.0345	-0.0046	8.5
0.0015	-0.012	0.033	-0.006	8.5
-0.0158	-0.0098	0.0262	-0.0053	8.5
-0.0218	-0.0091	0.0135	-0.0023	8.6
-0.0173	0.0045	0.0007	-0.0038	8.7
-0.0046	0.0202	-0.003	-0.0046	8.7
0	0.0232	-0.0053	-0.0046	8.7
-0.0046	0.0082	-0.006	-0.0038	8.7
-0.0008	0.0015	-0.0075	-0.003	8.7
0.0007	0.0007	-0.0091	-0.0046	8.7
0.009	-0.003	-0.0083	-0.0046	8.7
0.0112	-0.0015	-0.0105	-0.0046	8.6
-0.0068	-0.0015	-0.0105	-0.0046	8.6
-0.0248	0.0022	-0.0068	-0.003	8.6
-0.0263	0.003	-0.0075	-0.003	8.6
0.0105	-0.0008	-0.0083	-0.0023	8.6
0.03	-0.003	-0.0053	-0.003	8.6
0.0427	-0.0015	-0.0038	-0.0008	8.6
0.0487	-0.0008	-0.0053	-0.0008	8.5
-0.003	-0.003	-0.0068	-0.0008	8.5
-0.0285	-0.0038	-0.0068	0.0007	8.5
-0.0068	-0.0015	-0.0068	-0.0023	8.5
-0.0046	0.0007	-0.0046	-0.003	8.5
-0.0038	-0.0038	-0.0046	-0.0046	8.5
-0.0008	-0.0038	-0.0015	-0.0023	8.5
-0.0015	0.0007	0.0007	0.0007	8.5
0.009	0.003	0	0.0007	8.5
0.015	0.003	0.0037	-0.0008	8.5
0.0172	0.0022	-0.0015	-0.0008	8.5
0.0022	0.003	-0.0128	0	8.5
-0.0128	0.0015	-0.015	0.0007	8.5
-0.0143	0.0015	-0.0046	0.0007	8.4
-0.0218	0	0.0052	-0.0015	8.4
-0.0578	-0.0015	0.0052	0.0007	8.4
-0.081	0.0015	0.0037	0.003	8.4
-0.0315	0.0022	0.003	0.0007	8.4
0	0.003	0.0105	0.0022	8.4
0.0015	0.0045	0.0142	0.0045	8.4
0.0105	0.0052	0.0067	0.006	8.3
-0.0015	0.009	-0.0083	0.0022	8.3
-0.0008	0.0217	-0.015	0.0007	8.3
0.003	0.021	-0.0098	0.003	8.3
0.0165	0.0067	-0.006	0.0015	8.3
0.0202	-0.003	0	0.0015	8.3
0.0052	-0.0098	0.0022	0.0045	8.2
0.0075	-0.0128	0.0007	0.0052	8.2
0.0015	-0.0248	0.0007	0.0045	8.2
0.006	-0.0248	-0.003	0.0045	8.2
0.0127	-0.0113	-0.0046	0.0045	8.1
0.0142	-0.0075	-0.0023	0.0015	8.1
0.015	0	0.0022	0.0007	8.1
0.0277	0.0075	0.006	-0.0008	8.1
0.048	0.0045	-0.0105	-0.0008	8.1
0.0277	-0.0068	-0.0323	-0.0008	8
-0.0143	-0.0135	-0.0165	-0.0015	8
-0.0165	-0.0158	0.0045	0.0007	8
0	-0.0165	0.0232	0.0022	7.9
-0.0015	-0.0046	0.051	0.0015	7.9
0.003	0.0255	0.0697	0.0007	7.9
0.009	0.0405	0.0742	0.0015	7.8
0.0127	0.036	0.0382	0.003	7.8
0.0157	0.0322	0.0007	0.0052	7.8
-0.0053	0.0202	-0.0308	0.0052	7.7
-0.0233	0.0045	-0.042	0.0015	7.7
-0.0105	-0.024	-0.0375	-0.0046	7.6
0.009	-0.039	-0.033	-0.0053	7.6
0.0397	-0.012	-0.0181	-0.0053	7.6
0.0202	0.0052	-0.0165	-0.0068	7.6
-0.0533	-0.0015	-0.0181	-0.0068	7.6
-0.063	-0.0046	-0.027	-0.006	7.5
-0.0503	-0.0068	-0.0368	-0.0046	7.5
-0.03	-0.0038	-0.039	-0.0015	7.5
-0.0091	-0.0008	-0.0218	-0.0008	7.4
-0.0068	0.0015	-0.0015	0.0015	7.4
0.0015	0.0037	0.0015	0.0007	7.4
-0.0091	0.003	0.0045	0.0015	7.3
-0.0008	0.0015	0.0037	0.0045	7.3
0.0015	0.0007	0.0075	0.003	7.3
0.0007	0.0007	0.0067	0.003	7.2
0.0022	-0.0008	0.0045	0.0037	7.2
-0.0015	0.0022	0.0015	0.0037	7.2
0.003	0.003	-0.0038	0.0022	7.2
0.0007	0.003	0.0015	0.0045	7.1
0.003	0.0045	0.006	0.003	7.1
0.0007	0.0052	0.0007	0.0015	7
0.003	0.0075	-0.0053	0.003	7
0.0045	0.0015	-0.0105	0.003	7
0.0007	-0.0053	-0.0068	0.003	7
-0.0015	-0.0083	0.003	0.0007	6.9
-0.003	-0.0143	0.0105	-0.0015	6.9
0	-0.0158	0.0172	-0.0023	6.9
0.0067	0.0007	0.0142	-0.0068	6.8
0.0082	0.0217	0.0112	-0.0083	6.8
0.0067	0.0262	0.009	-0.0083	6.8
0.0097	0.012	0.0082	-0.0068	6.7
0.0127	0.0045	0.0157	-0.0015	6.7
0.0247	0.003	0.0195	0.003	6.7
0.0442	-0.0008	0.0157	0.0075	6.7
0.0682	-0.0008	0.012	0.0067	6.6
0.0645	-0.0038	0.0075	0.0015	6.6
0.0127	-0.003	0.0015	-0.0008	6.6
-0.0128	-0.0023	0.0007	0.0037	6.5
-0.033	-0.0015	-0.0015	0.0075	6.5
-0.0518	-0.0008	-0.0053	0.0075	6.5
-0.027	-0.003	-0.0083	0.0045	6.4
-0.0188	-0.0053	-0.0083	-0.0105	6.4
-0.0091	-0.0083	-0.0053	-0.024	6.4
-0.0075	-0.0053	0	-0.0173	6.3
-0.0053	-0.0023	0.0037	0.0022	6.3
0.003	0.0022	0.0052	0.018	6.3
0.0015	0.0045	0.0052	0.027	6.3
0.012	0.0052	0.0082	0.0225	6.3
0.0157	0.0045	0.0105	0.0022	6.3
0.0165	0.0007	0.0105	-0.0083	6.2
0.0015	-0.0008	0.0067	-0.0046	6.2
-0.0181	-0.0015	0.0045	-0.0053	6.2
-0.0165	-0.0015	0.0052	-0.0053	6.1
-0.0023	-0.0015	0.0045	-0.003	6.1
-0.0053	-0.0015	0.0105	-0.0046	6.1
-0.0046	0.0007	0.0105	-0.0046	6.1
-0.0046	0.0015	0.0015	-0.0038	6
-0.0128	0.0015	-0.003	-0.0046	6
-0.0068	-0.0008	0.0007	-0.003	6
-0.0008	-0.0023	0.012	-0.0046	6
0.0112	-0.003	0.0232	-0.0046	5.9
0.012	0.0022	0.0247	-0.003	5.9
0.0045	0.0082	0.003	-0.003	5.9
0.0007	0.009	-0.0203	-0.0068	5.9
0.0045	0.0082	-0.0398	-0.0075	5.9
0.0082	0.0045	-0.0428	-0.0068	5.8
0.003	-0.003	-0.0315	-0.006	5.8
0.0097	-0.0083	-0.0233	-0.0046	5.8
0.0165	-0.0015	-0.0098	-0.0038	5.8
0.0015	0.0015	-0.0015	-0.0046	5.8
-0.0068	-0.0015	0.0067	-0.0046	5.8
0.0067	-0.0008	0.003	-0.0083	5.8
0.0127	-0.0023	0.0015	-0.0105	5.8
0.0075	-0.0015	0.0045	-0.0068	5.7
0	-0.003	0.012	-0.0015	5.7
-0.0015	-0.003	0.0172	0.0022	5.7
-0.0015	-0.0008	0.0082	0.0052	5.7
-0.0038	-0.0008	0.0045	0.0045	5.7
-0.003	0.0015	0.003	-0.0038	5.7
-0.0015	0.0015	0.0082	-0.012	5.6
-0.0008	0.0007	0.0052	-0.0105	5.6
-0.0015	0.0007	0.0015	-0.0083	5.6
-0.0015	0.0007	0.0007	-0.0053	5.6
-0.0038	0.0007	-0.0008	0.0007	5.6
-0.0068	0.0007	-0.0015	0.0045	5.6
-0.0068	0.0022	-0.003	-0.0008	5.5
-0.0083	0.009	-0.003	-0.003	5.5
-0.0091	0.0232	-0.0068	-0.0015	5.5
-0.0075	0.0292	-0.0158	-0.003	5.5
-0.006	0.0172	-0.0218	0.0007	5.5
-0.003	-0.0038	-0.0113	0.0067	5.5
0.003	-0.0203	-0.0015	0.012	5.5
0.0075	-0.0308	0.0082	0.0165	5.4
0.0127	-0.0346	0.015	0.018	5.4
0.0135	-0.0233	0.0157	0.0202	5.4
0.0067	-0.0038	0.0157	0.021	5.4
0.0007	0.0007	0.0112	0.0217	5.4
-0.0015	0.0082	0.009	0.0195	5.4
-0.003	0.0082	0.0037	0.0187	5.4
-0.003	0.0007	0.0007	0.0172	5.3
-0.003	0.0007	0.0015	0.0157	5.3
0.0052	0.003	0.003	0.0142	5.3
0.0135	0.009	0.0007	0.0142	5.3
0.0105	0.009	-0.0038	0.015	5.3
-0.0038	0.0067	-0.0046	0.012	5.2
-0.0158	0.0045	-0.006	0.0082	5.2
-0.0128	0.003	-0.006	0.0037	5.1
-0.0053	0.0022	-0.0098	0.0022	5.1
-0.003	0.0015	-0.012	0.0082	5.1
-0.0015	0.0045	-0.0195	0.0105	5
-0.0008	0.0037	-0.0285	0.009	5
-0.0015	0.0045	-0.0315	0.0097	4.9
0.0007	0.0037	-0.033	0.0015	4.9
0.003	0.0015	-0.0338	-0.0113	4.9
0.003	0.0007	-0.0353	-0.012	4.9
0.003	-0.0008	-0.039	-0.0128	4.8
0.0022	-0.0008	-0.0443	-0.0143	4.8
0.0007	0.0007	-0.0458	-0.0143	4.7
-0.0008	0.0015	-0.042	-0.0181	4.7
-0.003	0	-0.039	-0.0165	4.7
-0.0015	0.0007	-0.0353	-0.0158	4.6
-0.0008	-0.0023	-0.0361	-0.0143	4.6
0.0015	-0.003	-0.033	-0.0158	4.5
0.0037	-0.0015	-0.0308	-0.0173	4.5
0.0007	-0.003	-0.0308	-0.0143	4.5
-0.0023	-0.0015	-0.0233	-0.0143	4.5
-0.0008	-0.0008	-0.0195	-0.0143	4.4
-0.0015	-0.0008	-0.0165	-0.0128	4.4
-0.0053	0.0015	-0.0173	-0.0105	4.4
-0.0068	0.0037	-0.0173	-0.006	4.3
-0.0015	0.0052	-0.0091	-0.0038	4.3
0.0097	0.0045	-0.0023	-0.0038	4.2
0.0157	0.0052	0.0067	-0.0023	4.2
0.0067	0.0015	0.0135	-0.003	4.2
-0.0015	0.0015	0.0172	-0.0046	4.1
0.003	0.0037	0.0195	-0.0015	4.1
0.0015	-0.0008	0.0195	0	4
-0.0015	-0.0008	0.0225	0.0007	4
0.0007	-0.0008	0.0232	-0.0008	4
-0.0015	0.0007	0.0202	0	4
0.0015	0.0007	0.0172	0.0015	3.9
0.0015	-0.0008	0.0172	0.0007	3.9
0	-0.0008	0.0172	0.0007	3.8
0.0022	-0.003	0.0157	0.0007	3.8
0.0007	-0.0008	0.0157	0.0037	3.7
-0.0008	0.0007	0.0165	0.0037	3.7
-0.0015	0.003	0.0195	0.0015	3.6
-0.0008	0.0022	0.0202	0.003	3.6
-0.0015	0.0007	0.0225	0.003	3.6
-0.0015	0.0015	0.0247	0.0007	3.5
-0.0023	0.0007	0.027	0.003	3.5
-0.0015	0.0007	0.0292	0.0015	3.5
-0.0008	-0.0008	0.0277	0.0007	3.4
0	-0.0015	0.0285	-0.0008	3.4
-0.0008	-0.0015	0.0292	-0.0015	3.3
-0.0015	-0.0008	0.0292	0.0007	3.3
-0.0008	-0.0008	0.0285	0.0015	3.2
-0.0015	0.0022	0.0262	0.0037	3.2
-0.0015	0.003	0.0277	0.0037	3.1
-0.0008	0.0015	0.0292	0.0037	3.1
-0.0008	0.003	0.0262	0.003	3
0.0022	0.003	0.0277	0.0022	3
0.0045	0.003	0.0292	0.0037	3
0.006	0.0022	0.0277	0.0045	2.9
0.003	0.0015	0.0277	0.0045	2.8
-0.0008	0.0007	0.027	0.0045	2.8
-0.0008	-0.0015	0.0247	0.0037	2.7
-0.0008	-0.0015	0.0232	0.003	2.7
0.0007	-0.0008	0.024	0.0045	2.6
0.0015	0.0007	0.0225	0.003	2.6
0.0022	0.0007	0.0202	0.0007	2.5
0.003	0.0007	0.018	0.0022	2.5
0.003	0.0015	0.0157	0.003	2.4
-0.0008	0.0015	0.0127	0.0022	2.3
-0.0023	0.0007	0.0105	0.0037	2.3
-0.0015	-0.0008	0.009	0.003	2.2
0.0015	0	0.0075	0.0015	2.2
0.0007	-0.0015	0.003	0.0015	2.2
0.0015	-0.0008	0.003	0.003	2.1
0.0022	0.0007	0.003	0.003	2
0.0007	-0.0008	0.0007	0.0015	1.9
-0.0008	-0.0015	-0.0008	0.0007	1.9
-0.0008	-0.0015	-0.003	0.0007	1.9
0.0007	-0.0015	-0.0008	0.0015	1.8
0.0015	0	-0.003	0.003	1.8
0	0.0007	-0.0038	0.003	1.7
0	0.003	-0.0046	0.0022	1.7
-0.0015	0.0022	-0.0046	0.0015	1.6
-0.0008	0.0015	-0.003	0.0007	1.6
-0.0008	0.0015	-0.0023	0.0015	1.5
0.0007	-0.0008	0.0007	-0.0008	1.5
0.0015	0.0015	0.003	-0.0008	1.4
0.0007	0.0015	0.0015	0.003	1.4
0.0015	0.0007	0.0007	0.003	1.3
0	0.0022	0.0015	0.003	1.3
-0.0008	0.0007	0.0037	0.0015	1.2
0	0.0007	0.0045	0.0007	1.2
-0.0015	0.0007	0.0037	-0.0008	1.1
-0.0015	0	0.0045	-0.0015	1.1
-0.0008	0.0007	0.0045	-0.003	1
0.0007	-0.0008	0.0052	-0.003	0.9
0.0007	-0.0015	0.0075	-0.0015	0.9
-0.0008	-0.0008	0.0082	-0.0053	0.9
0	-0.0015	0.0082	-0.0068	0.9
-0.0008	-0.003	0.0067	-0.0015	0.8
-0.0015	-0.0015	0.0052	-0.0008	0.8
-0.0023	-0.0008	0.0045	-0.0046	0.7
-0.003	0.0015	0.0052	-0.0015	0.7
-0.0015	0.0007	0.0067	0.0007	0.6
-0.0008	0.0015	0.0052	-0.0046	0.6
0	0.003	0.0037	0.0007	0.5
0.0007	0.0015	0.0052	0.0052	0.4
0.0015	0.0015	0.0037	0.0022	0.4
0.0015	-0.0008	0.0037	0.0015	0.4
0	-0.0008	0.003	-0.0008	0.3
0.0007	-0.0008	0.0007	0.0045	0.3
0	0.0007	-0.003	0.0052	0.2
-0.0023	0.0007	-0.0023	-0.003	0.2
-0.0015	0	-0.0008	-0.006	0.1
-0.0008	0	-0.0008	-0.0038	0.1
0.0022	0.0007	-0.003	-0.003	0
0.003	0.0007	-0.0038	-0.003	0
0.0015	-0.0008	-0.0046	-0.0046	0
0.003	0.0007	-0.0053	-0.0053	-0.1
0.003	0.0007	-0.0053	-0.0046	-0.1
0.0022	-0.0008	-0.0068	-0.0015	-0.2
0.0022	-0.0015	-0.0068	-0.0008	-0.2
0.0022	0.0007	-0.0083	-0.0015	-0.3
0.0015	0.0007	-0.0105	-0.0038	-0.3
0.0007	0	-0.0143	-0.0023	-0.4
0.0022	0.0007	-0.0143	0.003	-0.4
0.0022	-0.0008	-0.0135	0.0082	-0.5
-0.0008	0	-0.0135	0.0082	-0.5
0	0	-0.0143	0.0037	-0.5
0.0007	-0.0015	-0.015	0.0007	-0.6
0.0007	-0.0008	-0.015	0.0022	-0.6
0.0015	-0.0015	-0.0143	0.006	-0.7
0.0007	-0.003	-0.0128	0.0082	-0.7
0.0015	-0.0015	-0.0135	0.0015	-0.8
0.0022	-0.0015	-0.0135	-0.0098	-0.8
0.0007	0	-0.0128	-0.0105	-0.9
0.0007	0.0015	-0.0105	-0.0015	-0.9
0.0015	0.0022	-0.0098	0.006	-0.9
0.003	0.0015	-0.0113	0.0127	-1
0.003	0.0015	-0.0105	0.0157	-1
0.0007	0.0015	-0.0105	0.009	-1.1
0.0007	0.0022	-0.0091	0.003	-1.1
0.0007	0.003	-0.0083	-0.0023	-1.2
-0.0008	0.003	-0.0091	-0.0083	-1.2
-0.0008	0.003	-0.0068	-0.0113	-1.3
0.0007	0.003	-0.0068	-0.0143	-1.3
0.0007	0.0022	-0.0038	-0.0158	-1.3
0.0022	-0.0008	-0.0015	-0.0143	-1.4
0.0015	-0.0023	-0.0015	-0.0098	-1.4
-0.0015	-0.0015	0	-0.0015	-1.4
-0.003	0	0.0015	0.0015	-1.5
-0.0008	0.0022	0.0015	0.0015	-1.5
-0.0008	0.0015	0.0015	0.003	-1.6
-0.0008	0.0015	0.003	0.0015	-1.6
-0.0008	0	0.0022	0.0015	-1.7
-0.003	0	0.003	0.0022	-1.8
-0.0023	0.0015	0.003	0.0015	-1.8
-0.0023	0.0007	0.0015	0.0007	-1.8
0	0.0015	0.003	-0.0008	-1.8
0.0015	0.003	0.0015	0	-1.8
-0.0008	0.0007	0.0007	0.0007	-1.8
-0.0008	0.0015	0	0.0022	-1.9
0	-0.0008	-0.0008	0.0045	-1.9
0.0007	-0.0008	-0.0015	0.003	-1.9
0.003	0.0007	-0.0008	0.0015	-2
0.0022	-0.0015	0.0022	0.003	-2
0.0007	-0.0015	0.003	0.0052	-2
0.0007	-0.0023	0.0015	0.0045	-2.1
0.0007	-0.0008	0.0015	0	-2.1
-0.0008	0	0.0015	0.0007	-2.1
0	0	0.0022	0.0007	-2.2
0.0007	-0.0008	0	-0.003	-2.2
0.0007	-0.0008	-0.0015	-0.0023	-2.2
0.0015	0.0015	-0.0015	-0.0015	-2.3
-0.0008	0.0007	-0.0008	-0.003	-2.3
-0.0015	-0.0008	0.0007	-0.0023	-2.3
-0.0008	0.0015	0.0007	-0.0008	-2.3
-0.0008	0.0007	0.0022	-0.0023	-2.3
0	0.0007	0.0007	-0.003	-2.3
0	-0.0023	0.0022	-0.0015	-2.3
-0.0008	-0.003	0.0037	-0.0008	-2.3
-0.0015	-0.0008	0.0022	-0.0008	-2.3
0	-0.0015	0.0045	-0.0015	-2.3
0.0022	0.0015	0.0052	-0.0023	-2.4
0.0007	0.0007	0.006	-0.0023	-2.4
0	0	0.0052	-0.0015	-2.4
0.0015	0.0015	0.003	-0.0008	-2.4
0.0022	0.0007	0.0015	-0.0008	-2.4
0.0015	0.0007	0.0007	-0.0015	-2.4
0.0007	0.0007	-0.003	-0.0023	-2.4
0	0.0015	-0.003	-0.0015	-2.4
-0.0008	0	-0.0008	-0.0038	-2.4
-0.0015	0.0007	-0.003	-0.006	-2.4
0	0.0015	-0.0015	-0.003	-2.5
0	0.0007	-0.0046	-0.0015	-2.5
0.0007	0.0015	-0.0068	-0.0015	-2.5
0.0015	0.0007	-0.0068	-0.0015	-2.5
0.0015	0.0007	-0.006	0.0007	-2.5
0	0.003	-0.0046	0.0015	-2.5
-0.0008	0.0022	-0.006	0.003	-2.5
0.0007	0.0015	-0.0075	0.0075	-2.4
0.0007	0.0015	-0.0075	0.0105	-2.4
0.0007	0.0015	-0.0068	0.0052	-2.4
0.0015	0.0015	-0.0068	0.0015	-2.4
0.0022	0.0007	-0.006	0.0045	-2.4
0.0007	0.0022	-0.003	0.0015	-2.3
-0.0008	0.0015	-0.0046	-0.0008	-2.3
0	-0.0015	-0.006	-0.0046	-2.3
0.0015	0.0007	-0.006	-0.0046	-2.3
0.0007	0	-0.0068	0	-2.3
-0.0008	0	-0.006	-0.0008	-2.3
-0.0015	-0.0008	-0.0053	-0.003	-2.3
-0.0008	-0.0008	-0.0038	-0.0046	-2.3
-0.0015	0.0007	-0.0046	-0.0023	-2.3
0	0.0007	-0.0046	-0.0015	-2.2
0	0.0015	-0.003	-0.003	-2.2
-0.0008	0.0007	-0.003	-0.0015	-2.2
-0.0008	0	-0.0023	0	-2.1
-0.0008	0.0015	0.0007	0	-2.1
0	-0.0008	0.0015	-0.0008	-2.1
-0.0015	-0.0008	0.0007	0.0007	-2
-0.0015	-0.0008	0.0007	-0.0008	-2
-0.003	0	0.0007	-0.0008	-1.9
-0.0015	0.0007	0.003	0.0007	-1.9
-0.0008	-0.0008	0.0045	0	-1.8
-0.0015	-0.0008	0.0045	-0.0008	-1.8
0.0007	-0.0008	0.006	0.0015	-1.8
-0.0008	0.0007	0.0067	0.0015	-1.8
-0.0008	0.0007	0.0082	0.0007	-1.7
0	-0.0008	0.0045	0	-1.7
0	0.0015	-0.0053	0	-1.6
-0.0015	0.0007	-0.0128	0.0015	-1.6
-0.0008	0.0007	-0.0075	0.0007	-1.6
-0.0008	0.0015	-0.003	0.0007	-1.5
-0.0008	0.0007	-0.0015	0.0022	-1.5
0.0007	0.003	0.009	0	-1.4
-0.0008	0.003	0.0225	-0.0008	-1.4
0	0.003	0.0255	0.0007	-1.3
-0.0008	0.0015	0.0262	0	-1.3
-0.0008	0.003	0.0262	0.0007	-1.2
0.0015	0.003	0.024	0.0007	-1.1
0.0015	0.0015	0.0232	0.0007	-1.1
0.003	0.0015	0.021	0.0007	-1
0.0022	-0.0008	0.0195	0.0007	-0.9
0.0015	-0.0015	0.0187	-0.0008	-0.9
0.0015	0	0.0165	-0.0008	-0.8
0.0015	-0.0008	0.0157	0.0007	-0.8
0.0007	0.0007	0.0157	-0.0008	-0.7
0.0015	0.0015	0.0165	0.0007	-0.6
0.0015	-0.0008	0.0157	0.0015	-0.5
-0.0008	-0.0015	0.0142	0	-0.5
0.0007	0.0015	0.015	0.0015	-0.5
0.0015	0.0007	0.0112	0.0015	-0.4
-0.0008	0.0015	-0.0068	-0.0008	-0.3
-0.0008	0.0015	-0.012	-0.0015	-0.2
0.0007	0.0007	0.0007	-0.0008	-0.2
-0.0008	0	0.0007	-0.0015	-0.1
-0.0015	0.0007	0.0052	-0.0023	0
-0.0023	0.0015	0.009	-0.0008	0
-0.0015	-0.0015	0.0075	-0.0008	0.1
0	-0.0008	0.0082	-0.0008	0.2
-0.0015	-0.0008	0.0045	-0.0008	0.3
-0.0015	-0.0015	0.0045	0	0.4
0	-0.0008	0.003	-0.0008	0.4
-0.0008	0	0.003	-0.0008	0.5
0.0007	0.0007	0.0007	0.0007	0.6
0.0007	-0.0008	0.0007	-0.0008	0.7
-0.0008	-0.0015	-0.0023	0	0.7
-0.0008	-0.0008	-0.0046	0	0.8
-0.0023	-0.0008	-0.0023	-0.0023	0.9
0	0	-0.0038	-0.0023	1
0.0007	-0.0008	-0.0053	-0.0015	1
0.0007	-0.0008	-0.0068	-0.0038	1.1
0.0007	-0.0008	-0.0083	-0.0023	1.2
-0.0008	-0.0008	-0.0098	-0.0008	1.3
-0.0008	0	-0.0091	-0.0008	1.3
-0.0015	0.0007	-0.0105	-0.0008	1.4
-0.0015	0.0007	-0.0098	-0.0015	1.5
-0.0008	-0.0008	-0.0091	-0.003	1.6
-0.0015	0.0007	-0.0091	-0.003	1.7
-0.0015	0.0022	-0.0098	-0.0008	1.8
0.0007	0.0015	-0.0135	-0.0008	1.9
0.0007	0.0015	-0.0128	0.0007	2
0	0.0015	-0.0143	0.0015	2.1
0.0007	0.0022	-0.0143	0.0007	2.2
0.0007	0.003	-0.015	0.0015	2.2
-0.0008	0.0015	-0.0143	0.003	2.3
0.0007	0.0007	-0.0143	0.0022	2.4
0.0015	-0.0008	-0.0165	0.0015	2.5
0.0007	0.0007	-0.0158	0.0007	2.6
0.0007	0.0007	-0.0195	0.0022	2.6
0.0022	0.0007	-0.0203	0.0022	2.7
0.0015	0	-0.021	0.0007	2.8
0.0007	-0.0008	-0.0203	0.0007	2.9
0	-0.0008	-0.0203	0.0007	3
-0.0015	-0.0008	-0.0218	0.0007	3.1
-0.0015	0.0007	-0.0195	0.0015	3.2
-0.0008	0.0007	-0.0203	0.003	3.3
-0.0015	0.0015	-0.0195	0.003	3.4
-0.0023	0	-0.0181	0.0045	3.5
-0.0008	0	-0.0188	0.0045	3.6
-0.0008	-0.0008	-0.0188	0.0037	3.7
0	-0.0008	-0.0181	0.0045	3.8
0	0.0007	-0.0181	0.003	3.9
-0.0008	0.0007	-0.0173	0.0037	4
-0.0015	0.0015	-0.0165	0.0037	4.1
-0.0015	0.0022	-0.0158	0.0015	4.2
-0.0008	0.0015	-0.0143	0.003	4.3
0.0007	0.0007	-0.0128	0.0045	4.4
0	0.0015	-0.0128	0.003	4.5
-0.0008	0.0015	-0.0105	0.0015	4.5
-0.0008	0.0007	-0.0091	0.003	4.6
-0.0008	0.0022	-0.0075	0.0045	4.8
0	0.0022	-0.0046	0.0022	4.9
-0.0008	0.0022	-0.0053	0.0015	4.9
-0.0008	0.003	-0.0038	0.0007	5
-0.0008	0.003	-0.003	0.0037	5.1
0	0.0007	-0.003	0.003	5.2
-0.0008	-0.0015	-0.0023	-0.0015	5.3
-0.0015	-0.0008	-0.0023	-0.003	5.4
-0.0015	-0.0015	-0.0038	-0.0015	5.5
-0.0015	-0.003	-0.0046	-0.0023	5.6
-0.0015	-0.003	-0.0046	-0.0015	5.8
-0.0008	-0.003	-0.0015	-0.0015	5.8
-0.0008	-0.003	-0.0008	-0.0015	5.9
-0.0008	-0.003	0.0007	-0.0015	6.1
0.0007	-0.0008	0.0037	-0.0023	6.2
0.0007	0.0015	0.0045	-0.0015	6.3
0.0015	0.0007	0.006	-0.0008	6.3
0.0022	-0.0008	0.0105	-0.003	6.5
0.0022	0.0015	0.0135	-0.003	6.6
0.0052	0.0015	0.015	-0.0015	6.7
0.0067	0.0037	0.0187	-0.0008	6.7
0.0067	0.0067	0.0225	0	6.9
0.0082	0.006	0.0202	0.0015	7
0.0067	0.0075	0.0172	0.0007	7.1
0.0045	0.0045	0.0142	0	7.2
0.0045	0.0022	0.009	0.0007	7.3
0.0015	0.0022	0.0075	0	7.5
0	0.0015	0.0052	-0.0023	7.6
-0.0008	0.0007	0.0045	-0.003	7.7
-0.0015	-0.0008	0.003	-0.003	7.8
-0.003	-0.0008	-0.0008	-0.003	8
-0.0046	0.0007	0.0015	-0.003	8.1
-0.003	0.0022	0.0037	-0.003	8.2
-0.0038	0.0007	0	-0.0023	8.4
-0.003	-0.0008	0	-0.003	8.5
-0.0008	0.0007	-0.0008	-0.0046	8.6
-0.0015	-0.0008	-0.0015	-0.0046	8.8
-0.0015	-0.0015	-0.0008	-0.0023	8.9
-0.0023	-0.0015	-0.0008	-0.0015	9
-0.0015	-0.0015	0.0007	-0.0015	9.1
-0.0008	-0.0015	-0.0008	-0.0023	9.3
0	-0.0008	-0.0015	-0.0023	9.4
-0.0008	-0.0008	-0.0015	0.0015	9.5
-0.0008	-0.0023	-0.0008	0.003	9.7
0	-0.0008	0.0007	0.0045	9.8
0.0015	0	-0.0008	0.0045	10
0.0007	-0.0015	0.0007	0.0022	10.2
0.0007	-0.0015	0.0015	0.0037	10.3
0.0007	-0.0008	0.0015	0.0037	10.5
0.0007	-0.0008	0.0007	0.003	10.6
-0.0008	0.0007	0	0.0015	10.7
0	0.0015	0.0015	0.0015	10.9
0.0007	0.0007	0.0015	0.0052	11.1
0	0.0007	0.0007	0.0045	11.2
0.0015	-0.0008	0	0.0045	11.4
0.003	-0.0023	0.0007	0.0045	11.6
0.0015	-0.0015	0.0037	0.006	11.7
0.0007	-0.0008	0.0052	0.0097	11.9
0.003	0.0015	0.0082	0.0112	12.1
0.0052	0.0015	0.0112	0.0112	12.2
0.0052	0.003	0.0142	0.0105	12.3
0.0052	0.003	0.0112	0.0105	12.5
0.0037	0.0045	0.0067	0.0097	12.7
0.0015	0.003	0.003	0.012	12.8
0.0015	0.003	0.0015	0.0127	13
0.003	0.0045	0.0015	0.012	13.3
0.003	0.003	0.006	0.0127	13.5
0.003	0.0015	0.0165	0.0157	13.7
0.0067	0.0015	0.0165	0.0195	13.9
0.006	0.0015	0.0007	0.0172	14.2
0.003	0.0007	-0.0083	0.0142	14.4
0	0.0015	-0.0158	0.0105	14.6
-0.0023	0.0022	-0.0188	0.0097	14.8
-0.0038	0.0015	-0.0181	0.0082	15.1
-0.0046	0.0015	-0.0203	0.003	15.3
-0.0046	0.0007	-0.0195	0.0007	15.6
-0.0038	-0.0015	-0.0195	-0.003	15.8
-0.0053	-0.003	-0.0158	-0.0053	16
-0.0053	-0.0023	-0.012	-0.0068	16.2
-0.003	-0.0015	-0.0068	-0.0068	16.5
-0.0023	-0.0008	-0.0008	-0.0068	16.7
-0.0015	-0.0008	0.0037	-0.0083	16.9
-0.0008	0	0.0045	-0.0113	17.1
-0.0015	0	0.0052	-0.012	17.4
-0.0008	0	0.0067	-0.0113	17.7
-0.0008	0.0007	0.006	-0.0128	18
0	0.0015	0.009	-0.0128	18.3
0.0007	0.0022	0.0097	-0.0135	18.6
0.0007	0.0022	0.0105	-0.0158	18.9
0.0007	0.003	0.0082	-0.0158	19.2
0.0007	0.003	0.0067	-0.0158	19.5
-0.0008	0.0015	0.009	-0.015	19.8
-0.0008	0.0007	0.006	-0.0143	20.1
-0.0008	-0.0008	0.0067	-0.0143	20.4
-0.0015	-0.0008	0.0052	-0.015	20.7
-0.0023	-0.0008	0.003	-0.0128	21
-0.003	-0.0008	0.0052	-0.0113	21.3
-0.0023	0.0007	0.003	-0.012	21.6
-0.0023	0.0015	0.003	-0.0113	21.9
-0.0008	0.0015	0.003	-0.0105	22.2
-0.0008	0.0007	0.003	-0.0128	22.5
-0.0008	0.0007	0.0022	-0.0128	22.8
0.0007	0	0.003	-0.012	23.1
-0.0008	-0.0008	0.003	-0.0181	23.4
-0.0008	-0.0008	0.0015	-0.0346	23.7
-0.0008	-0.0008	0.0045	-0.0383	24.1
-0.0008	0.003	0.0067	-0.0165	24.4
0	0.003	0.0052	-0.0046	24.7
-0.0008	0.0015	0.003	-0.0008	25.1
0.0007	0.0022	0.003	-0.003	25.4
0.0007	-0.0008	0.0052	-0.003	25.7
0.0007	-0.0008	0.009	0.0052	26.1
0.0007	-0.0015	0.0142	0	26.5
0.003	-0.003	0.0172	0.0015	26.8
0.0052	-0.003	0.0202	0.003	27.1
0.0037	-0.003	0.0202	0	27.4
0.003	-0.0015	0.0165	0.0022	27.8
0.0022	-0.0015	0.0127	0.0015	28.1
0.0015	-0.0015	0.0075	0.0037	28.5
0.0007	-0.0015	0.006	0.003	28.8
0	-0.003	0.0067	0.0045	29.1
0.0007	-0.0015	0.0052	0.0052	29.5
0.0007	0.0007	0.006	0.0052	29.8
0.0015	0.0015	0.0112	0.009	30.1
0.0015	0.0015	0.012	0.009	30.4
0.0015	0.003	0.0082	0.009	30.7
0.0037	0.003	0.006	0.009	31
0.0022	0.003	0.0015	0.0097	31.3
0.0015	0.0045	-0.0015	0.009	31.5
0.0022	0.0037	0.003	0.0067	31.8
0.0022	0.0052	0.0097	0.0052	32.1
0.003	0.006	0.012	0.0037	32.4
0.003	0.003	0.0067	0.0022	32.7
0.0022	0.0015	0.0037	-0.0023	32.9
0.0022	0.0007	0.003	-0.0038	33.2
0.0022	0.0015	0.0097	-0.0023	33.5
0.0015	0.0015	0.0142	-0.0053	33.8
0.003	0.0015	0.0135	-0.0083	34.1
0.0045	0.0015	0.018	-0.0068	34.3
0.0037	-0.0008	0.0195	-0.0083	34.6
0.0045	-0.0008	0.0202	-0.0098	34.9
0.0052	-0.0015	0.021	-0.0083	35.2
0.0067	-0.003	0.0202	-0.0105	35.5
0.006	-0.003	0.024	-0.0105	35.7
0.0067	-0.006	0.0202	-0.0083	36
0.006	-0.0046	0.0135	-0.0091	36.2
0.006	-0.003	0.0105	-0.0083	36.4
0.0045	-0.0015	0.006	-0.0068	36.6
0.0037	0	0.0037	-0.006	36.9
0.0015	0	-0.0008	-0.006	37.1
-0.0008	0.0015	-0.0091	-0.003	37.3
-0.0015	0.0022	-0.0105	-0.0023	37.5
-0.0023	0.0015	-0.0098	-0.0023	37.8
-0.003	0.0007	-0.0091	-0.0015	38
-0.0015	-0.0015	-0.0091	-0.0008	38.2
-0.0015	-0.0015	-0.012	0.0007	38.4
-0.003	-0.0008	-0.0105	0.0007	38.6
-0.0015	-0.0015	-0.012	0.003	38.9
-0.003	-0.003	-0.0158	0.0052	39.1
-0.0046	-0.0023	-0.0165	0.0082	39.3
-0.003	0.0015	-0.0158	0.0105	39.6
-0.003	0.003	-0.0165	0.0112	39.8
-0.003	0.0022	-0.0135	0.0135	40
-0.0015	0.003	-0.0068	0.0157	40.2
-0.0015	0.003	-0.0075	0.0187	40.5
-0.0008	0.0022	-0.0068	0.0187	40.7
-0.0008	0.0015	-0.0023	0.0187	40.9
-0.0008	-0.0008	-0.0015	0.0202	41.2
0.0007	-0.0015	-0.0015	0.0195	41.4
-0.0008	0.0007	-0.0046	0.0172	41.7
-0.0015	0.0007	-0.0091	0.018	41.9
-0.0038	0	-0.0143	0.0165	42.2
-0.0046	0	-0.0143	0.0157	42.4
-0.0046	0.0015	-0.0128	0.0157	42.7
-0.006	0.0015	-0.015	0.0127	42.9
-0.0068	0	-0.0203	0.0105	43.1
-0.0053	0.0015	-0.0195	0.009	43.4
-0.0046	0.003	-0.0181	0.0067	43.6
-0.0053	0.0015	-0.0195	0.0052	43.9
-0.0053	0.0022	-0.0181	0.0052	44.1
-0.0053	0.0022	-0.015	0.0045	44.4
-0.0046	0.0015	-0.0143	0.0045	44.6
-0.0046	0.0022	-0.015	0.0015	44.9
-0.003	0.0015	-0.0105	-0.003	45.1
-0.003	0.003	-0.0091	-0.0046	45.4
-0.003	0.0037	-0.0075	-0.0046	45.6
-0.0015	0.0015	-0.0075	-0.0068	45.9
-0.0038	0.0022	-0.0091	-0.0075	46.2
-0.0015	0.0015	-0.0083	-0.0075	46.4
-0.0015	0.003	-0.0091	-0.0068	46.7
-0.0008	0.0045	-0.0068	-0.0053	46.9
0.0015	0.0045	-0.0053	-0.0053	47.2
-0.0008	0.0052	-0.0015	-0.0046	47.5
0.0007	0.0052	0.003	-0.003	47.7
0.003	0.0052	0.0082	-0.0038	48
0.0037	0.003	0.0105	-0.0053	48.2
0.0037	0.0015	0.0052	-0.006	48.5
0.0015	0.0007	0.0045	-0.0053	48.8
0.0022	0.0007	0.0052	-0.0053	49
0.0045	0.0007	0.0067	-0.0068	49.3
0.0015	0.0007	0.0075	-0.0068	49.5
0.0007	-0.0008	0.0082	-0.0053	49.8
0	-0.0015	0.0067	-0.0046	50
0.003	-0.0023	0.009	-0.0046	50.3
0.0052	-0.003	0.0105	-0.0046	50.5
0.003	-0.0015	0.009	-0.0038	50.7
0.0045	0.0015	0.012	-0.0015	50.9
0.003	0.0082	0.0112	-0.0015	51.1
0.0015	0.012	0.012	-0.0008	51.3
0.0007	0.009	0.0097	-0.0008	51.6
-0.0015	0.0015	0.0105	-0.0008	51.7
-0.0023	-0.003	0.0105	0.0007	52
-0.003	-0.0068	0.009	0	52.2
-0.0015	-0.0083	0.0067	0	52.4
-0.003	-0.0098	0.0045	-0.0015	52.6
-0.0015	-0.0113	0.0045	-0.0015	52.8
0.0007	-0.0105	0.0045	-0.0015	53
0.0022	-0.0068	0.0067	-0.003	53.2
0.0045	-0.003	0.0052	-0.0008	53.4
0.0045	-0.003	0.0052	-0.0015	53.6
0.003	0	0.0052	-0.0015	53.8
0.0015	0.0045	0.0067	0.0007	54
0.003	0.0082	0.009	0.0015	54.2
0.0022	0.009	0.009	0.0037	54.4
0.0015	0.009	0.0097	0.003	54.5
0.003	0.012	0.0075	0.0007	54.7
0.0045	0.0097	0.006	0.0007	54.8
0.0037	0	0.0015	0.0007	54.9
0.0037	-0.0068	0.0015	0.0022	55
0.0015	-0.0091	0.0045	0.0022	55.1
-0.0008	-0.0113	0.0052	0.0015	55.2
0.0022	-0.0128	0.0037	0.0022	55.3
0.003	-0.0113	0.003	0.0007	55.4
0.003	-0.0075	0.003	0.0007	55.5
0.0015	-0.0075	0.0007	0.0015	55.6
0.0007	-0.0068	0.0007	0.0015	55.7
0.0007	-0.0046	-0.0008	0.0007	55.8
0	-0.0008	0.003	0	55.9
-0.0015	0.0037	0.003	0.0015	56
0.0007	0.0052	-0.0008	0.0007	56.1
0	0.0082	-0.0015	0.0007	56.2
-0.0008	0.0052	-0.003	0	56.3
-0.0008	0.0015	-0.0053	0.0007	56.4
-0.0023	0.0007	-0.003	0.003	56.5
-0.0008	0	-0.0015	0	56.6
-0.0015	0	-0.0038	-0.0008	56.6
-0.0023	-0.0008	-0.003	-0.0008	56.6
-0.0015	0.0007	-0.0038	0.0007	56.7
-0.0008	0.0015	-0.0023	0.0022	56.7
-0.0008	0.003	-0.0008	0.0022	56.7
0.0007	0.0045	0.0007	0.0022	56.7
0.0015	0.0037	0	0.0007	56.8
0.0015	0.0045	0	0.0007	56.8
0.0007	0.0037	0.0007	0.0007	56.8
0.0007	0.0037	-0.0008	0.0007	56.9
-0.0008	0.0022	-0.0015	0.0007	56.9
0	0.0052	-0.0015	0	56.9
0.003	0.0127	-0.0008	0.0015	57
0.003	0.0165	0.0007	0.0015	57
0.0022	0.0127	-0.0008	0.0015	57
0.0015	0.0045	-0.0008	0.0007	57.1
0.0007	0.0015	0.0007	0.0007	57.1
0.0015	-0.003	-0.0008	0.0007	57.1
0.0007	-0.0083	-0.0023	-0.0008	57.1
0	-0.0083	-0.0023	0.0007	57.1
0	-0.0075	-0.003	0	57.1
0	-0.0083	-0.0023	0	57.1
-0.0008	-0.0075	-0.0008	0.0007	57.1
-0.003	-0.0068	0.0007	0.0007	57.1
-0.0023	-0.0068	0.0015	0.0007	57.1
-0.0008	-0.0068	0	-0.0015	57.1
-0.0015	-0.0068	-0.0015	-0.003	57.1
-0.0008	-0.0053	-0.0015	-0.0053	57.1
-0.0015	-0.0046	-0.0015	-0.006	57
-0.0008	-0.0023	-0.0015	-0.003	57
0	-0.0023	-0.0015	-0.0015	57
0	-0.0015	0	-0.003	57
0	0	-0.0008	-0.0023	57
0.0015	0.0015	0.0007	-0.0015	57
0.0015	0.003	0.0007	-0.0015	56.9
0.003	0.003	0.0022	-0.003	56.9
0.0007	0.003	0.0007	-0.0046	56.9
0	0.0037	-0.0015	-0.0046	56.9
0.0007	0.0052	-0.0023	-0.003	56.8
-0.0008	0.0052	-0.0046	0	56.8
-0.0008	0.0045	-0.0023	0.0007	56.7
0	0.003	-0.0046	-0.0008	56.7
-0.0008	0.0045	-0.0046	-0.0008	56.7
-0.0008	0.0052	-0.0038	-0.0008	56.6
0.0007	0.003	-0.0038	-0.0015	56.5
-0.0015	0.0022	-0.0038	-0.0015	56.5
-0.0015	0.003	-0.0046	-0.0015	56.4
0.0007	0.003	-0.0023	-0.0008	56.3
0	0.003	0.0007	0.0015	56.2
-0.0008	0.003	0.0022	0.0022	56.2
-0.0015	0.003	0.0015	0.003	56.2
-0.0023	0.003	0.0015	0.003	56.1
-0.0015	0.0015	0.0007	0.0015	56
-0.0015	0.0007	0	0.0007	56
-0.0008	0.0007	-0.0008	0.0015	55.9
0	-0.0015	-0.0008	-0.0008	55.8
0.0007	-0.0008	-0.0023	-0.0008	55.8
0.0007	0.0007	-0.0015	-0.0008	55.7
0	-0.0008	0.0007	-0.0015	55.6
0.0007	-0.0008	0.0007	0.0007	55.6
0.003	-0.0008	-0.0008	0.0007	55.4
0.0022	-0.0008	-0.003	0.0007	55.3
0.0022	-0.0008	-0.0015	0.0007	55.2
-0.0008	0.0007	-0.0023	0	55.1
-0.0015	0	-0.0023	0.0007	55
0	0.0015	-0.0023	0.0015	54.9
-0.0008	0.0007	-0.0015	0.003	54.8
0.0015	0.0007	-0.0015	0.0022	54.6
0.0015	0.0015	-0.0015	0.0007	54.5
0.0007	0.0015	-0.003	0	54.4
0	0.0022	-0.003	0.0007	54.3
0	0.0007	-0.0015	0.0037	54.2
0	0.0007	-0.0015	0.0045	54.1
0.0015	0.0007	0	0.0045	54
0.0015	0	-0.0008	0.0052	53.9
0.003	-0.0008	-0.0008	0.003	53.8
0.0022	0	0.0007	0.0015	53.6
0.0015	-0.0008	0.003	0.0022	53.5
0.003	-0.0008	0.0052	0.0007	53.4
0.0037	0.0007	0.0112	-0.0008	53.2
0.0052	0.0007	0.0142	0.0007	53.1
0.0045	0.0007	0.0082	0.0015	52.9
0.0022	-0.0008	-0.0008	-0.0008	52.6
0.0022	-0.0008	-0.0098	-0.0008	52.5
0	0	-0.0165	-0.0015	52.3
-0.0015	0.0015	-0.0165	-0.003	52.1
-0.0015	0.0022	-0.015	-0.003	51.9
-0.0015	0.003	-0.0128	-0.003	51.7
-0.0015	0.0037	-0.0105	-0.003	51.5
-0.0023	0.0045	-0.0105	-0.003	51.3
-0.0015	0.0037	-0.0053	-0.003	51.2
0	0.003	-0.0038	-0.0023	51
0	0.0022	-0.0038	-0.0023	50.8
0.0007	-0.0008	-0.0008	-0.0023	50.6
0.0007	-0.0015	0.0015	-0.003	50.4
0.0007	-0.0008	0.003	-0.003	50.2
0.0007	-0.0008	0.0015	-0.0015	50
-0.0008	-0.0008	0.0015	-0.0008	49.9
-0.0008	-0.0008	0.003	-0.0015	49.6
0.0007	-0.0008	0.003	0.0007	49.4
-0.0008	-0.0015	0.0045	0.0007	49.2
-0.0008	-0.0015	0.006	-0.0015	48.9
0.0007	-0.0015	0.006	0.0007	48.6
0.0015	0.0007	0.006	0.0022	48.4
0.0007	0.0007	0.0067	-0.0008	48.1
0.0007	0	0.006	-0.0038	47.9
-0.0008	0.0007	0.0045	-0.0091	47.6
0	0	0.0015	-0.0143	47.4
0.0007	-0.0008	0.0015	-0.0195	47.1
0	0.0007	0.003	-0.0143	46.8
0.0007	0.0007	0.0037	0.0045	46.6
0.0007	0.0007	0.003	0.0255	46.3
0.0007	0.003	0.0022	0.0307	46.1
0.0007	0.003	0.0007	0.015	45.8
-0.0008	0.0007	-0.0008	0.003	45.6
0	0.0007	-0.0008	0.0007	45.3
0.0007	0.0007	-0.0008	-0.0046	45
-0.0008	0.0015	0.0007	-0.003	44.8
-0.0008	0.0007	0.0015	-0.0015	44.5
-0.0008	0	0.0022	-0.0015	44.2
-0.0008	0.0007	0.0037	-0.0015	43.9
0	0.0015	0.0045	-0.0023	43.6
0.0007	0	0.006	-0.003	43.3
0	0	0.006	-0.003	43
0	0.0007	0.006	-0.0015	42.7
-0.0008	-0.0015	0.0015	-0.0038	42.4
0	-0.0015	0.0007	-0.003	42.1
0.0015	-0.0015	0.0015	0.0007	41.8
0.0015	-0.0015	0.003	-0.0008	41.4
0.0015	-0.0023	0.0037	-0.0083	41.2
0.0007	-0.0038	0	-0.012	40.9
0.0007	-0.0038	0.0007	-0.0068	40.5
-0.0008	-0.0046	0.0007	-0.0015	40.2
-0.0008	-0.0053	-0.0008	0.0015	39.9
0.0007	-0.0038	0.0015	0.0045	39.6
0	-0.003	0.0007	0.0097	39.3
0.0007	-0.0008	0.0007	0.0195	39
0.0007	0.0082	0.0015	0.0157	38.7
0	0.0202	0.0015	0.0052	38.3
-0.0008	0.0187	0.0045	0.003	38
0.0007	0.0045	0.0015	0	37.7
0.0015	0.006	0	0.0007	37.3
0.0007	0.0067	0.0022	0.0022	37
0.0007	0.0007	0.0037	0.0015	36.6
0.0015	-0.0015	0.003	-0.0015	36.3
0.0015	-0.0053	0.003	-0.0015	35.9
0.0022	-0.0068	0.003	-0.003	35.6
0.0015	-0.0091	0.0015	-0.0105	35.2
0.0007	-0.0075	0.0007	-0.0165	34.9
0.0015	-0.0046	0	-0.0181	34.5
0.0022	-0.003	0.0015	-0.0083	34.1
0.0015	-0.0008	0.0007	-0.0008	33.8
0.0015	0.0015	0.0007	0.0045	33.5
0.0022	0.003	0.0015	0.0277	33.1
0.0022	0.0052	0.0007	0.0517	32.8
0.0015	0.0112	0.0015	0.0495	32.4
0.0007	0.0165	0.0022	0.0187	32.1
0.0007	0.0097	0.0015	0.0007	31.7
-0.0008	-0.0015	0.0007	-0.0046	31.3
-0.0008	-0.003	-0.0008	-0.0113	31
0.0007	-0.0023	-0.003	-0.0113	30.6
0	-0.003	-0.0023	-0.0181	30.3
0.0007	-0.003	-0.0038	-0.0256	30
-0.0015	-0.0046	-0.0053	-0.021	29.6
-0.0015	-0.0015	-0.0075	-0.0113	29.2
-0.0008	-0.0008	-0.0083	-0.0008	28.9
-0.0008	0.0015	-0.0083	0.0112	28.6
0	0.003	-0.0068	0.0277	28.2
-0.0008	0.0015	-0.006	0.0202	27.9
0	-0.0008	-0.0046	-0.0053	27.5
-0.0008	-0.0008	-0.0015	-0.0165	27.1
0	-0.0008	-0.003	-0.0188	26.8
-0.0008	-0.0015	-0.0023	-0.0113	26.5
0.0007	0.0007	-0.0046	0.006	26.1
-0.0008	0.0015	-0.006	0.015	25.7
-0.0015	0.0015	-0.0015	0.0195	25.4
0.0007	0.0015	0.0007	0.0112	25.1
0.0015	-0.0008	0.0022	-0.0053	24.7
0.0007	-0.003	0.0015	0.0015	24.3
-0.0008	-0.003	-0.0008	0.0142	24
0	-0.0015	0.0007	0.0135	23.7
0.0007	-0.0008	-0.0008	0.003	23.3
0	0	-0.0023	-0.0083	23
0.0007	-0.0008	-0.0008	-0.0203	22.6
0	-0.0008	-0.003	-0.039	22.3
0.0015	-0.0023	-0.0008	-0.0623	22
0.003	-0.003	0.0015	-0.075	21.6
0.0015	-0.0008	0.0045	-0.0383	21.3
0.003	-0.0008	0.0052	0.0255	20.9
0.003	-0.003	0.0022	0.0525	20.6
0.0015	-0.0038	0.003	0.0412	20.2
0.0015	-0.0008	0.0015	0.0562	19.9
0.003	0.0022	0.0015	0.072	19.6
0.0022	0.006	0.0067	0.033	19.3
0.0015	0.0082	0.0052	-0.0083	18.9
-0.0015	0.003	0.0045	-0.027	18.6
-0.0068	0.0007	0	-0.024	18.2
-0.0105	0.0015	-0.0068	-0.0278	17.9
-0.0135	0.0007	-0.0075	-0.0405	17.5
-0.0158	0	-0.0068	-0.0188	17.2
-0.0105	0.0015	-0.0091	0.0082	16.9
-0.0023	0.0015	-0.012	0.0067	16.5
0.003	0.0015	-0.0091	-0.0083	16.2
0.003	0.0142	-0.0046	0.0112	15.8
0.003	0.0142	-0.0008	0.0255	15.5
0.0045	0.0007	0.006	-0.0038	15.1
0.0037	-0.0038	0.0127	0.0082	14.8
0.0045	-0.003	0.0067	0.0427	14.4
0.0067	-0.003	0.0037	0.0495	14.1
0.0082	-0.0046	0.0075	0.039	13.8
0.009	-0.0053	0.0052	0.018	13.4
0.0135	-0.0046	0.0015	0.0127	13.1
0.0217	-0.0038	-0.0038	0.003	12.7
0.0255	-0.0053	-0.0046	-0.0465	12.4
0.0255	-0.0083	-0.0098	-0.0998	12.1
0.0217	-0.0046	-0.0188	-0.1185	11.7
0.009	0.003	-0.0225	-0.1028	11.3
-0.0068	0.0127	-0.021	-0.054	11
-0.0195	0.0292	-0.0091	0.03	10.6
-0.0375	0.0375	0.012	0.123	10.3
-0.0548	0.048	0.0292	0.1762	10
-0.0413	0.0427	0.0322	0.1102	9.7
-0.0128	0.0015	0.033	0.0015	9.4
-0.0023	-0.0346	0.0292	-0.0248	9.1
0.012	-0.0615	0.024	-0.0323	8.8
0.0255	-0.0683	0.027	-0.024	8.5
0.0217	-0.0518	0.006	-0.0128	8.1
0.0097	-0.0346	-0.0203	-0.0181	7.8
0.0007	-0.0105	-0.0285	-0.0113	7.5
-0.0068	0.0052	-0.0398	-0.024	7.2
-0.0158	0.0142	-0.0368	-0.033	6.9
-0.0218	0.0142	-0.0375	-0.0368	6.6
-0.0225	0.009	-0.0428	-0.0495	6.3
-0.012	0.0142	-0.0308	-0.0645	6
0.015	0.0157	0.0045	-0.075	5.7
0.0472	0.0157	0.0127	-0.0721	5.3
0.063	0.0127	-0.0165	-0.0638	5
0.0645	0.0135	-0.024	-0.0368	4.7
0.0442	0.0127	-0.0285	0.0165	4.4
-0.0068	0.0052	-0.03	0.0652	4.3
-0.054	-0.0046	-0.0195	0.0675	4.1
-0.0728	-0.012	-0.0053	0.0517	4
-0.0728	-0.0195	0.0075	0.0457	3.8
-0.0578	-0.0233	0.0262	0.0142	3.6
-0.0323	-0.0225	0.0765	-0.0128	3.5
-0.0098	-0.0203	0.0915	-0.0218	3.3
0.0112	-0.0165	0.0562	-0.0143	3.1
0.0142	-0.0098	0.0217	0.0015	3
0.0045	0.0015	-0.0278	0.0007	2.8
0.0015	0.0135	-0.0653	0.0075	2.7
-0.0015	0.0277	-0.078	0.0232	2.6
-0.0083	0.0382	-0.0691	0.024	2.4
-0.0083	0.0217	-0.024	0.024	2.2
-0.0046	0.0225	0.0075	0.03	2.1
0.0045	0.0382	0.0247	0.0262	1.9
0.0157	0.0247	0.0405	0.0067	1.8
0.0262	0.018	0.0547	-0.0135	1.6
0.0397	0.009	0.0727	-0.0233	1.4
0.0547	0.0037	0.066	-0.0158	1.3
0.0682	0.018	0.0525	-0.0083	1.2
0.0795	0.0322	0.0405	0.003	1.1
0.0772	0.0187	0.0292	0.012	1
0.0622	-0.0046	0.0382	0.0105	0.9
0.0382	0.0007	0.0547	0.0015	0.8
0.0015	-0.0038	0.0727	-0.0218	0.7
-0.039	0.0015	0.0817	-0.0256	0.6
-0.0706	0.0112	0.0712	-0.0188	0.5
-0.0758	-0.0038	0.0525	-0.0181	0.4
-0.0525	-0.0233	0.0345	-0.012	0.3
-0.0346	-0.0428	0.0157	0.0015	0.2
-0.039	-0.033	0.0075	0.009	0.1
-0.0405	-0.0315	0.0172	0.0007	0
-0.0315	-0.048	0.0217	0.009	-0.1
-0.0068	-0.0405	0.0232	0.0292	-0.2
0.0217	-0.0195	0.018	0.0315	-0.3
0.0322	-0.0053	0.012	0.0105	-0.4
0.0247	-0.0233	0.0082	-0.0015	-0.5
-0.0068	-0.0285	0.0045	0.0097	-0.6
-0.0346	0.009	0.0067	0.027	-0.8
-0.0353	0.0495	0.0007	0.0442	-0.9
-0.0203	0.0675	-0.0113	0.0465	-1
0.003	0.0562	-0.0173	0.0442	-1.1
0.039	0.027	-0.024	0.0277	-1.3
0.057	0.003	-0.0278	0.0142	-1.4
0.0427	0.003	-0.0308	0.0157	-1.5
0.03	-0.0023	-0.0338	0.0067	-1.6
-0.0165	0.003	-0.0338	0.0045	-1.8
-0.0788	0.0082	-0.0353	-0.0053	-1.9
-0.1185	0.0052	-0.0368	-0.027	-2
-0.1065	0.003	-0.0436	-0.0495	-2.2
-0.0278	-0.0158	-0.0503	-0.0675	-2.3
0.0367	-0.0256	-0.048	-0.0818	-2.4
0.0555	-0.0346	-0.0436	-0.0893	-2.6
0.0502	-0.03	-0.0315	-0.0593	-2.7
0.0375	-0.0278	-0.0218	-0.0083	-2.8
0.0142	-0.0278	-0.0256	0.042	-2.9
-0.0068	-0.0256	-0.0293	0.081	-3.1
-0.003	-0.0278	-0.0338	0.0915	-3.2
0.0127	-0.021	-0.0353	0.0862	-3.4
0.0187	-0.0091	-0.0368	0.0787	-3.4
0.0127	0.0165	-0.0368	0.0592	-3.4
0.0082	0.0337	-0.0263	0.0352	-3.4
0.0097	0.0532	-0.0038	0.0232	-3.4
0.0157	0.0765	-0.0023	0.0052	-3.4
0.0142	0.0862	-0.0143	-0.0158	-3.4
0.0082	0.0622	-0.021	-0.033	-3.4
0.009	0.0157	-0.033	-0.048	-3.4
0.0127	-0.0008	-0.033	-0.0353	-3.4
0.0142	-0.0075	-0.0308	-0.0158	-3.4
0.0157	-0.0068	-0.0233	-0.0075	-3.4
0.0225	-0.003	-0.015	-0.0091	-3.4
0.0277	0.009	-0.0075	-0.0113	-3.4
0.0322	0.018	-0.0008	-0.0181	-3.4
0.0217	-0.0046	0.0097	-0.0346	-3.4
0.0067	-0.0278	0.018	-0.0533	-3.4
-0.0158	-0.0436	-0.021	-0.0638	-3.4
-0.0436	-0.0398	-0.0525	-0.0511	-3.4
-0.045	-0.0256	-0.042	-0.0293	-3.4
-0.0338	-0.0225	-0.0405	0.0007	-3.4
-0.0128	-0.0495	-0.0346	0.027	-3.3
0.0187	-0.0503	-0.012	0.048	-3.2
0.0465	-0.0083	0	0.0607	-3.1
0.066	0.0082	0.0037	0.0525	-2.9
0.0585	0.0382	0.0105	0.0427	-2.8
0.0217	0.0712	0.0045	0.0292	-2.7
-0.0323	0.057	-0.0173	0.012	-2.6
-0.0863	0.0195	-0.0256	-0.0098	-2.5
-0.1006	-0.0008	-0.012	-0.015	-2.4
-0.084	-0.0143	0.0097	-0.0038	-2.3
-0.0495	-0.0113	0.0315	-0.0046	-2.2
-0.0143	0.0015	0.066	-0.0091	-2.1
-0.0053	0.006	0.087	-0.0143	-2
0.0195	0.0105	0.0667	-0.0128	-1.8
0.054	0.0007	0.0457	-0.0128	-1.8
0.0667	-0.0068	0.027	-0.0128	-1.7
0.0607	-0.0218	0.0142	-0.0105	-1.5
0.0345	-0.03	0.0067	-0.012	-1.4
-0.0105	-0.0128	0.0082	-0.0075	-1.3
-0.0511	-0.0015	0.0255	-0.0068	-1.2
-0.0525	-0.006	0.0307	-0.0083	-1
-0.0173	-0.0053	0.012	-0.0091	-0.8
0.0105	0.0015	-0.0113	-0.0083	-0.5
0.036	-0.0015	-0.0315	-0.0046	-0.3
0.0577	-0.0091	-0.042	-0.0023	0
0.033	-0.003	-0.0405	-0.0083	0.2
0.0097	0	-0.0278	-0.0158	0.4
-0.0008	-0.0181	-0.0181	-0.0113	0.7
-0.0555	-0.0338	-0.0256	-0.0083	0.9
-0.0848	-0.0218	-0.033	-0.0195	1.2
-0.0533	-0.0046	-0.033	-0.027	1.4
-0.0263	0	-0.0308	-0.0203	1.6
-0.0135	-0.0083	-0.0218	-0.0053	1.8
0.0045	-0.0083	-0.0053	0.0082	2.1
0.009	0.0105	0.0142	0.0232	2.3
0.0067	0.0217	0.0217	0.054	2.6
0.0165	0.0315	0.0315	0.078	2.8
0.033	0.0307	0.0352	0.0435	3.1
0.0315	0.015	0.0442	-0.0046	3.3
0.0217	0.0082	0.0495	0.0007	3.5
0.009	0.0127	0.0367	0.006	3.5
-0.0203	0.0195	0.0225	0.0037	3.5
-0.0555	0.0135	0.003	0.0007	3.5
-0.0683	0.0082	-0.0105	-0.0068	3.5
-0.0315	-0.0008	-0.0083	-0.0046	3.5
0.048	0.0015	0.0142	-0.0098	3.5
0.093	0.0217	0.057	-0.0091	3.5
0.1012	0.0202	0.0232	-0.0068	3.5
0.1342	0.0037	-0.0915	-0.0038	3.5
0.1635	-0.0165	-0.0885	0.009	3.6
0.1882	-0.033	-0.0563	0.0157	3.6
0.1522	-0.0135	-0.0615	0.009	3.6
0.0112	-0.0105	-0.027	-0.0128	3.6
-0.1365	-0.0218	-0.0256	-0.027	3.6
-0.2618	0.0112	-0.0128	-0.021	3.6
-0.3068	0.0217	0.0165	-0.0105	3.6
-0.2363	0.0045	0.0262	-0.0046	3.6
-0.1305	0.0007	0.0382	-0.003	3.6
-0.0563	-0.003	0.0315	-0.0053	3.6
0.009	-0.0008	0.042	-0.0113	3.6
0.0855	-0.0053	0.0547	-0.012	3.6
0.0877	-0.0075	0.0442	-0.0135	3.6
0.0457	-0.0046	0.033	-0.0105	3.7
-0.0015	-0.0008	0.021	-0.0053	3.7
-0.015	0.0007	0.0187	-0.0046	3.8
-0.0068	-0.0023	0.0172	-0.0038	3.8
-0.0038	0.0007	0.0075	-0.003	3.9
0.0292	0.0007	0.0067	-0.003	3.9
0.0247	-0.0008	0.0127	-0.0023	4
0.0315	0	0.0172	-0.0015	4
0.0322	0.0007	0.0082	0	4.1
0.0247	0.0007	-0.012	0.0015	4.1
0.021	-0.0008	-0.0173	0.0007	4.2
0.0037	-0.0015	-0.015	-0.0008	4.2
0.0015	0	-0.0113	0.0007	4.3
0.0082	0.0015	-0.006	-0.0008	4.3
0.027	0.0015	-0.0046	-0.0046	4.4
0.0285	0.0045	0.0007	-0.0053	4.4
0.03	0.0075	-0.0015	-0.0046	4.5
0.0285	0.0067	0	-0.0023	4.5
0.0247	0.0067	-0.0046	0.0015	4.6
0.0217	0.009	-0.0128	0.006	4.7
0.009	0.0067	-0.0158	0.0067	4.8
-0.0098	0.003	-0.0165	0.0037	4.9
-0.0323	-0.003	-0.0053	-0.003	5
-0.0308	-0.0083	-0.0068	-0.0083	5.1
-0.0293	-0.0046	-0.0113	-0.0068	5.2
-0.0278	0	-0.0053	0.0052	5.3
-0.0158	0.0015	0.0037	0.018	5.4
-0.0015	0.0022	0.0105	0.0202	5.5
0	0.0015	0.0142	0.0157	5.6
-0.0015	0.0007	0.018	0.0052	5.7
-0.0008	-0.0008	0.0105	-0.003	5.8
-0.0023	0.0007	-0.0165	-0.0053	5.9
0.003	0.0045	-0.0443	-0.0053	6
0.0052	0.009	-0.039	-0.0023	6.1
0.009	0.009	-0.0218	0	6.2
0.0285	0.0127	-0.0181	0.0022	6.3
0.0555	0.0202	0.0217	0.0045	6.4
0.072	0.0127	0.0825	0.0075	6.5
0.0675	-0.0091	0.114	0.0097	6.6
0.024	-0.0046	0.1252	0.012	6.7
0.003	0.0172	0.0802	0.0127	6.7
0.051	0.0052	0.0315	0.012	6.8
0.0532	-0.0068	0.0157	0.0105	6.8
-0.012	-0.0143	0.048	0.0052	6.9
-0.0856	-0.0188	0.0645	0.0022	7
-0.0818	-0.0225	0.021	-0.0046	7
0.0307	-0.0436	-0.0046	-0.0091	7.1
0.1162	-0.0128	-0.024	-0.0023	7.2
0.1672	0.0232	-0.0293	0.0015	7.2
0.1387	-0.0083	-0.03	-0.003	7.3
-0.0165	-0.0195	-0.0346	-0.0015	7.3
-0.1748	-0.003	-0.027	0.0015	7.4
-0.2513	0.0052	-0.0458	0.0015	7.5
-0.2011	0.003	-0.063	0.0022	7.5
-0.1283	-0.0068	-0.0323	0.006	7.6
-0.093	-0.0083	-0.0293	0.0082	7.6
-0.0405	-0.0091	-0.0128	0.0082	7.7
-0.0091	-0.0128	0.003	0.0067	7.8
0.0135	-0.0181	-0.0053	0.0067	7.8
0.0427	-0.012	0.0157	0.0052	7.8
0.0502	0.0052	0.0112	0.0045	7.8
0.0442	0.0067	0.009	0.0015	7.8
0.0375	0.0052	0.0045	0.003	7.8
0.0405	0.003	0.0157	0.0015	7.8
0.0547	0.009	0.024	0.0007	7.7
0.072	0.033	0.003	0.0007	7.7
0.084	0.048	-0.0053	0.0015	7.7
0.0862	0.042	-0.0195	0.0022	7.7
0.0277	0.024	-0.027	0.0007	7.7
-0.0645	0.006	-0.024	0	7.7
-0.105	-0.006	-0.0248	0	7.7
-0.0721	-0.0173	-0.0195	0	7.6
-0.0046	-0.0173	-0.0105	0	7.6
0.0172	-0.012	-0.0105	0	7.6
0.0255	-0.0008	-0.003	0	7.6
0.0412	0.0142	0.0127	-0.0023	7.6
0.0382	0.0172	0.018	-0.0008	7.6
-0.0158	0.012	0.0142	0.0015	7.6
-0.1215	0.0052	0.006	0.0015	7.6
-0.1343	-0.003	-0.0105	0.0007	7.6
-0.0405	-0.0075	-0.024	0.0007	7.6
0.0022	-0.0105	-0.0256	-0.0008	7.7
0.0082	-0.0046	-0.0188	-0.0015	7.7
0.0232	0.0015	-0.0068	-0.0023	7.7
0.0105	0.0007	0.006	-0.0038	7.8
0.0105	-0.0083	0.024	-0.003	7.8
-0.0053	-0.0181	0.024	-0.003	7.8
-0.0181	-0.0113	-0.003	-0.0015	7.9
-0.0218	-0.0015	-0.0143	-0.0008	7.9
-0.0293	0	-0.0158	-0.0008	7.9
-0.0098	0.0075	-0.0105	0.0022	7.9
0.006	0.0105	-0.0105	0.0015	8
0.027	0.0195	-0.0068	0	8
0.0442	0.0315	0.0045	-0.0008	8
0.0367	0.0217	0.012	-0.0023	8.1
0.03	0.0067	0.0232	-0.003	8.1
0.0382	-0.0008	0.0277	-0.0038	8.1
0.0457	0.0045	0.03	-0.006	8.1
0.0607	0.009	0.0315	-0.0068	8.2
0.0652	0.009	0.0277	-0.0083	8.2
0.0615	-0.0008	0.0037	-0.0091	8.3
0.0262	-0.0128	-0.024	-0.0046	8.3
-0.0293	-0.0008	-0.0293	-0.003	8.3
0	-0.0023	-0.0165	-0.003	8.4
0.0442	0	0.0007	-0.003	8.4
0.063	0	0.0165	-0.0046	8.5
0.069	-0.0046	0.0255	-0.0015	8.5
0.0067	-0.003	0.0262	-0.0015	8.5
-0.0405	-0.0091	0.0255	-0.0015	8.5
-0.0368	-0.0053	0.0247	0.0007	8.6
-0.0308	-0.0068	0.021	-0.003	8.6
-0.0195	-0.0105	0.015	-0.0046	8.7
-0.0165	-0.012	0.009	-0.0046	8.7
-0.0675	-0.0105	0.0052	-0.003	8.8
-0.123	-0.0083	-0.0038	-0.0023	8.8
-0.0975	-0.0068	-0.0091	-0.003	8.8
-0.027	-0.003	-0.0128	-0.0008	8.9
-0.0105	-0.0015	-0.015	0	8.9
-0.0046	0.0007	-0.0158	0.0015	8.9
0.003	0.0045	-0.0158	0.0007	8.9
0.0007	0.0052	-0.0143	-0.0008	8.9
0.0105	0.0097	-0.0135	0	8.9
0.0082	0.0112	-0.0113	-0.0008	8.9
0.0157	0.0142	-0.0098	0	8.9
0.012	0.027	-0.012	0.0007	8.9
0.009	0.0255	-0.0143	0.0015	8.9
0.006	0.009	-0.0143	0.0007	8.9
0.003	-0.0083	-0.012	-0.0008	8.8
0.0082	-0.027	-0.0083	-0.0015	8.8
0.0105	-0.0263	-0.0075	-0.0008	8.8
0.015	-0.0203	-0.0075	0.0007	8.8
0.0052	-0.0158	-0.0105	0	8.8
-0.0015	-0.003	-0.0128	0.0015	8.8
-0.0083	-0.0046	-0.0105	0.0015	8.8
-0.003	-0.0015	-0.0083	0.0022	8.8
0.0165	0.0037	-0.0015	0.003	8.7
0.0322	0	0.009	0.0015	8.7
0.0337	-0.0008	0.009	0.0015	8.7
0.0135	-0.0015	-0.0053	-0.0008	8.7
0.0022	-0.0015	-0.0181	-0.0008	8.7
0.003	0	-0.0368	0	8.6
-0.0008	-0.0008	-0.0585	-0.0015	8.6
-0.006	0.006	-0.0436	0	8.6
-0.0053	0.0082	-0.0053	0.0015	8.5
-0.0023	0.0015	0.0232	0.0007	8.5
-0.003	-0.0008	0.0247	0.0015	8.5
-0.0105	0.0007	0.027	0.0022	8.5
-0.0158	0.0052	0.0442	0.0022	8.4
-0.0091	0.012	0.048	0.003	8.4
0.009	0.0082	0.06	0.0015	8.4
0.0195	0.0165	0.0615	0.0007	8.4
-0.0008	0.018	0.0435	0	8.3
-0.0053	-0.0046	0.0322	0.0007	8.3
0.0217	-0.0195	0.024	-0.0015	8.3
0.0202	-0.0278	0.015	-0.003	8.2
0.0015	-0.012	0.0135	-0.0008	8.2
0.003	0.009	0.0082	-0.0015	8.2
-0.0046	0.021	-0.0091	-0.0008	8.1
-0.0375	0.0322	-0.0143	-0.0008	8.1
-0.0608	0.018	-0.0143	0.0007	8.1
-0.0465	0	-0.0308	0.0015	8
-0.0248	-0.012	-0.0495	0.0015	8
-0.0188	-0.021	-0.0615	0.0045	7.9
-0.0075	-0.027	-0.0585	0.0015	7.9
0.0015	-0.0308	-0.045	-0.0023	7.8
0.0082	-0.0128	-0.0315	-0.003	7.8
0.0232	0.0052	-0.0128	-0.003	7.7
0.018	0.0075	-0.003	-0.0015	7.6
0.0232	0.0052	-0.003	-0.0015	7.6
0.0652	0.0007	-0.0098	-0.0023	7.6
0.0277	0.0007	-0.0098	0	7.5
-0.006	0.0007	-0.0015	0.0015	7.5
0.0172	-0.0008	0.0052	0.0007	7.4
0.006	0.0015	0.012	0.0015	7.4
0.009	0.0015	0.0142	0.0007	7.3
-0.0038	0.003	0.0127	0.0015	7.3
-0.0256	0.0067	0.012	0.0037	7.2
-0.0248	0.009	0.0105	0.003	7.2
-0.0195	0.0052	0.0037	0.003	7.2
-0.0053	-0.003	0.003	0.0015	7.2
0	-0.0091	0.0037	0	7.1
0.0082	-0.0091	0.0067	0.0015	7.1
0.0082	0.006	0.0217	0.0015	7
0.0067	0.0217	0.0322	0.0007	7
0	0.021	0.0217	0.0007	7
-0.0105	0.0105	0.0067	0.0015	6.9
-0.0091	0.0075	0	0.0015	6.9
-0.0091	0.0067	-0.0113	0.0015	6.8
-0.0053	0.0082	-0.0128	-0.0008	6.8
-0.0015	0.0015	-0.0083	-0.0023	6.8
0.0022	-0.0068	-0.003	-0.0023	6.7
0.0067	0.0015	0.0007	-0.0015	6.7
0.009	0.0007	-0.0023	-0.003	6.7
0.0075	-0.0015	-0.0046	-0.003	6.7
0.0015	-0.0015	-0.0083	-0.0015	6.6
0.0007	-0.003	-0.0053	0	6.6
0.003	-0.0015	-0.0008	0	6.6
0.0015	-0.003	0.0075	0.0007	6.5
0.0007	-0.0015	0.009	0.0015	6.5
0.0022	0	0.009	0.0007	6.5
0.0007	0	0.0097	0.0007	6.4
-0.0008	-0.0015	0.0007	0.0015	6.4
-0.0023	-0.003	-0.0046	0.003	6.4
-0.0038	-0.0023	-0.0053	0.0037	6.4
-0.0038	-0.0023	0.003	0.0022	6.3
-0.0015	-0.0008	0.0097	-0.0008	6.3
0.0007	-0.0008	0.0045	-0.0008	6.3
0.003	0.0015	-0.0165	-0.0008	6.3
0.003	0.0007	-0.0263	-0.003	6.3
0.0022	-0.0008	-0.0068	-0.0023	6.2
0.0045	0.0022	0.0105	-0.0008	6.2
0.0105	-0.0008	0.0232	-0.0008	6.2
0.0202	-0.0046	0.0255	0.0007	6.2
0.0165	-0.0023	0.0232	0.0015	6.1
0.0015	0.0007	0.0195	0.003	6.1
0.006	0.006	0.0172	0.0045	6.1
0.012	0.0075	0.0172	0.0045	6.1
0.0157	0.009	0.0195	0.0007	6
0.018	0.0097	0.0157	-0.0015	6
0.0172	0.0135	0.0007	-0.003	6
0.0067	0.0232	-0.0075	-0.003	5.9
-0.0256	0.0157	-0.0105	-0.003	5.9
-0.0368	-0.0008	-0.0128	-0.0015	5.9
-0.0165	-0.015	-0.0113	-0.0015	5.9
-0.0105	-0.0323	-0.012	-0.0008	5.9
0.0007	-0.0218	-0.0083	0.0007	5.8
0.0225	-0.0068	-0.0015	-0.003	5.8
0.0232	-0.0015	0.0045	-0.0038	5.8
0.015	0.006	0.0105	-0.0023	5.8
-0.0046	-0.0008	0.018	-0.0023	5.8
-0.0285	-0.0015	0.0202	-0.0015	5.7
-0.0293	-0.003	0.0142	-0.0015	5.7
-0.0023	-0.006	0.0022	-0.0015	5.7
0.0045	-0.0053	-0.0075	-0.0008	5.7
-0.003	-0.0053	-0.0113	-0.003	5.7
0.0007	-0.0008	-0.0143	-0.0038	5.6
-0.0015	0	-0.0143	-0.0046	5.6
-0.0008	0.003	-0.0128	-0.006	5.5
-0.0023	0.003	-0.0105	-0.0068	5.5
-0.0008	0.003	-0.0128	-0.0053	5.5
0	0.003	-0.0105	-0.0038	5.5
-0.0008	0.0007	-0.006	-0.0053	5.5
-0.0008	0.0007	-0.006	-0.0068	5.5
-0.0046	0.0015	-0.0053	-0.0105	5.5
-0.0023	0.0037	-0.0068	-0.0143	5.5
0.0067	0.0105	-0.0053	-0.0158	5.4
0.0142	0.0157	-0.0046	-0.0188	5.4
0.0052	0.009	-0.012	-0.021	5.4
0	0.0052	-0.0218	-0.0203	5.4
-0.0075	-0.003	-0.0203	-0.0188	5.4
-0.012	-0.0143	-0.015	-0.012	5.3
-0.012	-0.0143	-0.0068	0.0007	5.3
-0.0098	-0.012	0.0007	0.0105	5.3
0.0052	-0.0008	0.0052	0.018	5.3
0.0255	0.006	0.0105	0.0232	5.3
0.0427	0.0045	0.0157	0.0225	5.3
0.0202	0.0067	0.0232	0.024	5.3
-0.0091	0.0015	0.024	0.0277	5.2
0.0082	-0.0023	0.021	0.027	5.2
0.0015	-0.0053	0.0127	0.0277	5.2
-0.0105	-0.0046	0.003	0.0255	5.2
-0.0053	0	0.0015	0.0247	5.2
-0.0083	-0.0015	-0.0015	0.0217	5.1
-0.0046	0	-0.0046	0.0195	5.1
-0.0068	0.0015	-0.006	0.0195	5.1
-0.0053	0.0022	-0.0053	0.0157	5
-0.0023	0.003	-0.0046	0.012	5
-0.006	0.0037	-0.0046	0.0082	5
-0.0038	0.003	-0.0068	0.0045	4.9
-0.003	0.0007	-0.0046	0.0007	4.9
-0.0015	0.0015	-0.0015	-0.0015	4.9
-0.003	0.0007	-0.003	-0.0015	4.9
-0.0023	0.0007	-0.0015	-0.003	4.9
-0.0008	0.0015	-0.003	-0.0015	4.8
-0.0015	0.0007	-0.0015	-0.0023	4.8
0	0.0007	0.0007	-0.0083	4.8
0.0007	-0.0008	-0.0008	-0.0075	4.8
-0.0008	-0.0008	-0.0015	-0.0068	4.7
-0.0015	0.0007	-0.0023	-0.0091	4.7
-0.0015	0.0007	-0.0023	-0.0105	4.7
-0.0015	0.0007	-0.0083	-0.012	4.6
-0.0015	0.0007	-0.0128	-0.0135	4.6
-0.0008	0.0015	-0.0053	-0.0135	4.5
-0.0008	0.0015	-0.0015	-0.0143	4.5
-0.003	0.003	-0.0023	-0.015	4.5
-0.003	0.0045	-0.0068	-0.012	4.5
0.0007	0.006	-0.0128	-0.0128	4.4
0.0067	0.006	-0.0128	-0.0128	4.4
0.0075	0.003	-0.0128	-0.012	4.4
0.0045	0.003	-0.0181	-0.012	4.3
0.0007	0	-0.0285	-0.0098	4.3
-0.0008	-0.003	-0.0361	-0.0105	4.2
-0.0023	-0.003	-0.0375	-0.0098	4.2
-0.0015	-0.0008	-0.0353	-0.0075	4.2
-0.0008	0	-0.0353	-0.0046	4.1
-0.0015	0.0007	-0.0375	-0.0015	4.1
-0.0015	0.0007	-0.0405	0	4.1
0.0007	0.0007	-0.039	0.003	4
0.0015	0.0007	-0.0353	0.0022	4
0.003	0.0007	-0.0338	0.0015	4
0.003	0.0015	-0.0293	0.003	4
0.0007	0.0007	-0.0263	0.0022	3.9
-0.0008	-0.0008	-0.0233	0.0037	3.9
-0.003	0	-0.0165	0.006	3.8
-0.003	0.0007	-0.0105	0.0067	3.8
-0.0023	0.0007	-0.0046	0.009	3.8
-0.0015	0	-0.003	0.0075	3.7
-0.0008	0	-0.0015	0.0082	3.7
0	-0.0008	0.0045	0.0082	3.6
0.0015	-0.0008	0.0082	0.0045	3.6
0.003	0	0.0127	0.003	3.6
0.0052	-0.0008	0.0187	0.0015	3.6
0.0082	0	0.021	0.0022	3.5
0.0082	0.0007	0.0232	0.003	3.5
0.006	0.003	0.0225	0.003	3.4
0.0067	0.0037	0.0232	0.0045	3.4
0.0082	0.0015	0.024	0.0037	3.4
0.009	0.0022	0.0262	0.0037	3.3
0.0105	0	0.0307	0.0052	3.3
0.0157	-0.0008	0.033	0.0045	3.2
0.0157	0.0015	0.0322	0.0045	3.2
0.0052	0.003	0.0315	0.003	3.1
-0.0143	0.003	0.033	0.0052	3.1
-0.0458	-0.0008	0.0352	0.0052	3.1
-0.0361	-0.0015	0.0382	0.0045	3
-0.0046	-0.0038	0.0367	0.0052	3
-0.0068	-0.0046	0.0337	0.0052	2.9
-0.006	-0.0053	0.0315	0.0052	2.9
-0.0023	-0.0046	0.0285	0.0045	2.9
-0.0046	-0.0015	0.0262	0.0015	2.8
-0.0083	0	0.0247	-0.0008	2.8
-0.0083	0	0.0232	0	2.7
0.0037	-0.0008	0.0217	0.0007	2.7
0.0007	0.0007	0.0217	0.0007	2.6
0.0037	0.0015	0.0232	0.0007	2.6
0.0052	0.0007	0.0232	0	2.6
0.006	-0.0015	0.021	0.0007	2.5
0.0082	-0.0008	0.0172	0.0007	2.4
0.0052	-0.0008	0.015	0.0007	2.4
0.0067	0.0007	0.0142	0.0007	2.4
0.0052	0.0007	0.0172	0.0007	2.3
0.0067	0.0007	0.0165	0.0015	2.2
0.0052	0.0022	0.0127	0.0015	2.2
0.0037	0.0022	0.0105	0.0007	2.2
0.0045	0.003	0.012	0	2.1
0.0045	0.003	0.012	-0.0008	2.1
0.0045	0.0015	0.009	-0.0008	2
0	0.0022	0.0067	-0.0008	1.9
-0.0008	0.0015	0.0045	-0.0008	1.9
-0.0023	0.0022	0.003	0	1.8
0.0007	0.0045	0.003	-0.0015	1.8
0.0007	0.0052	0.003	-0.0023	1.8
0.0007	0.0052	0	-0.0015	1.7
-0.0008	0.006	0	-0.0015	1.7
-0.0008	0.0082	0.0015	-0.0008	1.6
0	0.0067	0.0022	-0.0015	1.5
0.0007	0.006	0.0045	-0.0015	1.5
0.0007	0.003	0.0037	-0.0015	1.4
0.0015	0.0015	0.0037	-0.0008	1.4
0.0037	0.0015	0.0045	-0.0008	1.3
0.003	0.0022	0.003	-0.0023	1.3
0.0022	0.003	0.003	-0.0023	1.3
0.0015	0.0022	0.0015	-0.003	1.2
0.0007	0.0022	0.003	-0.0023	1.2
0	0.0022	0.0045	-0.0015	1.2
-0.0008	0.0015	0.0052	-0.0023	1.1
-0.0015	0.0015	0.0052	-0.0008	1.1
-0.0015	0.0052	0.0045	0.0007	1
0.0007	0.006	0.0052	-0.0008	1
-0.0008	0.0052	0.0052	-0.0023	0.9
-0.0008	0.0067	0.003	-0.0023	0.9
-0.0015	0.0045	0.003	-0.0015	0.9
-0.0008	0.0045	0.0052	-0.0023	0.8
0.0015	0.003	0.003	-0.0015	0.8
0.0015	0.0015	0.003	-0.0023	0.8
0.0022	0.0015	0.0022	-0.003	0.7
0.0015	0.0007	0.0022	-0.0038	0.7
0.0007	-0.0008	0.0037	-0.0046	0.6
0	-0.0015	0.0037	-0.0038	0.6
-0.0008	-0.003	0.0037	-0.0046	0.5
-0.0008	-0.0038	0.0022	-0.0038	0.5
0	-0.0046	0.0022	-0.003	0.5
-0.0008	-0.0046	0.003	0	0.4
-0.0015	-0.0038	0.003	0	0.4
-0.0015	-0.0038	0.0007	-0.0008	0.4
0.0007	-0.0053	0.0007	-0.0008	0.3
0.0007	-0.0068	0.0015	-0.0015	0.3
-0.0015	-0.0068	0.003	-0.0008	0.2
0.0007	-0.0053	0.0045	0	0.2
0.0015	-0.0053	0.0022	0.0007	0.2
-0.0008	-0.0046	0.0022	0.0015	0.1
0.0007	-0.0015	0.0007	0	0.1
0.0015	-0.0015	-0.0015	0.0007	0
0.0007	-0.0015	-0.0038	0.0007	0
0.003	-0.0023	-0.0068	0.0015	0
0.0022	-0.003	-0.0075	0.0052	0
0.0015	-0.003	-0.0105	0.006	-0.1
0.003	-0.0008	-0.0113	0.0045	-0.2
0.0045	0	-0.012	0.003	-0.2
0.0037	0	-0.015	0.0015	-0.2
0.0015	0.0007	-0.0165	0.0015	-0.3
0.0015	0.0007	-0.0165	0.0007	-0.3
0.0007	0	-0.0165	-0.0023	-0.4
0.0015	-0.0008	-0.0173	-0.006	-0.4
0.0015	-0.0015	-0.0158	-0.0091	-0.4
0.0007	-0.0046	-0.0143	-0.0105	-0.5
-0.0023	-0.0046	-0.0143	-0.0046	-0.5
-0.0015	-0.0023	-0.0143	-0.0023	-0.5
0.0015	-0.0015	-0.0135	-0.0008	-0.6
0.0007	0	-0.0143	0.0045	-0.6
0.0007	0.0007	-0.0143	0.003	-0.7
0.0015	0.0015	-0.0135	0	-0.7
0.0015	0.0007	-0.0128	-0.0008	-0.8
0.0015	0.0007	-0.0113	-0.0008	-0.8
0	0.0015	-0.0105	0.0007	-0.8
-0.0015	0.0015	-0.0098	0	-0.9
-0.0015	0.0022	-0.0083	-0.0008	-0.9
-0.0015	0.0007	-0.006	-0.0008	-1
-0.0008	0.0015	-0.0053	-0.0008	-1
0.0007	0.0015	-0.0046	-0.0015	-1
0.0007	0.0007	-0.0038	-0.0053	-1
-0.0008	0.0007	-0.0046	-0.0105	-1.1
-0.0008	0.0015	-0.0046	-0.0083	-1.1
-0.0008	0.0015	-0.003	-0.0053	-1.1
-0.0008	0.0007	-0.003	-0.0008	-1.2
0.0007	0.0007	-0.003	0.003	-1.2
0.0015	0	-0.003	0.009	-1.2
0.0007	0	-0.0008	0.0105	-1.3
0.0007	0.0015	-0.0015	0.0105	-1.3
0.0007	0.0007	-0.0023	0.012	-1.3
-0.0015	-0.0008	-0.0008	0.0127	-1.3
-0.0038	-0.0008	0.0015	0.0127	-1.4
-0.0023	-0.0008	0.0007	0.0067	-1.4
-0.003	0	0.0007	0.0015	-1.4
-0.0015	0.0015	0.0015	0	-1.4
-0.0015	0.0015	0	-0.003	-1.5
-0.0015	0.0015	0.0007	-0.0038	-1.5
-0.0008	0.0007	0.0015	-0.0046	-1.6
-0.0008	0.0007	0.0022	-0.0015	-1.6
-0.0015	0.0015	0.0052	-0.0008	-1.6
-0.0008	0.0007	0.006	-0.0008	-1.6
0.0015	0.0007	0.0045	0.0007	-1.6
0.0007	-0.0015	0.0045	-0.0008	-1.6
0.0007	-0.0015	0.006	-0.0015	-1.6
-0.0008	-0.0008	0.0045	-0.0046	-1.7
0.0007	0.0007	0.0052	-0.003	-1.7
0.0015	0.0015	0.0037	-0.0008	-1.7
0	0.0022	0.0015	0.0007	-1.7
0.0007	0.0007	0.0037	0.0007	-1.7
0.0015	0.0015	0.0015	0	-1.8
0.003	0.0015	0.003	0.0015	-1.8
0.003	0.0015	0.003	0.0015	-1.8
0.0015	-0.0008	0.0007	0.0007	-1.8
0.0007	0	0.0015	0.0015	-1.8
0.0007	0.0007	0.0015	0	-1.8
0.0015	-0.0015	0.003	0	-1.8
0.0015	-0.0015	0.0015	0	-1.9
0	-0.0008	0.0007	-0.0015	-1.9
0	-0.0023	-0.0015	-0.003	-1.9
-0.0008	-0.0008	-0.0023	-0.0008	-1.9
0	-0.0008	-0.0008	0.0015	-1.9
0.0007	-0.0008	-0.0023	0.0022	-1.9
0	0	-0.003	0.0007	-1.9
-0.0008	0	-0.0008	0.0007	-1.9
0	0.0007	-0.0015	0.0007	-1.9
0	0	-0.0046	0.0007	-1.9
0	0	-0.0046	-0.0008	-1.9
0	0.0007	-0.003	-0.0015	-1.9
0.0007	0.0007	-0.003	-0.0015	-1.9
-0.0015	-0.0008	-0.0038	-0.0015	-1.9
-0.0008	0.0007	-0.0046	-0.0023	-1.9
0.0007	0.0022	-0.0023	-0.0023	-1.9
0.0007	0.0007	-0.0008	-0.0008	-1.9
0.0007	0.0007	-0.0015	-0.0008	-1.9
0.0015	0.0022	-0.0008	-0.0015	-1.9
0.0007	0.0015	-0.0015	-0.0008	-1.9
0	-0.0008	-0.0015	-0.0015	-1.9
0.0015	-0.0008	-0.003	-0.0015	-1.9
0.0007	0.0007	-0.003	-0.0023	-1.8
-0.0008	0.0015	-0.003	-0.0023	-1.8
-0.0008	0.003	-0.003	-0.0023	-1.8
0.0007	0.0007	-0.0015	-0.0015	-1.8
0.0015	-0.0008	-0.0023	-0.0023	-1.8
0.0022	0	0.0007	-0.0015	-1.7
0.0007	-0.0008	-0.0008	0	-1.7
-0.0008	-0.0008	0.0007	0	-1.7
0.0007	-0.0015	0.003	-0.0008	-1.6
-0.0008	-0.0015	0.0015	-0.0015	-1.6
0.0007	0.0007	0.0022	-0.003	-1.6
0.0007	-0.0008	0.0037	-0.0008	-1.5
-0.0008	0	0.0052	-0.0015	-1.5
0.0007	0.0015	0.0045	-0.0015	-1.5
0	0.0022	0.0037	-0.0015	-1.4
0.0007	0.0015	0.0045	-0.0015	-1.4
0.0007	0.0022	0.0037	-0.0015	-1.4
0.0007	0.0022	0.0052	-0.0015	-1.4
0	0.0022	0.0045	-0.0015	-1.4
-0.0015	0.0045	0.0022	0	-1.3
-0.0008	0.003	0.003	-0.0015	-1.3
-0.0015	0.0015	-0.0046	-0.0008	-1.2
-0.0023	0.0015	-0.0143	-0.0015	-1.1
-0.0015	0.003	-0.003	0	-1.1
-0.0008	0.0015	0.003	0.0007	-1
-0.0008	0.0007	0.0052	0.0015	-0.9
-0.0008	0.0007	0.0105	0.0022	-0.9
-0.0015	0.0015	0.0067	0.0007	-0.8
-0.0008	0.0015	0.012	0.0007	-0.8
0	0.0007	0.0127	0.0007	-0.7
-0.0008	0.0015	0.012	0	-0.6
-0.0008	0.0015	0.012	0	-0.6
-0.0008	0.0007	0.0097	0	-0.5
-0.0008	-0.0008	0.009	0	-0.5
-0.0008	-0.0015	0.0067	0.0007	-0.4
-0.0008	-0.003	0.0082	0.0007	-0.3
-0.0015	-0.0038	0.006	0.0007	-0.3
0	-0.0023	0.0052	0.0007	-0.2
-0.0008	-0.0015	0.0052	0.0007	-0.1
-0.0015	-0.0008	0.0067	0	-0.1
-0.0008	-0.0008	0.0082	0	0
-0.0008	-0.0015	0.0097	-0.0008	0
-0.0008	-0.0008	0.0105	-0.0015	0.1
0.0007	0.0007	0.0112	0.0007	0.2
0	0	0.0105	0.0007	0.3
-0.0015	-0.0008	0.009	0.0007	0.3
0.0007	0.0007	0.009	0	0.4
-0.0008	0.0015	0.0075	-0.0015	0.4
-0.0008	0	0.0067	-0.0015	0.5
-0.0008	0	0.0045	-0.0008	0.6
-0.0015	0	0.003	-0.0008	0.7
0	0.0007	0.0037	-0.0008	0.8
0.0007	0.0007	0.0052	-0.0008	0.8
-0.0008	0.0007	0.006	-0.0015	0.9
-0.0008	0	0.003	-0.0023	0.9
0	0.0007	0.0045	-0.0015	1
-0.0008	0.0007	0.0037	-0.0008	1.1
0	0.0007	0.0022	0.0007	1.2
-0.0008	0.0015	0.0007	0.003	1.2
-0.0008	0.0022	-0.0008	0.003	1.3
0	0.0015	-0.0008	0.0022	1.4
0.0007	0.0015	-0.0015	0.003	1.5
0.0007	0.0015	-0.0015	0.0045	1.6
0.0007	0.0015	-0.0046	0.0022	1.7
0.0007	0.0007	-0.0083	0.003	1.8
0.0015	0.0015	-0.0091	0.003	1.8
0.0022	0.003	-0.0105	0.003	1.9
0.0015	0.003	-0.012	0.003	2
0	0.0037	-0.0143	0.0022	2.1
-0.0008	0.003	-0.0158	0.003	2.2
0.0007	0.0015	-0.0158	0.0022	2.3
0.0015	0.0022	-0.0165	0.0015	2.4
0.0015	0.0022	-0.0188	0.0022	2.5
0.0015	0.0015	-0.021	0.0045	2.6
0.0007	0.0015	-0.0218	0.0045	2.6
-0.0008	0.0015	-0.021	0.0045	2.7
0.0007	0.0022	-0.0218	0.003	2.8
0.0007	0.0015	-0.0248	-0.0008	2.9
0.0007	0.0007	-0.024	0.003	3
-0.0023	0.0015	-0.024	0.0082	3.1
-0.0023	-0.0008	-0.027	0.0067	3.2
-0.003	-0.0015	-0.0248	0.0067	3.3
-0.003	-0.0008	-0.0248	0.0067	3.4
-0.0015	-0.0015	-0.0256	0.0067	3.5
-0.0038	-0.0008	-0.024	0.003	3.6
-0.0015	-0.0008	-0.0248	0.003	3.7
-0.0015	-0.0008	-0.0256	0.0045	3.8
-0.0023	0.0007	-0.0248	0.0015	3.9
-0.0023	0	-0.0225	0.0037	4
-0.003	-0.0015	-0.0195	0.0045	4.1
-0.0023	-0.0008	-0.0165	0.003	4.2
-0.0023	0.0007	-0.0135	0.0022	4.3
-0.003	0.0015	-0.012	0.0007	4.4
-0.0023	0.0015	-0.012	0	4.5
-0.0008	0.0022	-0.0083	0	4.6
0.0007	0.0015	-0.0046	0.0007	4.7
0.0007	0.003	-0.0023	0.0015	4.8
0.003	0.003	0.0007	0.0007	4.9
0.0045	0.0022	0.0052	0.0015	5
0.0052	0.0015	0.0075	0.0007	5.1
0.0052	0.0022	0.0082	0.0015	5.3
0.006	0.0052	0.012	0.0022	5.4
0.0075	0.0052	0.0142	0.003	5.5
0.009	0.0075	0.0157	0.0045	5.7
0.009	0.0082	0.0142	0.0015	5.8
0.0075	0.0045	0.0097	-0.0023	5.9
0.0045	0.0022	0.0082	-0.0046	6.1
0.0007	0.0007	0.0022	-0.0053	6.2
-0.0008	-0.0008	-0.0015	-0.0053	6.3
-0.0015	-0.0015	-0.0008	-0.0046	6.5
-0.0023	0	-0.0015	-0.0038	6.7
-0.0015	-0.0015	-0.0015	-0.0023	6.8
-0.003	-0.0023	-0.0015	-0.0008	6.9
-0.003	-0.0015	-0.003	-0.0053	7.1
-0.0015	-0.0015	0	-0.0091	7.2
-0.0008	-0.0008	-0.0023	-0.0068	7.3
-0.0023	-0.003	-0.003	-0.0068	7.5
-0.0038	-0.003	-0.0038	-0.006	7.6
-0.003	-0.003	-0.0053	-0.0038	7.7
-0.0023	-0.0023	-0.0046	-0.0053	7.9
-0.003	-0.0038	-0.003	-0.0046	8.1
-0.0008	-0.0046	-0.0023	-0.0046	8.2
-0.0008	-0.0023	-0.0015	-0.0046	8.4
-0.0015	-0.0038	-0.0008	-0.003	8.5
-0.0015	-0.003	-0.0015	-0.0023	8.7
-0.003	-0.0015	-0.0015	-0.003	8.9
-0.003	-0.0023	0.0007	-0.0046	9
-0.0015	-0.003	0.0037	-0.0038	9.2
-0.0015	-0.003	0.0045	-0.0023	9.3
-0.0008	-0.0008	0.0037	-0.003	9.5
0.0015	-0.0015	0.0045	-0.003	9.7
0.0007	-0.0008	0.006	-0.0015	9.8
0.0015	-0.0008	0.0052	-0.0015	10
0.003	0.0015	0.0052	-0.0015	10.1
0.0007	0	0.006	-0.0015	10.3
0.0007	-0.0015	0.0067	-0.0038	10.5
0.0015	-0.0008	0.006	0	10.6
-0.0008	-0.0008	0.0082	0.003	10.8
0	0.0007	0.0097	0.0022	10.9
0.0015	0.0015	0.0112	0.003	11.1
0.003	0.0037	0.0135	0.0015	11.3
0.003	0.0052	0.0142	0.0052	11.6
0.003	0.0045	0.0142	0.0067	11.8
0.0022	0.003	0.0105	0.0045	12
-0.0008	0.0037	0.0082	0.006	12.2
0.0007	0.003	0.009	0.0052	12.5
0.003	0.0022	0.0052	0.006	12.7
0.0015	0.0015	0.0022	0.0067	12.9
0.0015	0.0007	-0.0015	0.0075	13.1
0.0015	0.0022	-0.0046	0.0075	13.4
0.0007	0.0022	-0.0068	0.0075	13.5
0.0015	0.0015	-0.0068	0.009	13.8
0.003	0.0007	-0.0091	0.0135	14
0.003	0.0007	-0.0091	0.0172	14.2
0.0007	-0.0008	-0.0083	0.018	14.4
0	-0.0015	-0.0105	0.0202	14.7
-0.0008	-0.0008	-0.012	0.0202	14.9
-0.0015	0	-0.0143	0.021	15.1
-0.0038	0	-0.0105	0.0217	15.3
-0.0008	-0.0008	-0.0075	0.021	15.6
-0.0008	0.0007	-0.0083	0.0195	15.8
-0.0023	-0.0015	-0.006	0.0157	16.2
-0.0008	0	-0.0068	0.0157	16.4
0	0.0015	-0.0038	0.0142	16.7
-0.0008	0.0007	-0.003	0.012	17
-0.0008	0.0015	-0.0015	0.0097	17.3
-0.0008	0	0	0.0067	17.5
-0.0015	0.0007	0	0.0045	17.9
-0.0023	0.0007	0.0022	0.0022	18.1
-0.0015	-0.0008	0.0045	-0.0008	18.4
0.0007	0.0007	0.0082	-0.0038	18.7
0.0015	0.0007	0.0105	-0.006	19
0	0.0007	0.0112	-0.0083	19.3
-0.0015	-0.0023	0.0135	-0.012	19.6
-0.0008	-0.0038	0.0135	-0.0135	19.8
-0.0008	-0.003	0.0195	-0.0143	20.2
0	-0.003	0.0262	-0.0165	20.4
0.0015	-0.0015	0.0217	-0.0278	20.7
0.0015	0.0007	0.0097	-0.0525	21
0.0007	0.0022	0.0075	-0.054	21.3
-0.0008	0.0015	0.0022	-0.0293	21.6
-0.0023	0.003	-0.0008	-0.0203	22
-0.0038	0.0022	0	-0.0195	22.3
-0.0015	0.0015	-0.0015	-0.024	22.6
-0.0015	0.003	0.0007	-0.0233	22.9
-0.0008	0.003	0.0015	-0.0143	23.3
-0.0015	0.0037	0.0037	-0.0203	23.6
-0.003	0.0045	0.0067	-0.0158	24
-0.0015	0.0045	0.0045	-0.0158	24.3
0	0.0045	0.0045	-0.012	24.7
0.0007	0.0052	0.0067	-0.0083	25
0.0007	0.0037	0.0082	-0.0098	25.3
0.0015	0.0007	0.0082	-0.0068	25.6
0.0015	0	0.0097	-0.0083	26
0.0007	0.0007	0.012	-0.0046	26.3
0.0007	-0.0008	0.0105	-0.003	26.6
0.0022	0	0.012	-0.0015	27
0.0015	0.0015	0.0142	0.0007	27.3
0.003	0.0007	0.015	0	27.7
0.003	0.0015	0.0135	0.0022	28
0.0037	0.0015	0.0142	0.0022	28.3
0.003	0.0015	0.015	0.0045	28.7
0.0045	0.0015	0.0165	0.0052	29
0.0045	0.0015	0.018	0.0052	29.3
0.0045	0	0.0142	0.0052	29.7
0.0045	-0.0015	0.0105	0.0045	30
0.003	-0.0015	0.0075	0.0045	30.4
0.0015	-0.003	0.003	0.0015	30.7
0.0015	-0.0023	-0.0008	0.003	31
0	-0.0008	-0.0008	0.0037	31.4
-0.0008	-0.0008	-0.0038	0.0015	31.7
-0.0023	-0.0008	-0.0091	0.0007	32.1
-0.0015	-0.0015	-0.0091	0.0007	32.4
0	0	-0.0091	0.0015	32.8
-0.0008	0.0007	-0.006	0.003	33.1
-0.0008	0.0015	-0.0083	-0.0008	33.4
0.0007	0.003	-0.0068	-0.0068	33.7
0.0015	0.0022	-0.0038	-0.006	34.1
0.0015	0.003	-0.0008	-0.0068	34.4
0.0015	0.0022	-0.0023	-0.0083	34.8
0.0022	0.003	-0.0023	-0.0068	35.1
0.0022	0.003	0.0052	-0.0083	35.3
0.0037	0.0015	0.0045	-0.0083	35.5
0.003	0.0007	0.0052	-0.0105	35.8
0.0015	-0.0008	0.003	-0.0091	36.1
0.0007	0.0007	0.003	-0.0068	36.4
0.0015	-0.0015	0.0105	-0.0091	36.6
0.003	-0.0015	0.018	-0.0083	36.9
0.003	-0.0038	0.0255	-0.0091	37.1
0.0037	-0.0053	0.0255	-0.0083	37.4
0.006	-0.003	0.027	-0.0091	37.7
0.0052	-0.0046	0.021	-0.0083	37.9
0.0037	-0.0046	0.0135	-0.0053	38.2
0.003	-0.003	0.0097	-0.0046	38.4
0.003	-0.0015	0.0082	-0.0038	38.7
0.0037	-0.0015	0.012	-0.003	39
0.003	0	0.0127	-0.003	39.2
0.0045	-0.0008	0.0157	-0.0023	39.5
0.0037	-0.003	0.0105	-0.0008	39.7
0.0015	-0.0008	0.0052	-0.0008	40
0.0007	0	0.0045	0	40.2
0.0007	0.0015	0.0015	-0.0015	40.5
0	0.0015	-0.0015	-0.003	40.7
-0.0008	0.0007	-0.0008	-0.0008	40.9
-0.0008	0.0007	0.0015	-0.0008	41.1
-0.0008	0.0015	0.0037	0.0007	41.4
0.0007	0.0015	0.0037	0.0052	41.6
0.003	0.0007	0.0045	0.0067	41.8
0.0015	0	0.0015	0.0067	42
0	-0.0015	-0.0068	0.0082	42.3
0	-0.0008	-0.006	0.0105	42.4
0	0.0015	-0.0053	0.0142	42.7
-0.0008	0.0015	-0.0105	0.0157	42.9
-0.0015	0.0007	-0.0128	0.0165	43.1
-0.0038	0.003	-0.0135	0.0165	43.3
-0.0046	0.0045	-0.0113	0.0187	43.6
-0.0038	0.0022	-0.012	0.0225	43.8
-0.003	0.003	-0.012	0.0225	44
-0.0038	0.0022	-0.012	0.0232	44.2
-0.0046	0.0007	-0.0128	0.024	44.5
-0.0046	0.0015	-0.012	0.0202	44.7
-0.003	0.0015	-0.0113	0.0187	45
-0.0023	0.0022	-0.0128	0.018	45.2
-0.0046	0.0015	-0.015	0.018	45.5
-0.006	0.0007	-0.0158	0.015	45.7
-0.0068	0.0007	-0.0181	0.0135	46
-0.0068	0	-0.0173	0.012	46.3
-0.0053	-0.0008	-0.015	0.0105	46.5
-0.0038	-0.0008	-0.0128	0.009	46.8
-0.003	0.0015	-0.0105	0.0067	47
-0.003	0.0022	-0.012	0.0075	47.2
-0.003	0.0037	-0.0128	0.0037	47.5
-0.003	0.0037	-0.0098	0.0007	47.7
-0.003	0.0022	-0.0068	0.0007	48
-0.0015	0.0037	-0.0046	0.0007	48.3
0.0007	0.0052	0.0015	0.0015	48.5
0.0007	0.006	0.0067	0.0015	48.8
0.0015	0.0052	0.0082	0.0007	49
0.0015	0.003	0.0067	0	49.3
0.0007	0.0037	0.0045	-0.0023	49.5
0.0015	0.0045	0.003	-0.0046	49.8
0.0015	0.0022	-0.0008	-0.006	50
0.0007	0.0015	-0.0046	-0.006	50.3
0.0015	0.0015	-0.0046	-0.0053	50.5
0.0007	0	-0.0046	-0.0053	50.8
-0.0008	-0.0008	-0.0015	-0.0068	51
-0.0008	-0.0008	-0.0023	-0.0068	51.2
0.0007	0	-0.0023	-0.0053	51.5
0.0007	-0.0015	-0.0015	-0.0053	51.7
0.0007	-0.0015	0	-0.0046	52
0.003	-0.0008	0.0022	-0.0046	52.2
0.0015	-0.0008	0.0022	-0.006	52.4
0.0015	-0.0008	0.0045	-0.0053	52.7
0.0022	-0.0015	0.0067	-0.0046	52.9
0.003	-0.0015	0.0052	-0.0046	53.1
0.0015	-0.0008	0.0045	-0.003	53.4
0.0007	-0.0015	0.0052	-0.0015	53.6
0.003	-0.0023	0.0067	-0.0008	53.9
0.0015	-0.003	0.006	-0.0008	54.1
0.0007	-0.003	0.0045	-0.0023	54.4
0.0007	-0.0008	0.003	-0.0038	54.5
-0.0015	0	0.0015	-0.003	54.7
-0.0023	0.0007	-0.0008	-0.003	54.8
-0.0008	0.0007	-0.003	-0.0015	55
-0.0008	0.0007	-0.0038	-0.0008	55.1
0	0.0007	-0.0015	-0.0008	55.3
0.0007	0.0022	0	-0.0008	55.4
0.0007	0.003	0.0007	-0.0008	55.6
-0.0008	0.003	0.0015	0	55.8
-0.0008	0.0045	0.003	0.0007	55.9
0.0015	0.0037	0.0045	0.003	56.1
0.003	0.003	0.006	0.003	56.2
0.0007	0.0007	0.0052	0.0015	56.4
0.0007	-0.0008	0.0045	0.0007	56.5
-0.0008	0	0.003	0.0007	56.7
0.0007	0.0007	0.0015	0.0007	56.8
0.0022	0.0022	-0.0008	0	57
0.0015	0	-0.0046	-0.0008	57.1
0.0007	-0.0008	-0.0053	-0.0015	57.3
0	0.0007	-0.0075	-0.0023	57.5
0.0007	0.0015	-0.0068	-0.0015	57.5
-0.0015	0.0015	-0.006	-0.0046	57.6
-0.0015	0	-0.0068	-0.0038	57.6
-0.0008	-0.0008	-0.0046	0	57.7
-0.0008	0.0015	-0.0038	0.0007	57.8
0.0007	0.0007	0	0.0007	57.9
0.0007	0.0015	0.0015	0	57.9
0.0015	0.0015	0.003	-0.0008	58
0.0007	0.0007	0.0052	-0.0008	58
-0.0008	-0.0015	0.0045	0.0007	58.1
0	-0.003	0.0052	-0.0008	58.2
0	-0.0015	0.0052	-0.0023	58.2
0.0022	-0.0008	0.003	-0.003	58.3
0.0015	0	0.0022	-0.003	58.4
0.0015	0.0007	0.0007	-0.0023	58.5
0.0022	0.0007	-0.0015	-0.0015	58.5
-0.0008	0.003	0	-0.0023	58.6
0.0022	0.0015	-0.0008	-0.003	58.6
0.0015	0.0007	-0.0023	-0.0015	58.7
0.0007	-0.0008	0	-0.0015	58.8
0.0007	-0.0008	0.003	0.0007	58.8
0.0007	-0.0015	0.0037	0	58.8
0.003	-0.0023	0.0052	-0.0015	58.7
0.0007	0.0015	0.0067	-0.0008	58.7
-0.0008	0.0022	0.009	-0.0008	58.7
0	0.0015	0.0067	-0.0008	58.6
0	0.0007	0.0045	-0.0008	58.6
0	0.0007	0.003	-0.0008	58.6
-0.0008	0.0015	0.0015	-0.0015	58.5
0	0.0007	0.003	-0.003	58.5
0.0007	0.0007	0.0052	-0.0023	58.5
0.0015	0	0.0105	-0.0008	58.5
0.0015	-0.0015	0.0187	-0.0008	58.5
0.0052	-0.0023	0.018	0.0022	58.4
0.0045	-0.0008	0.006	0.0015	58.4
0.003	0	-0.003	0.0015	58.4
0.0015	-0.0008	-0.0083	0	58.3
-0.0008	0	-0.012	-0.0023	58.3
-0.0008	-0.0015	-0.0128	-0.0053	58.3
-0.0015	-0.0038	-0.0128	-0.0068	58.2
-0.0023	-0.003	-0.0105	-0.0075	58.1
-0.0008	-0.0015	-0.0098	-0.0068	58.1
0	-0.0015	-0.0083	-0.0053	58
0	-0.0008	-0.003	-0.0068	57.9
-0.0008	0	-0.0038	-0.0068	57.8
-0.0008	-0.0008	-0.0038	-0.0053	57.8
-0.0008	0	-0.0046	-0.0053	57.7
0	0.0007	-0.0023	-0.0023	57.6
-0.0008	0.0022	0.0007	-0.0023	57.6
0	0.0015	0.0007	-0.0015	57.5
-0.0008	0.0015	0.0007	-0.0008	57.4
-0.0008	0.0015	0.0007	-0.0023	57.3
0.0007	0.0007	0.0007	-0.0015	57.2
0.0007	0	0	-0.0008	57.1
0.0015	0.0015	0.003	0	57.1
0.0015	0.003	0.0045	0.0007	57
0.0007	0.003	0.0045	0.0007	56.9
0.0007	0.0037	0.0067	0.0007	56.8
0.0015	0.0015	0.0052	0.0007	56.8
0.0015	-0.0008	0.0045	0.0015	56.7
0.0015	-0.0015	0.0007	0.0015	56.6
0.0015	-0.003	-0.0023	0.0015	56.5
0	-0.0038	-0.003	0.0015	56.4
0.0007	-0.003	-0.0046	0.0007	56.3
-0.0015	-0.0023	-0.0053	0.0022	56.2
-0.0015	0.0007	-0.0083	0.003	56.1
-0.0008	0.0007	-0.0083	0.003	56
-0.0008	0	-0.0091	0.0052	55.9
-0.0008	0	-0.0075	0.0052	55.8
-0.0015	-0.0008	-0.0068	0.0045	55.7
-0.0008	-0.0008	-0.0083	0.0045	55.6
0.0007	0	-0.0068	0.0052	55.5
-0.0008	0.0015	-0.0038	0.0045	55.4
0.0007	0.0007	0.003	0.0045	55.3
0.0007	0	0.0045	0.0045	55.2
0.0007	-0.0023	0	0.003	55.1
0.0015	-0.0015	-0.0008	0.003	55
0.0015	0	-0.0008	0.0015	54.9
0.0022	-0.0015	-0.0015	0.0007	54.8
0.0015	-0.0023	-0.0015	0.0007	54.6
0.0007	-0.0046	0.0007	0.0007	54.5
0.0022	-0.0023	0.0015	0.0015	54.4
0.003	0	0.0007	0.003	54.2
0.0022	0.0007	0.0015	0.0022	54
0.0015	0.0015	0.0037	0.0007	53.8
0.0015	0.0007	0.0015	0.0007	53.6
0.0007	0.0007	0.0007	0.0015	53.5
-0.0015	0	0.0037	0.0015	53.3
0.0007	0.0007	0.003	0.0022	53.1
0.0007	0.0015	0.0037	0.0015	53
0.0007	0.0015	0.0052	-0.0008	52.8
-0.0008	0.0045	0.0037	-0.0008	52.6
-0.0008	0.0052	0.003	-0.0015	52.5
0	0.0022	0.0022	-0.003	52.3
-0.0008	0.0015	0.0007	-0.0015	52.2
0	0.0015	-0.0008	-0.0008	52
-0.0008	0.0007	-0.0023	-0.0015	51.8
0.0015	0.0015	-0.0023	-0.0008	51.6
0.0007	0.0015	-0.0023	0.0007	51.5
0.0007	0.0022	-0.003	-0.0008	51.3
0.0015	0.0015	-0.0015	-0.0015	51.1
0.0015	0.0015	-0.003	-0.003	50.8
-0.0008	0.0022	-0.003	-0.0038	50.6
-0.0008	0.0022	-0.0008	-0.003	50.4
0.0007	0.003	-0.0008	-0.0008	50.2
0.0007	0.003	-0.0023	-0.0008	49.9
0.0022	0.0022	-0.0008	-0.0015	49.7
0.0015	0.0015	-0.0008	-0.0015	49.5
-0.0008	0.003	-0.0015	0.0007	49.3
-0.0008	0.0052	-0.003	0.0015	49
-0.0015	0.003	-0.0053	0.0007	48.8
-0.0023	0.0015	-0.0046	0.0007	48.6
-0.0015	0.003	-0.0053	-0.0008	48.3
-0.0008	0.003	-0.0053	-0.0008	48.1
0	0.0015	-0.0053	0	47.9
-0.0008	0.003	-0.0038	-0.0015	47.6
-0.0015	0.0045	0	-0.0015	47.4
-0.0015	0.003	-0.0023	-0.003	47.2
-0.0008	0.0022	-0.0015	-0.0046	47
-0.0008	0.0022	-0.0008	-0.006	46.7
-0.0008	0.0007	0	-0.0075	46.5
0.0007	0.0015	0.0015	-0.0038	46.2
0.0015	0	0.0045	-0.003	45.9
0.0015	-0.0015	0.0037	-0.003	45.6
0.0007	-0.003	0.0037	-0.0075	45.4
0	-0.0038	0.003	-0.0053	45.1
0.0007	0.0007	0.003	0.0022	44.8
0	0.0022	0.003	0.0045	44.5
0	-0.003	0.0015	0.003	44.3
-0.0008	-0.003	0.003	0.0037	44
-0.0008	-0.0015	0.0007	-0.0023	43.7
-0.0008	-0.0023	0.0007	-0.0128	43.4
-0.0008	-0.0008	0.0045	-0.012	43.1
-0.0008	0.009	0.0022	-0.0015	42.9
0.0007	0.0157	0.0037	0.015	42.6
0.0007	0.009	0.003	0.033	42.3
0	0.0052	0.003	0.0367	42
-0.0008	0.0007	0.0037	0.0157	41.8
-0.0008	-0.0091	0.003	-0.003	41.5
-0.0008	-0.0128	0.0052	-0.0008	41.2
0.0007	-0.0128	0.0045	-0.0023	40.9
0.0007	-0.0083	0.0052	-0.0023	40.6
0	-0.0053	0.0082	-0.0015	40.2
0.0007	-0.0023	0.0082	-0.003	39.9
0.0015	0	0.0067	-0.0038	39.6
0.0022	0.0022	0.0052	-0.0098	39.2
0.003	0.006	0.006	-0.0143	38.9
0.0022	0.0127	0.0015	-0.0218	38.6
0.0007	0.0217	0.0007	-0.0195	38.3
0.0007	0.0172	-0.0015	-0.0023	37.9
-0.0008	0.0037	-0.0038	0.0067	37.6
-0.0008	-0.0023	-0.003	0.0172	37.3
0.0007	-0.0015	-0.0015	0.0292	37
-0.0008	-0.003	0.0022	0.0255	36.7
-0.0008	-0.0015	0.0037	0.0052	36.3
0.0007	-0.0015	0.003	-0.0068	36
0.0015	0	0.0045	-0.0038	35.7
0.0015	0.003	0.0067	-0.0015	35.3
0.0015	-0.0053	0.0052	0.0082	35
0.0015	-0.0083	0.0052	0.0165	34.6
0.0015	0.0045	0.0045	0.009	34.3
0.0015	0.003	0.0007	-0.0068	34
0.0007	-0.0083	0.0015	-0.0143	33.6
-0.0008	-0.0075	0.0015	-0.0105	33.3
-0.0008	-0.006	-0.0015	-0.0008	32.9
-0.0008	0.009	-0.0015	0.0165	32.6
0	0.015	-0.003	0.0217	32.2
0	-0.0023	-0.003	0.0082	31.9
0.0007	-0.0053	0	0.003	31.5
0.0007	0.0007	0.0015	0.0015	31.1
0.0007	0.0007	0	0.0015	30.8
0	0.0007	0	0.0007	30.5
0.0007	-0.0008	0.0007	-0.0046	30.1
0.0007	-0.003	0.0015	-0.0128	29.7
0.0015	-0.0046	0.0007	-0.0233	29.4
0	-0.006	-0.0008	-0.0308	29
0.0007	-0.0038	-0.0015	-0.03	28.7
0	-0.0038	-0.0038	-0.0233	28.3
-0.0008	-0.0015	-0.003	-0.003	28
0.0015	0.0007	-0.003	0.0172	27.6
0.0007	0.0007	-0.003	0.0255	27.3
0.0007	0.003	0.0022	0.0397	27
0.0007	0.0015	0.0037	0.0487	26.6
0.0007	0	0.0045	0.0315	26.3
0.0007	-0.0015	-0.0008	0.0022	26
0.0007	-0.0023	-0.0023	-0.027	25.6
0.0015	-0.0023	-0.006	-0.033	25.3
0.0015	-0.003	-0.0091	-0.03	25
0.003	-0.0008	-0.0083	-0.0218	24.6
0.003	0.0007	-0.0068	-0.0023	24.3
0.0015	0.0022	-0.003	0.0195	24
0.003	0.003	-0.003	0.0292	23.6
0.0015	0.0015	-0.0015	0.0097	23.3
0.0015	-0.003	0.0015	-0.0046	22.9
0.0015	-0.003	0.003	-0.0015	22.6
0.0015	-0.0015	0.0037	-0.003	22.3
0.0015	-0.003	0.0022	-0.0038	22
-0.0008	0.0007	-0.0015	0.0045	21.6
0.0007	0.0105	-0.0046	0.0202	21.3
-0.003	0.0097	-0.0068	0.003	20.9
-0.0068	-0.0008	-0.0075	-0.027	20.7
-0.0091	0.0015	-0.0075	-0.021	20.3
-0.012	0.0067	-0.0046	-0.006	20
-0.0098	0.006	0.0007	0.0067	19.6
-0.003	0.0045	0.0022	0.0007	19.3
0.0007	-0.0015	0.006	-0.0158	18.9
0	-0.0046	0.0105	0.003	18.6
0.0007	-0.0008	0.0135	0.0472	18.3
0.0022	0.0052	0.0112	0.0517	18
0.0045	0.0015	0.0067	0.0037	17.6
0.003	-0.003	-0.0015	-0.0113	17.3
0.0007	-0.0038	-0.012	-0.0091	17
-0.003	-0.0046	-0.015	-0.024	16.6
-0.0008	-0.003	-0.0158	-0.015	16.3
-0.0008	-0.0008	-0.0128	-0.0008	15.9
0.0007	0.0045	-0.0128	0.0015	15.6
-0.0015	0.006	-0.012	-0.0053	15.3
-0.0038	0.0052	-0.0113	-0.0113	14.9
-0.003	0.0052	-0.0068	-0.0083	14.6
-0.0015	0.0052	0.0105	0.0045	14.2
-0.0008	0.003	0.033	0.0052	13.9
0.0015	-0.0008	0.0345	-0.0143	13.6
0.0052	-0.003	0.0285	-0.027	13.2
0.009	-0.0075	0.0232	-0.0181	12.9
0.0105	-0.0091	0.0052	0.006	12.6
0.009	-0.0053	-0.0068	0.0172	12.2
0.0165	-0.0046	-0.0135	0.0315	11.9
0.0285	0.0007	-0.006	0.0277	11.6
0.0307	0.0127	0.0067	-0.0053	11.2
0.0367	0.03	0.0045	-0.0383	10.9
0.042	0.0315	0.0007	-0.0675	10.5
0.027	0.0232	-0.0053	-0.06	10.2
-0.0038	0.0285	-0.0113	-0.039	9.9
-0.033	0.0105	-0.0143	-0.0165	9.5
-0.0428	-0.0075	-0.0165	0.0187	9.2
-0.027	-0.0128	-0.0158	0.0652	8.9
-0.03	-0.0203	-0.0143	0.0765	8.5
-0.0495	-0.021	-0.0128	0.0412	8.2
-0.0608	-0.024	-0.0128	0.0082	7.9
-0.0593	-0.024	-0.012	-0.0315	7.5
-0.0458	-0.0308	-0.0075	-0.0353	7.2
-0.042	-0.0195	0.0015	-0.0436	7
-0.0315	0.0105	0.006	-0.054	6.7
-0.0046	0.0127	-0.0098	-0.0293	6.5
0.0232	-0.0105	-0.0098	-0.021	6.3
0.0405	-0.0315	0.0082	0.0045	6
0.0382	-0.0436	0.006	0.0195	5.8
0.0367	-0.0436	-0.0023	-0.0008	5.5
0.036	-0.0465	-0.0083	-0.0181	5.3
0.0442	-0.0405	-0.0143	0.0007	5
0.0547	-0.0218	-0.0158	0.0157	4.7
0.057	-0.0128	-0.0263	-0.0135	4.5
0.0502	0.0007	-0.0293	-0.0053	4.2
0.027	0.021	-0.0195	0.0165	4
-0.003	0.063	-0.0135	0.042	3.7
-0.0315	0.1237	-0.0113	0.0607	3.5
-0.0563	0.1027	-0.0105	0.036	3.2
-0.057	0.0367	0.0015	0.0165	3
-0.0375	0.0382	0.0157	0.0105	2.7
-0.0248	0.0322	0.0232	0.0127	2.4
-0.0098	0.0202	0.0315	-0.0091	2.3
-0.0015	-0.0053	0.0142	-0.0368	2.2
-0.0023	-0.0375	-0.0038	-0.0578	2
0	-0.0218	-0.0165	-0.054	1.9
0.0045	-0.0181	-0.021	-0.0195	1.7
0.0127	-0.0098	-0.0053	-0.0046	1.6
0.012	-0.0068	0.0045	0.0217	1.4
0.0157	-0.0008	0.0232	0.0465	1.3
0.0195	0.0382	0.0352	0.057	1.1
0.024	0.069	0.0405	0.0615	1
0.0292	0.0592	0.0495	0.0427	0.9
0.0255	0.0345	0.0585	0.0157	0.7
0.0142	0.0105	0.0615	-0.012	0.5
-0.0015	-0.0053	0.0547	-0.0165	0.4
-0.0165	-0.0053	0.0525	-0.021	0.2
-0.0293	-0.0173	0.0547	-0.021	0.1
-0.0293	-0.0203	0.0495	-0.0105	0
-0.0233	-0.0195	0.0442	-0.0068	-0.2
-0.0195	-0.0181	0.0525	-0.0023	-0.4
-0.0165	-0.0195	0.0525	-0.0091	-0.5
-0.0008	-0.0256	0.0382	-0.0143	-0.7
0.024	-0.024	0.0217	-0.0143	-0.9
0.048	-0.0165	0.0045	-0.0091	-1
0.0607	-0.006	-0.0083	-0.0068	-1.2
0.0495	-0.0075	-0.0158	-0.012	-1.4
0.0277	-0.0091	-0.0165	-0.0105	-1.5
-0.0008	-0.0091	-0.0128	-0.0068	-1.7
-0.024	-0.0053	0.0022	0.0007	-1.9
-0.0346	-0.0023	0.0195	0.0067	-2.1
-0.0315	-0.0105	0.0112	0.0097	-2.3
-0.0225	-0.015	0.0015	0.0135	-2.4
-0.0135	-0.0091	-0.0023	0.0082	-2.6
-0.0091	-0.0083	-0.0203	-0.0083	-2.8
-0.0083	-0.024	-0.0405	-0.0225	-3
-0.0098	-0.0353	-0.0503	-0.0308	-3.2
-0.0135	-0.0346	-0.0578	-0.0353	-3.3
-0.012	-0.0315	-0.0578	-0.0278	-3.5
-0.0053	-0.0405	-0.0511	-0.0143	-3.6
0.0022	-0.0308	-0.0413	0.0045	-3.8
0.012	0.0052	-0.0315	0.033	-4.1
0.0277	0.0015	-0.0338	0.0345	-4.1
0.0315	-0.0405	-0.024	-0.0008	-4.2
0.024	-0.03	-0.0098	-0.0143	-4.3
0.0277	0.0097	0.0037	0.0135	-4.5
0.0292	0.0442	0.0142	0.057	-4.5
0.0052	0.063	0.0105	0.0682	-4.6
0.0045	0.0427	0.0052	0.0675	-4.8
0.045	0.0397	0.0022	0.078	-4.9
0.0607	0.0247	0.0052	0.0802	-5
0.057	0.0345	0.0045	0.0772	-5.1
0.0187	0.0495	0.0052	0.054	-5.2
-0.0615	0.027	0.0052	0.0255	-5.3
-0.123	0.0712	0.003	0.0052	-5.4
-0.126	0.0892	-0.0008	-0.0098	-5.5
-0.0668	0.0352	-0.006	-0.0225	-5.6
-0.0038	0.009	-0.0038	-0.027	-5.7
0.012	-0.0158	-0.0046	-0.0293	-5.9
0.0067	-0.0361	0	-0.0383	-5.9
-0.0053	-0.0195	0.0037	-0.0428	-6.1
-0.0383	-0.0203	0.0127	-0.039	-6.2
-0.0638	-0.0315	0.0277	-0.027	-6.2
-0.054	-0.0353	0.0232	-0.0173	-6.1
-0.024	-0.0338	-0.0008	-0.0128	-6
-0.0053	-0.0068	-0.024	-0.0091	-5.9
0.0187	-0.0053	-0.0443	-0.0083	-5.9
0.039	-0.0233	-0.0645	-0.0053	-5.8
0.0337	-0.0165	-0.078	-0.0068	-5.8
0.03	0.0067	-0.078	-0.0105	-5.7
0.03	0.0345	-0.0533	-0.0143	-5.6
0.0277	0.0345	-0.0518	-0.0233	-5.5
0.018	0.003	-0.0585	-0.0256	-5.5
0.0135	-0.0165	-0.0548	-0.0195	-5.4
0.0217	-0.0218	-0.0533	-0.012	-5.4
0.0337	-0.027	-0.0368	-0.0053	-5.3
0.0367	-0.03	-0.0181	0.0007	-5.2
0.0352	-0.0315	-0.0008	0.0082	-5.2
0.0315	-0.0173	0.0075	0.0075	-5.1
0.003	-0.0015	0.0142	-0.003	-5
-0.0346	0.0052	0.027	-0.003	-5
-0.0383	0.0082	0.0517	-0.0023	-4.9
-0.0233	0.0045	0.0645	-0.0008	-4.7
-0.0188	0.0052	0.057	0.0045	-4.5
-0.0158	0.0045	0.048	0.003	-4.2
-0.0091	0.0082	0.033	0.0037	-4
0.021	0.0172	0.0225	0.003	-3.8
0.021	0.0187	0.0217	-0.0008	-3.6
-0.0285	0.0067	0.0165	-0.0075	-3.4
-0.054	-0.0008	0.0052	-0.0113	-3.2
-0.0353	-0.0015	-0.0113	-0.0128	-2.9
-0.0008	-0.012	-0.0165	-0.012	-2.7
0	-0.0083	-0.0083	-0.0068	-2.5
-0.003	0.003	-0.0015	-0.0023	-2.3
-0.0075	0.0015	-0.0068	0.0052	-2
-0.0135	-0.003	-0.0135	0.0157	-1.8
-0.006	-0.003	0.003	0.0135	-1.6
-0.003	0.0067	0.0142	-0.0023	-1.4
0.0097	0.0112	0.003	-0.0083	-1.2
0.0165	0.0067	-0.003	0.003	-0.9
0.018	0.0105	-0.0143	0.0045	-0.7
0.0232	0.0165	-0.021	0.0007	-0.5
0.0307	0.0277	-0.027	0.0045	-0.3
0.0307	0.0382	-0.0278	0.0097	-0.1
0.027	0.024	-0.0203	0.0052	0.1
0.027	0.0015	-0.0181	0.0037	0.3
0.0142	-0.0195	-0.0091	0.003	0.5
0.0127	-0.0405	0.0082	-0.0046	0.7
0.018	-0.0368	0.009	-0.0038	0.9
0.0292	-0.0188	-0.003	-0.006	1
0.0457	-0.0015	-0.0015	-0.0083	1.3
0.0315	0.0082	0.0052	-0.0015	1.4
-0.0068	0.0052	0.0075	0.0052	1.6
-0.0503	0.0007	0.003	-0.0008	1.8
-0.075	-0.0015	0.0007	-0.0225	2
-0.048	-0.0038	0.0052	-0.0405	2.2
-0.0083	-0.0008	0.0052	-0.0405	2.4
-0.0053	-0.0038	0.003	-0.0315	2.6
-0.0083	-0.0068	0.0007	-0.0181	2.8
-0.012	-0.0008	-0.0098	0.0202	3
-0.0083	0.006	-0.027	0.0615	3.2
0.0127	0.012	-0.0181	0.0787	3.4
0.036	0.0247	0.012	0.0862	3.3
0.063	0.033	0.0285	0.072	3.3
0.0682	0.0277	0.0375	0.0405	3.2
0.0577	0.0217	0.0412	0.0082	3.1
0.0457	0.0015	0.0435	-0.0068	3.1
0.0277	-0.0368	0.03	-0.0046	3
0.0345	-0.042	0.018	-0.0098	2.9
0.0727	-0.0083	0.0307	-0.0173	2.9
0.12	0.0075	0.0345	-0.024	2.8
0.1035	0.0015	0.0442	-0.0263	2.7
-0.0315	-0.0053	0.0322	-0.024	2.6
-0.222	-0.0165	0.0157	-0.027	2.6
-0.3255	-0.0105	-0.0038	-0.0263	2.5
-0.2761	-0.0135	-0.0256	-0.0263	2.4
-0.15	-0.0143	-0.024	-0.0203	2.4
-0.0465	-0.0053	-0.0256	-0.0128	2.3
-0.006	-0.0053	-0.0075	-0.0143	2.2
-0.0008	0.0007	0.0067	-0.0105	2.2
0.0165	0.0007	0.0075	-0.0091	2.1
0.021	0.0052	-0.0046	-0.0091	2
0.0307	0.0082	0.0015	-0.0091	2.1
0.0412	0.0052	0.0075	-0.0068	2.2
0.042	0.0067	-0.0075	-0.0053	2.4
0.0457	0.0082	-0.0068	-0.0098	2.5
0.0397	0.0157	-0.0046	-0.0098	2.6
0.0285	0.009	0.0037	-0.0091	2.7
0.0292	0.0007	0.006	-0.0053	2.9
0.0382	-0.0015	-0.0015	-0.003	3
0.0307	-0.0038	-0.0083	0.0015	3.1
0.0247	-0.0046	-0.0158	0.018	3.3
0.0195	-0.0046	-0.015	0.0217	3.4
0.0082	0	-0.0165	0.0142	3.5
0.0052	0.0082	-0.0113	0.009	3.6
0.0105	0.0142	-0.0083	0.0022	3.8
0.0105	0.0195	-0.012	0.009	3.9
0.0105	0.0142	-0.006	0.012	4
0.015	0.0045	-0.0015	0.0097	4.1
0.012	-0.0015	-0.0008	0.012	4.3
0.0097	-0.0046	-0.0046	-0.0015	4.4
0.0097	-0.003	-0.006	-0.0091	4.5
0.0082	-0.0038	0.0045	-0.0128	4.6
0.012	-0.0008	0.015	-0.0203	4.8
0.012	0.0015	0.0127	-0.0158	4.9
0.0097	0.0015	0.0097	-0.006	5
0.0082	-0.0008	0.0135	0.0052	5.1
0.0075	-0.0015	0.0172	0.0135	5.2
0.009	-0.0015	0.0217	0.027	5.3
0.006	-0.0008	0.0165	0.0352	5.4
-0.0023	0.0022	0.0082	0.0172	5.5
-0.0218	0.0015	0.0187	0.0007	5.7
-0.0383	-0.0015	0.048	-0.003	5.8
-0.0315	-0.0015	0.057	-0.0083	5.8
-0.0225	-0.0008	0.0345	-0.0023	6
-0.0105	0.0067	-0.0495	0.0052	6.1
0.0007	0.0217	-0.1696	0.006	6.2
0.0172	0.0097	-0.162	0.0052	6.3
0.0502	-0.0053	-0.0608	0.0045	6.4
0.0907	0.006	0.0442	0.0052	6.5
0.1282	-0.0015	0.1162	0.0067	6.7
0.1162	-0.0195	0.141	0.0082	6.7
0.0472	-0.0413	0.1522	0.0052	6.8
-0.0113	-0.0503	0.1237	-0.0015	6.9
-0.0293	-0.0038	0.0585	-0.0046	7
-0.0105	0.0457	0.0105	-0.0068	7.1
0.0217	0.0427	0.0112	-0.0098	7.2
-0.0315	0.0157	0.0465	-0.0075	7.2
-0.1073	0.0045	0.0615	-0.0015	7.3
-0.0915	0.0105	0.0232	0.003	7.4
-0.078	0.021	-0.0091	0.003	7.4
-0.0405	0.0045	-0.006	0.0007	7.5
0.021	-0.0068	-0.0233	-0.003	7.6
0.0135	0.0075	-0.0548	0.0007	7.6
0.0247	0.0142	-0.0645	0	7.7
0.0202	0.0007	-0.078	-0.0008	7.8
-0.0488	-0.0083	-0.0615	0.0015	7.9
-0.1103	-0.0188	-0.0436	0	8
-0.1118	-0.033	-0.0465	0.003	8.1
-0.0645	-0.0308	-0.0383	0.0052	8.1
-0.003	-0.0361	-0.0346	0.0015	8.2
0.0337	-0.0285	-0.0203	0.0007	8.3
-0.0075	-0.0008	-0.03	0.0037	8.3
0.0232	0.012	-0.024	0.003	8.2
0.0412	0.0082	-0.0143	0.0022	8.2
0.024	0.0037	-0.0225	0.003	8.1
0.0457	0.0022	-0.0135	0.0015	8.1
0.0142	0.0045	-0.0105	0.003	8.1
-0.0046	0.0037	-0.0105	0.0007	8
-0.0375	0.0052	-0.012	-0.003	8
-0.0278	0.0045	-0.0068	-0.0046	7.9
-0.0023	0.0022	-0.0015	-0.0038	7.8
-0.0038	0.003	-0.0023	0.0015	7.8
0.0157	0.003	-0.0053	0.0037	7.7
0.015	0.0045	0.0022	0.0045	7.7
0.0232	0.0045	0.015	0.0067	7.6
0.0195	0.0052	0.0142	0.0052	7.6
0.0202	0.0052	0.0112	0.0052	7.6
0.024	0.0105	0.0007	0.0082	7.5
0.0277	0.0232	-0.0165	0.0045	7.5
0.0352	0.0202	-0.0233	-0.003	7.4
0.0352	0.0082	-0.0263	-0.0023	7.3
0.0412	-0.0046	-0.033	-0.0008	7.4
0.0277	-0.0128	-0.0308	-0.0023	7.4
-0.0113	-0.015	-0.0143	-0.0008	7.5
-0.0728	-0.0105	0.0022	0.0015	7.6
-0.0818	-0.0038	0.018	0	7.6
-0.0503	0.009	0.03	-0.0068	7.7
-0.057	0.0195	0.0307	-0.0091	7.7
-0.0405	0.0157	0.0397	-0.003	7.8
-0.0068	0.0105	0.051	-0.0038	7.8
0.0007	-0.0015	0.0427	-0.0046	7.9
-0.003	-0.0188	0.0217	-0.0053	8
0.0082	-0.0143	0.0112	-0.0053	8
0.0292	0	0.0202	-0.0053	8.1
0.024	-0.006	0.039	-0.006	8.1
0.0067	-0.012	0.048	-0.006	8.2
0.0052	-0.012	0.0375	-0.006	8.2
0.003	-0.0105	0.0255	-0.003	8.3
-0.0068	-0.0038	0.0105	0	8.4
-0.0083	-0.0015	-0.0083	0	8.4
-0.0008	0.0037	-0.0188	0.0007	8.5
0.0165	0.0082	-0.0128	-0.0023	8.5
0.042	0.0135	-0.0075	-0.0046	8.5
0.0682	0.0225	-0.003	-0.003	8.5
0.0607	0.021	0.0015	-0.0023	8.5
0.0097	0.012	-0.0038	-0.003	8.5
-0.0008	0.0052	-0.003	-0.003	8.5
0.0352	0.0015	0.006	-0.0023	8.5
0.057	-0.0046	0.015	-0.0015	8.5
0.0457	-0.006	0.0082	-0.0015	8.5
-0.0203	-0.0046	0	-0.0015	8.5
-0.0443	-0.0053	-0.0015	-0.003	8.5
-0.0188	-0.0053	-0.0046	-0.003	8.5
-0.0361	-0.0053	-0.0091	-0.0015	8.5
-0.0315	-0.0046	-0.0158	-0.0015	8.5
-0.024	-0.0038	-0.0165	-0.0015	8.5
-0.0195	-0.0046	-0.0165	-0.0015	8.5
-0.0075	-0.003	-0.012	-0.0038	8.6
-0.0075	-0.0038	-0.0083	-0.0068	8.6
-0.0008	-0.0046	-0.0083	-0.0068	8.6
-0.006	-0.0046	-0.0075	-0.0113	8.6
-0.003	-0.003	-0.0053	-0.0143	8.6
0.0007	-0.0015	0	-0.0046	8.6
0.0015	-0.0008	0.0022	0.0067	8.6
0.0045	0.0015	0.0015	0.0045	8.6
0.0045	0.0007	0.003	0.006	8.6
0.0142	0.0015	0.003	0.0157	8.6
0.0127	0.0015	-0.0015	0.0202	8.6
0.0052	0.0022	-0.0053	0.024	8.6
0.0015	0.003	-0.003	0.0307	8.6
-0.0008	0.0015	0.0007	0.0292	8.6
-0.0008	0.0045	0.0007	0.009	8.6
-0.003	0.0007	-0.0023	-0.0128	8.6
-0.0038	-0.0038	-0.0038	-0.0158	8.6
-0.0015	-0.0046	-0.0046	-0.012	8.6
0.003	0.0015	-0.0053	-0.0046	8.6
0.0127	0.0015	-0.003	0.0037	8.6
0.0142	-0.003	-0.003	0.0067	8.6
0.0127	-0.003	-0.012	0.0067	8.6
0.0127	0.0007	-0.0256	-0.0015	8.6
0.0127	0.0187	-0.0225	-0.0053	8.6
0.012	0.0322	-0.0218	-0.003	8.6
0.0052	0.027	-0.0203	-0.0046	8.6
0.0015	0.003	-0.0075	-0.003	8.5
-0.0008	-0.0173	0.0045	-0.003	8.5
-0.0105	-0.0083	0.0127	-0.0046	8.5
-0.0353	-0.0068	0.0157	-0.003	8.5
-0.0645	-0.0068	0.0165	-0.0015	8.5
-0.042	0.0052	0.0262	0.0007	8.5
-0.0203	0.0045	0.048	0.0022	8.5
-0.0398	-0.003	0.0472	-0.0008	8.4
-0.057	-0.0075	0.027	-0.0008	8.4
-0.0503	-0.0091	0.0172	-0.003	8.4
0	-0.0053	-0.0015	-0.0053	8.3
0.0255	0	-0.0105	-0.0023	8.3
0.042	0.0045	-0.0083	-0.0015	8.3
0.0705	-0.0015	-0.0008	-0.0008	8.3
0.0667	-0.006	0.0015	-0.0008	8.3
0.0502	-0.0023	0.0142	-0.0008	8.2
0.027	0.003	0.0232	0.0015	8.2
0.0135	0.015	-0.0068	0.0015	8.1
-0.0105	0.0127	-0.0278	0.0052	8.1
-0.012	0.006	-0.045	0.0105	8.1
-0.0128	0.0007	-0.0443	0.0142	8.1
-0.0473	-0.0075	-0.0308	0.0127	8.1
-0.0368	-0.0105	-0.0225	0.009	8
-0.012	-0.0083	-0.0091	0.009	8
-0.003	0.0142	-0.0068	0.0082	7.9
0.0007	0.0277	-0.0075	0.0067	7.9
-0.0008	0.018	-0.0068	0.0052	7.8
0.0045	0.0037	-0.0113	0.0052	7.8
0.0045	-0.012	-0.0143	0.0045	7.8
0.009	-0.0203	-0.0023	0.0045	7.7
0.0105	-0.0293	0.0045	0.003	7.7
0.009	-0.0323	0.009	0.003	7.6
0.0015	-0.0083	0.0187	0.0037	7.6
-0.0233	0.0075	0.018	0.0015	7.6
-0.0323	0.0052	0.012	-0.0008	7.6
-0.0203	0.006	0.0045	-0.0008	7.5
-0.0091	0.006	-0.0015	-0.0046	7.5
-0.0068	0.0067	-0.0068	-0.0046	7.4
-0.0091	0.006	-0.0068	-0.0046	7.4
-0.012	0.0067	-0.003	-0.0053	7.4
-0.0075	0.0067	0.0007	-0.0053	7.3
0.0142	0.0052	0.0045	-0.0053	7.3
0.0405	0.0067	0.0075	-0.0046	7.3
0.042	0.0067	0.0037	-0.0053	7.3
0.0367	0.006	0.0007	-0.0083	7.2
0.042	0.0045	0.0037	-0.0083	7.2
0.0525	0.003	0.009	-0.0083	7.2
0.0502	0.0007	0.0127	-0.0105	7.2
0.003	-0.0008	0.0082	-0.0105	7.2
-0.0195	-0.0008	0.006	-0.0091	7.1
-0.0015	-0.0008	0.0037	-0.0091	7.1
-0.0113	-0.0008	0.003	-0.0091	7.1
-0.0068	-0.0015	0.0007	-0.0068	7.1
-0.0053	-0.0008	-0.003	-0.0046	7
-0.0091	0	-0.0038	-0.0015	7
-0.0038	0.0015	-0.003	0.0015	7
-0.0068	0.0015	-0.0008	0.0022	7
-0.0053	0.0015	-0.0008	-0.0023	6.9
-0.0091	-0.0008	0.0015	-0.0083	6.9
-0.0068	-0.003	-0.006	-0.0053	6.9
-0.0053	-0.0053	-0.0128	-0.0038	6.9
-0.0083	-0.006	-0.0015	0.0015	6.8
-0.0135	-0.0046	0.012	0.0052	6.8
-0.0188	-0.003	0.0127	0	6.8
-0.0233	0.0007	0.0105	-0.0046	6.8
-0.0218	0.003	0.0082	-0.012	6.8
-0.0075	0.0022	0.0052	-0.012	6.7
-0.0046	0.0045	0.0052	-0.006	6.7
0.0007	0.0052	0.0045	0.0015	6.7
0.0082	0.0045	0.003	0.0082	6.7
0.0082	0.0007	0.0015	0.009	6.7
0.0052	0	0.0007	0.0082	6.7
0.006	-0.0008	-0.0008	0.0037	6.7
0.0067	-0.0023	-0.0008	0.003	6.7
0.0045	-0.0015	-0.003	0.0022	6.6
0.0037	0	-0.003	-0.0046	6.6
0.0022	0	-0.0015	-0.0053	6.6
0.0045	0.0015	-0.0015	-0.0053	6.5
0.0015	0.0007	-0.0015	-0.0091	6.5
0.0015	0.0015	-0.003	-0.0143	6.5
0.003	0	-0.003	-0.0158	6.5
0	-0.003	-0.0068	-0.0293	6.5
-0.003	-0.0091	-0.0083	-0.039	6.5
-0.0023	-0.0113	-0.0046	-0.0188	6.5
0.0045	-0.0008	-0.0023	0.0097	6.5
0.0037	0.0052	-0.0023	0.0285	6.5
0.0015	0.0045	0.0037	0.0495	6.4
0.003	0.0045	0.0082	0.0412	6.4
0.0007	0.0007	0.006	0.0015	6.4
0.0007	-0.003	0.009	-0.015	6.4
-0.0008	-0.0038	0.0067	-0.012	6.4
-0.0023	-0.0046	0.0015	-0.0008	6.4
-0.0023	-0.0046	0.0007	0.0165	6.3
-0.0023	-0.0015	0.003	0.0322	6.3
-0.0023	0.0015	0.003	0.033	6.3
-0.0068	0.0022	0.0045	0.0067	6.3
-0.0105	-0.0008	0.003	-0.0008	6.3
-0.0091	-0.0008	-0.0083	0.006	6.3
-0.0046	0.0022	-0.012	0.003	6.3
0.0015	0.0082	-0.0098	0.0037	6.3
0.0015	0.027	-0.0091	-0.0083	6.3
-0.006	0.0352	-0.0053	-0.0098	6.2
-0.0015	0.0202	0	-0.0113	6.2
0.0075	-0.0053	0.0037	-0.0143	6.2
0.0142	-0.0181	0.006	-0.0091	6.2
0.012	-0.012	0.003	-0.012	6.2
0.0067	-0.012	-0.003	-0.0098	6.1
0.0067	-0.006	-0.003	-0.0105	6.1
-0.0023	0.0015	0.0015	-0.0098	6.1
-0.0015	0.0007	0.006	-0.0075	6.1
0.0067	0.0037	0.0075	-0.0083	6.1
0.015	-0.0023	0.0082	-0.0053	6
0.027	-0.0068	0.0157	-0.0053	6
0.0217	-0.006	0.0142	-0.0038	6
0.012	-0.0015	0.0067	-0.0015	6
0.0157	0.0022	0.0075	0.0007	6
0.0217	0	0.009	0.0015	5.9
0.0082	0.0007	0.003	0.0015	5.9
-0.0083	-0.0008	-0.0083	0.0015	5.9
-0.0068	-0.0008	-0.0091	-0.0008	5.9
-0.015	-0.0008	-0.006	0.0015	5.9
-0.012	-0.0023	-0.0053	0.0037	5.8
-0.0091	-0.0008	-0.0053	0.0052	5.8
-0.0113	0.003	-0.0068	0.0097	5.8
-0.0075	0.0045	-0.0068	0.012	5.8
-0.0091	0.0037	-0.0068	0.0135	5.8
-0.0038	0.0052	-0.006	0.0165	5.8
-0.0046	0.0037	-0.0046	0.0172	5.7
-0.0053	0.0007	-0.0015	0.0172	5.7
-0.0053	0.0007	-0.0023	0.018	5.7
-0.0046	-0.0008	-0.0015	0.0157	5.7
-0.0038	-0.0008	-0.0008	0.0135	5.7
-0.003	0.0015	-0.003	0.0105	5.6
-0.0008	0.003	-0.0098	0.0052	5.6
-0.0046	0.0015	-0.0158	0.003	5.6
-0.0105	0.0007	-0.012	-0.0008	5.6
-0.0128	0.0015	-0.0046	-0.0038	5.5
-0.0105	0.0015	0.0015	-0.0008	5.5
-0.0128	0.003	0.0037	0.0007	5.5
-0.012	0.0045	0.0052	0.0007	5.5
-0.0091	0.0045	0.0037	-0.0008	5.5
-0.0068	0.0015	0.0007	0.0015	5.4
-0.0023	0	0.0015	0.0015	5.4
0.012	-0.0008	0.0007	-0.0008	5.4
0.0352	-0.0015	0.0022	-0.0008	5.4
0.0592	-0.0015	0.0045	-0.0015	5.3
0.051	-0.0008	0.0045	-0.0046	5.3
-0.0008	-0.0015	0.003	-0.0046	5.3
-0.0091	-0.0023	-0.0008	-0.006	5.3
-0.0015	-0.0008	-0.0023	-0.006	5.3
-0.0135	-0.0008	-0.0046	-0.006	5.3
-0.0068	0.0007	-0.0068	-0.0091	5.3
-0.0091	0.0015	-0.0083	-0.0128	5.2
-0.0008	0.0015	-0.0068	-0.0128	5.2
0.006	0.0015	-0.006	-0.0091	5.2
0.003	0	-0.006	-0.0105	5.2
0.0015	-0.0008	-0.0053	-0.0143	5.1
-0.0046	-0.0015	-0.0068	-0.0128	5.1
-0.0015	-0.0023	-0.0105	-0.0091	5.1
-0.0053	-0.0023	-0.0091	-0.0083	5
-0.0015	-0.0015	-0.0091	-0.0053	5
-0.0015	0	-0.0105	-0.0053	5
-0.0008	0.0015	-0.0158	-0.006	4.9
0.0015	0	-0.0173	-0.006	4.9
-0.003	0	-0.0203	-0.0038	4.9
-0.0038	0	-0.0203	-0.003	4.8
-0.0038	-0.0015	-0.0181	-0.0023	4.8
-0.0046	0.0007	-0.0248	0	4.7
-0.006	0.0015	-0.0338	-0.0008	4.7
-0.003	0.0007	-0.039	0.0007	4.7
0	0.0015	-0.042	0.0037	4.6
0.0067	0	-0.0413	0.003	4.6
0.015	0	-0.033	0.003	4.5
0.0135	0.0022	-0.0248	0.003	4.5
0.0067	0	-0.0181	0.003	4.5
0.0045	0.0007	-0.0113	0.003	4.5
-0.0113	0.0007	-0.0075	0.0045	4.4
-0.0143	-0.0008	-0.0008	0.0045	4.3
-0.0008	-0.0015	0.0052	0.003	4.3
-0.0015	-0.0008	0.0097	0.006	4.2
-0.0015	0	0.0157	0.0052	4.2
-0.0008	-0.0008	0.0195	0.003	4.1
-0.0008	0.0007	0.0165	0.0037	4
-0.0008	0.0007	0.0165	0.003	4
-0.0008	0.003	0.0202	0.003	4
0.0015	0.003	0.0225	0.003	3.9
0	0.0037	0.0232	0.003	3.8
0	0.0045	0.0232	0.003	3.8
0	0.003	0.0247	0.003	3.7
0	0.0015	0.0277	0.0052	3.6
-0.0008	0.0022	0.0277	0.0045	3.6
0.0007	0.003	0.027	0.0037	3.6
0.003	0.0015	0.0307	0.0022	3.5
0.003	0.0007	0.0292	0.0015	3.4
0.0022	0.0015	0.0292	0.0015	3.4
0.0015	0.003	0.0292	0.0045	3.3
0.0007	0.0015	0.0292	0.0045	3.2
0.0007	0.0015	0.0285	0.0045	3.1
0	0.003	0.024	0.0045	3.1
0.0015	0.003	0.0225	0.0045	3.1
0.003	0.0037	0.0195	0.0045	3.1
0	0.003	0.0165	0.0022	3
-0.0015	0.003	0.0135	0.003	2.9
0	0.0022	0.0112	0.0022	2.9
0.0015	-0.0015	0.009	0.0015	2.8
0.0037	-0.0008	0.0067	0.003	2.8
0.0052	0.0007	0.0052	0.0015	2.7
0.0082	-0.0015	0.006	-0.0008	2.7
0.0045	-0.0015	0.006	-0.0008	2.6
-0.0053	-0.0015	0.0052	0.0015	2.6
-0.015	-0.0008	0.0045	0.0015	2.6
-0.0158	0.0007	0.0022	0	2.5
-0.0068	0.0015	0.003	0.0007	2.4
0.0007	0.0022	0.003	0.0015	2.4
0.0022	-0.0008	0.0022	0.0007	2.3
0.0022	-0.0008	0.0015	0.0007	2.3
0.0022	-0.003	0.0007	0.0007	2.2
0.0007	-0.0015	-0.0008	0.0022	2.2
0.0007	-0.0008	-0.0015	0.003	2.2
0.0007	-0.0008	-0.0015	0.0015	2.1
0.0007	-0.0008	-0.0023	0.0007	2.1
0.0007	-0.0015	-0.0046	0.0007	2
0.0007	-0.0015	-0.0053	0	2
0.0015	-0.0015	-0.0053	-0.0008	2
0.0022	0	-0.003	-0.0015	1.9
0.0022	0	-0.0015	-0.003	1.9
0.0015	0	0	-0.0008	1.8
0.0007	0.0007	0.003	-0.0008	1.8
0.0007	0.0007	0.003	-0.0015	1.8
0.0015	0.0015	0.0022	-0.0023	1.7
0	0.0007	0.0045	-0.003	1.7
-0.0023	0.0015	0.0052	-0.0015	1.6
-0.0023	0.0022	0.006	-0.0008	1.6
-0.0015	0.0015	0.0067	-0.0008	1.6
-0.0015	0.0022	0.0067	-0.0015	1.5
0.0007	0.003	0.006	-0.003	1.5
0.0007	0.003	0.0015	-0.003	1.4
-0.0008	0.0007	-0.0023	-0.0046	1.3
-0.0015	0	-0.003	-0.003	1.3
-0.0023	-0.0008	-0.0046	-0.0023	1.3
-0.0015	-0.0008	-0.0068	-0.0023	1.3
-0.0008	0.0007	-0.0075	-0.0023	1.3
0	0.0007	-0.0053	-0.003	1.3
0.0015	0.0007	-0.0046	-0.0008	1.2
0.0007	-0.0008	-0.0046	-0.0008	1.2
0.0007	0	-0.0008	-0.0008	1.2
0.0007	-0.0008	0.0015	-0.0008	1.1
0	0	0.0022	-0.003	1.1
