File Name: 10Npie.log
Channel 1: 'RF', 36900 values, engineering units: mV, no filters.
Channel 2: 'BF', 36900 values, engineering units: mV, no filters.
Channel 3: 'VM', 36900 values, engineering units: mV, no filters.
Channel 4: 'ST', 36900 values, engineering units: mV, no filters.
Channel 5: 'FX', 1845 values, engineering units: deg, no filters, extrapolated from 50 to 1000 samples per second.

0.0022	0.0052	0.0007	0.0007	17
-0.0105	0.0255	-0.0053	-0.0046	17
-0.0158	0.0097	-0.0158	-0.0068	17
-0.0173	-0.021	-0.015	-0.006	17
-0.0053	-0.0068	-0.0053	-0.0038	17
0.0022	0.0052	-0.0015	-0.0008	17
0.0052	-0.0091	0.0052	0.0007	17
0.0045	-0.0046	0.0037	0.0007	17
0.003	-0.012	0.0015	-0.003	17
0.0037	-0.0203	0.003	-0.0053	17
0.0007	-0.0173	-0.0008	-0.0091	17
-0.0008	-0.0165	-0.0046	-0.0293	17
-0.0023	-0.0158	-0.003	-0.0578	17
-0.0008	-0.0105	0.0007	-0.054	17
0.0045	0.003	0.0015	-0.0248	17
0.0037	0.0045	0.0015	0.0007	17
0.0037	0.0067	0.006	0.0367	17
0.0045	0.003	0.0067	0.0525	17
0.0045	-0.0181	0.0082	0.0457	17
0.0052	-0.0128	0.0075	0.0502	17
0.006	0.0007	0.0052	0.0442	17
0.0052	0.0127	0.0082	0.0217	17
0.003	0.0292	0.0082	0.009	17
-0.0008	0.0097	0.003	0.0105	17
-0.0015	-0.0083	-0.0008	0.0112	17
-0.0023	0.024	-0.0015	0.0187	17
-0.0015	0.0622	-0.0046	0.018	17
0.0007	0.039	-0.0053	0.0045	17
0	-0.0046	-0.0053	-0.0046	17
-0.0008	-0.0046	-0.006	-0.0083	17
-0.003	-0.012	-0.0053	0.0045	17
-0.012	-0.0181	-0.0053	0.006	17
-0.0173	-0.0165	-0.0046	-0.006	17
-0.0091	-0.021	0	-0.0165	17
-0.0023	-0.0181	0.0045	-0.0315	17
-0.0008	-0.0218	0.0052	-0.033	17
0.0007	-0.012	0.0045	-0.0248	17
0.0022	0.0015	0.0007	-0.0195	17
0.0052	0.0045	-0.003	-0.0023	17
0.0037	-0.0015	-0.0083	0.0045	17
0.0045	-0.0008	-0.0105	-0.0083	17
0.0075	0.0157	-0.003	-0.0158	17
0.006	0.0315	0.0015	-0.0143	17
0.0045	0.0322	0.003	-0.0068	17
0.003	0.0202	0.0022	-0.0083	17
0.003	0.012	0	-0.0203	17
0.0007	0.003	-0.0015	-0.0105	17
0.0015	0.006	-0.0023	-0.0015	17
0.003	0.0135	0	0.0045	17
0	0.0082	0.0007	0.0127	17
0	-0.006	0.003	0.0082	17
0	-0.012	0.006	0.0075	17
0.0007	-0.0083	0.006	0.003	17
0.0007	-0.0075	0.0067	0.0015	17
0	-0.0046	0.006	0.003	17
0.0007	0.0052	0.0045	-0.0015	17
0	0.0037	0.0015	-0.0008	17
-0.0015	-0.0128	0.0015	-0.0008	17
-0.0023	-0.0158	0.0015	0.0015	17
-0.003	-0.0203	-0.0015	0.0045	17
-0.0038	-0.0188	-0.0046	0.0045	17
-0.003	-0.0173	-0.006	0.0075	17
-0.0038	-0.0188	-0.0075	0.0157	17
0	-0.0046	-0.0083	0.0127	17
0.003	0.0127	-0.0038	0.0007	17
0.0045	0.0187	-0.0008	-0.0091	17
0.0067	-0.0008	-0.0015	-0.0173	17
0.0075	-0.0098	0.0007	-0.012	17
0.012	-0.0038	0	-0.0068	17
0.012	0.003	-0.0083	-0.0105	17
0.0097	0.0015	-0.0098	-0.0083	17
0.006	-0.0046	0	0.006	17
0.0052	0.003	0.0067	0.0315	17
0.003	0.0165	0.0105	0.0442	17
0.0015	0.03	0.0112	0.0202	17
0.0015	0.012	0.0067	-0.0046	17
-0.0023	-0.006	0.006	-0.0083	17
-0.006	0.003	0.0045	-0.0165	17
-0.0135	0.0067	0.0007	-0.0195	17
-0.0225	0.0082	-0.0023	-0.012	17
-0.027	-0.0068	-0.0023	-0.0053	17
-0.0165	-0.0128	0.0007	0.0007	17
-0.0053	-0.003	0.003	-0.0023	17
0.0015	0.003	0.0045	-0.0015	17
0.0112	0.0105	0.006	0.0082	17
0.0172	0.0082	0.0052	0.0007	17
0.0202	0.012	0.0037	-0.0338	17
0.0255	0.0022	0.0015	-0.06	17
0.0255	-0.0233	0	-0.0495	17
0.018	-0.0375	0.0007	-0.0091	17
-0.0008	-0.0458	0	0.0412	17
-0.0353	-0.0458	-0.0015	0.0622	17
-0.048	-0.0293	-0.0015	0.0817	17
-0.0173	0.0157	-0.0046	0.0915	17
-0.0038	0.045	-0.0053	0.0525	17
-0.0046	0.045	-0.0053	0.0127	17
0.006	0.0787	-0.0046	-0.0098	17
0.0022	0.0592	-0.0023	-0.0195	17
0.0015	0.0127	0.0007	0.003	17
0.0015	0.0315	0.003	0.012	17
0.0015	0.0067	0.0007	-0.0105	17
0.003	-0.0105	0.0037	-0.0068	17
0.0015	-0.0046	0.0067	0.0015	17
0.003	-0.0195	0.0015	-0.0068	17
0.0037	-0.0158	-0.003	-0.0038	17
0.0045	-0.0105	-0.0008	-0.0008	17
0.0045	0.0105	0.0052	-0.0023	17
0.0045	0.0127	0.003	-0.012	17
0.0022	-0.0105	-0.0015	-0.0181	17
0.003	-0.0143	-0.0053	-0.0195	17
0.0022	-0.0083	-0.0091	-0.0165	17
0.0022	0.0022	-0.0068	-0.0038	17
0.0007	-0.0128	-0.006	-0.0083	17
-0.0023	-0.0315	-0.003	-0.0158	17
-0.0008	-0.0293	0.0007	-0.021	17
0	-0.0256	0.0037	-0.0278	17
0	0.0037	0.0052	-0.0263	17
0	0.0202	0.0067	-0.024	17
0.0015	0.009	0.0105	-0.0173	17
0.003	0.003	0.0082	-0.012	17
0.003	-0.0008	0.0045	0.0052	17
0.0045	0.0067	0.0045	0.0187	17
0.0052	0.0105	0.0007	0.0082	17
0.0007	-0.0053	-0.0023	-0.003	17
-0.012	-0.0015	-0.0053	-0.0008	17
-0.0181	0.0157	-0.0053	0.0067	17
-0.0068	0.0142	-0.0068	0.0112	17
-0.0015	0.0142	-0.012	0.0172	17
-0.0008	-0.0015	-0.0165	0.0142	17
-0.0008	-0.0218	-0.0128	0.0097	17
-0.0015	-0.0195	-0.012	0.0082	17
-0.0008	-0.0105	-0.0128	0.0007	17
-0.0038	0.0052	-0.003	-0.0008	17
-0.0015	0.0142	0.0045	0.0007	17
0.0007	0.0037	0.0127	0	17
0.003	-0.0195	0.0165	0.0007	17
0.0045	-0.0278	0.015	0.003	17
0.0045	-0.0105	0.0157	0.0045	17
0.0097	0.0112	0.0127	0.0022	17
0.0105	0.012	0.009	0	17
0.0075	0.0052	0.003	-0.003	17
0.0045	0	-0.0008	-0.0068	17
0.0045	0.0015	-0.0008	-0.0015	17
0.0045	0.0045	-0.0023	0.0082	17
0.0045	0.0082	-0.0046	0.0097	17
0	0.0045	-0.0053	0.0022	17
-0.0015	-0.0015	-0.0068	0.0007	17
-0.0015	0.0007	-0.0053	0.0015	17
-0.0038	-0.0015	-0.0038	-0.0008	17
-0.0008	0.0007	-0.0015	0.0015	17
0	0.0052	0	0.0015	17
0.0015	0.012	-0.0023	0.0015	17
0.0052	0.0082	-0.0068	0.0007	17
0.0052	-0.0053	-0.0158	-0.0046	17
0	-0.003	-0.0173	-0.0113	17
-0.0091	-0.0053	-0.0068	-0.0338	17
-0.015	-0.0083	0.0022	-0.057	17
-0.0068	-0.0091	0.0082	-0.042	17
0.0022	-0.0105	0.009	-0.0008	17
0.003	-0.0091	0.009	0.0277	17
0.0037	-0.0113	0.0105	0.0465	17
0.003	-0.0091	0.0112	0.054	17
0.003	0.0052	0.009	0.0555	17
0.0015	0.0285	0.0067	0.057	17
0.0015	0.0322	0.0105	0.0232	17
-0.0015	0.0202	0.0075	-0.0256	17
-0.0046	0.0112	0.0037	-0.0293	17
-0.0038	0.0127	0.003	-0.012	17
-0.0023	0.0127	0.003	-0.0203	17
-0.0008	-0.0023	0.003	-0.0233	17
-0.0015	-0.0105	0	-0.015	17
-0.0015	-0.0158	-0.0015	-0.012	17
-0.0008	-0.024	-0.0023	-0.0053	17
0	-0.0248	-0.0046	-0.003	17
-0.0008	-0.0203	-0.006	-0.0046	17
0.0015	-0.0053	-0.0053	0.0052	17
0.0082	0.0157	-0.003	0.0172	17
0.0082	0.0232	-0.0015	0.0075	17
0.0015	0.0225	-0.0015	0.0037	17
-0.0015	0.0127	-0.003	0.012	17
-0.003	-0.0091	-0.0046	0.0015	17
-0.0038	-0.0188	-0.003	-0.0053	17
-0.0023	-0.0195	0.0007	-0.0128	17
-0.0015	-0.0015	0.0052	-0.0158	17
-0.0008	0.0345	0.009	-0.0046	17
-0.003	0.0427	0.0082	0.0052	17
-0.006	0.0172	0.0052	0.0097	17
-0.0023	0.0217	0.0037	0.0142	17
0.0022	0.0337	0.0045	0.0165	17
0.0022	0.0052	0.0007	0.0075	17
0.0015	-0.003	-0.0046	0.0052	17
0.0037	0.003	-0.006	0	17
0.0067	-0.0015	-0.0091	-0.0091	17
0.012	-0.0143	-0.0083	-0.0091	17
0.0127	-0.0128	-0.0068	-0.0113	17
0.018	0.006	-0.0053	-0.0083	17
0.021	-0.003	-0.0091	-0.0038	17
0.021	-0.0278	-0.0173	-0.0023	17
0.0172	-0.0181	-0.0143	-0.0046	17
-0.0083	-0.0091	-0.003	-0.0068	17
-0.0503	-0.0105	0.0015	-0.0091	17
-0.063	-0.0046	0.0052	-0.012	17
-0.0256	-0.003	0.0105	-0.003	17
-0.0053	0.0015	0.009	-0.003	17
-0.0008	-0.0015	0.0082	-0.0075	17
0.003	-0.012	0.0067	0.0007	17
-0.0053	-0.024	0.0045	0.009	17
-0.0023	-0.0188	0.003	0.0157	17
-0.0046	-0.0015	-0.0008	0.0105	17
-0.0015	0.0165	-0.0046	-0.0008	17
0.0052	0.045	-0.003	-0.0008	17
0.0045	0.0472	0.0015	-0.0083	17
0.003	0.024	0.0015	-0.0233	17
0.0007	-0.0046	-0.0008	-0.0256	17
-0.0008	-0.0203	-0.003	-0.0338	17
0.0015	-0.0256	0.0007	-0.0375	17
0.009	-0.0225	0.003	-0.0135	17
0.0255	-0.0083	0.0052	0.0112	17
0.048	-0.0158	0.0067	0.033	17
0.0555	-0.012	-0.0038	0.0592	17
0.015	0.0082	-0.0128	0.069	17
-0.0308	0.0165	-0.0068	0.0585	17
-0.006	0.0217	0.0015	0.0232	17
0.0082	0.0105	0.0075	-0.0113	17
0.0015	-0.0038	0.0142	-0.0181	17
0.0075	-0.0083	0.0157	-0.0173	17
-0.0023	-0.0091	0.0142	-0.021	17
0	0.0067	0.009	-0.0195	17
-0.003	0.0097	0.0007	-0.0158	17
-0.0046	-0.0038	-0.0023	-0.0143	17
-0.0046	-0.0083	-0.0046	-0.0105	17
-0.0091	-0.0128	-0.0068	-0.0158	17
-0.0075	-0.0105	-0.0091	-0.0203	17
-0.0113	-0.0083	-0.0158	-0.003	17
-0.0188	0.0045	-0.0188	0.018	17
-0.0203	0.012	-0.0083	0.0232	17
-0.0053	-0.006	0.0067	0.0105	17
-0.0015	-0.0008	0.015	0.0067	17
-0.0046	0.0157	0.0165	0.0202	17
-0.003	0.0097	0.0142	0.0195	17
-0.0046	0.009	0.0105	0.0105	17
-0.0046	0.0037	0.003	-0.0023	17
-0.0068	0.0007	-0.0015	-0.0098	17
-0.0023	0.0045	-0.0046	-0.003	17
-0.0008	-0.003	-0.0053	-0.0083	17
0.0022	-0.0068	-0.0075	-0.0083	17
0.0067	-0.0105	-0.0053	-0.0091	17
0.003	-0.0091	0.0007	-0.012	17
0.0015	-0.0135	0.0007	-0.015	17
0.0022	-0.0195	-0.0023	-0.0278	17
0.0037	-0.0181	-0.003	-0.03	17
0.006	-0.0015	0.0007	-0.0218	17
0.0052	0.024	0.0015	-0.003	17
0.003	0.012	0.0007	0.0127	17
0.0022	0.0015	0.0022	0.0247	17
0.003	0.021	0.0022	0.0307	17
0.0052	0.0405	0.0015	0.0292	17
0.0075	0.051	-0.0023	0.0292	17
0.0067	0.0262	-0.003	0.0105	17
0.0052	-0.0053	0.0007	-0.0075	17
0.0045	-0.0098	-0.0015	-0.003	17
0.0067	-0.0143	-0.0098	-0.0038	17
0.0037	-0.0173	-0.0105	-0.0083	17
0.0007	-0.0195	-0.003	-0.015	17
0.0015	-0.0181	0.003	-0.0188	17
0.0015	-0.0083	0.0082	-0.0083	17
0.0022	-0.0053	0.0067	-0.0038	17
0.0037	-0.0128	0.0075	-0.0015	17
0.003	-0.0105	0.0067	-0.0038	17
-0.0083	-0.0091	0.0022	-0.0068	17
-0.0165	0.0037	0.0015	0.0067	17
-0.0046	0.0435	0.0015	0.0052	17
0.0015	0.054	0.0007	-0.015	17
0.0007	0.009	-0.0038	-0.0128	17
0.003	-0.0256	-0.0053	0.0135	17
0.0015	-0.0308	-0.0053	0.0367	17
-0.0008	-0.0068	-0.0038	0.0472	17
-0.0015	0.0157	-0.0023	0.0337	17
-0.0068	0.0172	-0.0015	0.018	17
-0.0128	0.0322	0.0022	0.018	17
-0.0173	0.0217	0.0022	-0.0053	17
-0.0113	0.0187	0.0022	-0.0256	17
-0.0053	0.0127	-0.0008	-0.0128	17
-0.0053	-0.0135	-0.003	-0.0083	17
-0.003	-0.0278	-0.003	-0.0083	17
-0.0046	-0.0383	-0.0075	-0.006	17
-0.003	-0.0353	-0.0091	-0.0083	17
-0.0015	-0.0278	-0.006	-0.0053	17
0.0015	-0.0091	-0.0023	-0.0075	17
0.0067	0.0135	-0.0008	-0.0083	17
0.0105	0.0195	0	-0.006	17
0.0157	0.0045	0.003	-0.0053	17
0.0225	-0.0023	0.0015	-0.003	17
0.0255	0	0.0015	-0.0046	17
0.0232	-0.0008	0.003	-0.0046	17
0.0082	0	0.0045	-0.0068	17
-0.021	-0.003	0.0045	-0.0053	17
-0.033	-0.0008	0.0075	-0.0023	17
-0.003	0.0007	0.0112	-0.0053	17
0.0097	0.0007	0.012	-0.0068	17
0.0052	-0.003	0.0112	-0.0053	17
0.0127	-0.0075	0.0097	0.0015	17
0.0082	0.0015	0.0052	0.0127	17
0.0037	0.0112	0.003	0.0195	17
-0.0038	0.0075	0.0007	0.012	17
-0.0046	-0.0023	-0.0038	0	17
0	-0.0075	-0.006	-0.0015	17
0.0022	-0.0105	-0.0075	-0.003	17
0.0052	-0.0143	-0.0075	-0.0038	17
0.0015	-0.0203	-0.006	-0.003	17
-0.0008	-0.0195	-0.0053	-0.0098	17
-0.0046	-0.0195	-0.0075	-0.0068	17
-0.0068	-0.012	-0.006	0.0135	17
-0.0046	0.006	-0.0008	0.0315	17
-0.0023	0.0135	0.0015	0.018	17
-0.0015	0.0082	0.003	-0.0053	17
-0.0023	0.0127	0.006	-0.0113	17
-0.0008	0.0285	0.009	-0.0015	17
0.0007	0.0555	0.0105	0.0135	17
0.0015	0.06	0.0082	-0.0091	17
0	0.0262	0.0052	-0.033	17
0.0007	0.0157	0.0022	-0.0143	17
0.0037	0.0015	-0.0046	-0.0053	17
0.003	-0.0098	-0.0083	0	17
-0.0008	-0.0195	-0.0091	0.0052	17
-0.0023	-0.027	-0.0075	0.0045	17
-0.0046	-0.0091	-0.0075	0.0082	17
-0.0046	0	-0.0053	0.0037	17
-0.0015	-0.0083	-0.0038	0.003	17
-0.003	-0.0195	-0.0075	0.0045	17
-0.0008	-0.0046	-0.0143	-0.0008	17
-0.0008	0.0007	-0.021	-0.0046	17
0	-0.0053	-0.0181	0.0015	17
0.0007	0.0067	-0.0046	0.006	17
0	0.0165	0.009	-0.0046	17
0	0.009	0.0112	-0.0165	17
-0.0008	-0.0083	0.0195	-0.0158	17
-0.003	-0.006	0.0262	-0.0091	17
-0.006	-0.0098	0.024	-0.0098	17
-0.006	-0.0091	0.0232	-0.0015	17
-0.0068	-0.0083	0.0157	0.0052	17
-0.0068	-0.0053	0.0097	0.0135	17
-0.0068	0.0165	0.006	0.0255	17
-0.006	0.024	0.0015	0.012	17
-0.003	0.0127	0.0007	-0.0128	17
0.0015	0.0037	-0.0023	-0.027	17
0.0105	-0.0083	-0.0015	-0.0218	17
0.0247	-0.0128	0	-0.0046	17
0.042	-0.0083	-0.0008	0.0082	17
0.0517	-0.0091	0.0015	0.012	17
0.0465	0.0022	0.0022	0.0195	17
-0.0015	0.012	0.0007	0.0232	17
-0.0518	0.018	-0.0015	0.0255	17
-0.0256	0.009	-0.003	0.0292	17
-0.0083	-0.003	-0.0053	0.012	17
-0.0128	-0.0023	-0.0113	-0.0105	17
-0.003	-0.0068	-0.0143	-0.0256	17
-0.0068	-0.0038	-0.015	-0.0533	17
-0.0008	-0.0075	-0.0128	-0.0578	17
-0.0008	-0.0158	-0.012	-0.0278	17
-0.0008	-0.0158	-0.0113	0.009	17
-0.0008	-0.0068	-0.0091	0.0405	17
-0.0015	0.003	-0.006	0.0495	17
0	-0.0008	-0.003	0.0622	17
0.0015	0.0217	-0.0015	0.0772	17
0.0052	0.0352	0.0037	0.0532	17
-0.0038	0.009	0.0082	0.009	17
-0.0203	0.0015	0.0082	-0.012	17
-0.0315	0.0007	0.0075	-0.012	17
-0.0263	0.0022	0.0082	-0.0143	17
-0.0128	0.0142	0.0067	-0.0165	17
-0.0015	0.009	0.003	-0.0248	17
0.003	0	-0.0008	-0.027	17
0.0052	-0.006	-0.003	-0.0195	17
0.0067	-0.003	-0.0008	-0.0173	17
0.0082	-0.0008	0.0007	-0.0135	17
0.015	-0.0046	0.0007	-0.0068	17
0.012	0.0105	0.0007	0.0007	17
0.0082	0.024	-0.003	-0.0015	17
0.0045	0.0097	-0.0015	-0.0015	17
0.0022	-0.0098	-0.0008	-0.0008	17
0.003	-0.0181	-0.0015	-0.0075	17
0.0022	-0.0165	0	-0.0113	17
0.006	-0.0105	0.0015	-0.012	17
0.009	-0.0053	0.006	-0.0105	17
0.0082	0.0015	0.0067	-0.006	17
0.0067	-0.0023	0.0045	0.0037	17
0.0022	-0.0075	0	0.015	17
-0.0046	-0.0083	-0.003	0.0187	17
-0.0075	0.0015	-0.0046	0.0195	17
-0.0075	0.0015	-0.006	0	17.1
-0.0075	-0.0225	-0.0068	-0.0293	17.1
-0.0046	-0.0315	-0.0083	-0.0315	17.1
0.003	-0.021	-0.006	-0.0203	17.1
0.0105	-0.0046	-0.0046	-0.0113	17.1
0.0135	-0.0046	-0.006	0.018	17.1
0.018	0.0037	-0.0046	0.033	17.1
0.027	0.039	-0.0008	0.0315	17.1
0.0307	0.036	0.006	0.0195	17.1
0.0232	0.0345	0.012	-0.0068	17.1
0.0015	0.042	0.0157	-0.0233	17.1
-0.0323	0.0225	0.0127	-0.033	17.1
-0.0428	0.0165	0.006	-0.015	17.1
-0.0173	0.0015	-0.0008	0.0112	17.1
-0.0083	-0.0181	0.0022	0.009	17.1
-0.0105	-0.0218	0.009	0.0075	17.1
-0.003	-0.0248	0.0067	0.0135	17.1
-0.0046	-0.012	0.0015	0.0112	17.1
-0.0008	-0.0008	-0.0105	0.0052	17.1
0	0.0022	-0.0128	0.0007	17.1
0.0015	0.0007	-0.0046	-0.003	17.1
0.0075	0.0015	0.0007	-0.0038	17.1
0.0075	0.0007	0.0045	-0.0068	17.1
0.0105	-0.0053	0.0105	-0.006	17.1
0.009	-0.0046	0.0075	-0.003	17.1
0.0067	-0.0075	-0.0046	0.0022	17.1
0.003	-0.0113	-0.0053	0.0052	17.1
0.0015	-0.0068	0.0015	0.0015	17.1
0.0037	-0.0083	0.0052	-0.0083	17.1
0.0045	-0.0135	0.009	-0.0165	17.1
0.003	-0.0105	0.0105	-0.0105	17
0.003	0.0007	0.009	-0.0083	17
0.0067	0.0015	0.006	-0.0173	17
0.006	-0.0188	0.0015	-0.0181	17
0.0045	-0.0218	-0.003	-0.0068	17
-0.0008	0	-0.006	0.012	17.1
-0.0068	0.0157	-0.0053	0.03	17.1
-0.0158	0.0082	-0.003	0.0322	17.1
-0.0188	0.0157	-0.0008	0.0075	17.1
-0.0098	0.0345	0.0007	-0.0053	17.1
-0.003	0.027	0.0007	-0.0008	17.1
-0.0068	0.0202	0.0015	-0.0015	17.1
-0.0188	-0.0023	0.003	0.006	17.1
-0.015	-0.0075	0.003	0.0232	17.1
0.0067	0.0157	0.0052	0.0367	17.1
0.0082	0.0255	0.006	0.0352	17.1
-0.003	0.018	0.0015	0.0127	17.1
-0.0135	0	-0.0023	-0.0105	17.1
-0.0083	-0.0015	-0.0046	-0.0105	17.1
0	-0.0023	-0.0083	0.003	17.1
-0.0008	0	-0.0083	0.006	17.1
0.0022	-0.003	-0.0091	-0.003	17.1
0.0015	-0.0105	-0.0113	-0.0083	17.1
0.006	-0.0015	-0.0091	-0.0046	17.1
0.0082	0.0007	-0.0053	-0.0105	17.1
0.0052	-0.0135	-0.0075	-0.015	17.1
0.003	-0.0285	-0.0068	-0.0195	17.1
0.0067	-0.024	-0.003	-0.012	17.1
0.009	-0.0233	-0.0023	0.0052	17.1
0.006	-0.0128	0.0015	0.0052	17.1
0.0045	0.003	0.003	0.0052	17.1
-0.0008	0.0067	0.003	0.0067	17.1
-0.0023	0.024	0.0022	0.0052	17.1
-0.0008	0.0585	0.003	0.0082	17.1
0.0075	0.0547	0.003	-0.0038	17.1
0.0142	-0.0075	0.0037	-0.0195	17.1
0.027	-0.0353	0.0037	-0.0105	17.1
0.042	-0.0353	0.0045	-0.0046	17.1
0.048	-0.024	0.0037	-0.003	17.1
0.027	0.0015	-0.0023	-0.0015	17.1
-0.0353	0.0157	-0.0083	-0.0053	17.1
-0.045	0.018	-0.0046	-0.0023	17.1
-0.0075	0.0075	0.003	0.0037	17.1
-0.0105	0.0082	0.0045	0.0037	17.1
-0.0091	0.0015	0.0052	-0.0098	17.1
-0.0083	0.0015	0.0067	-0.0173	17.1
-0.012	-0.0008	0.0045	-0.0113	17.1
-0.0083	-0.0105	0.0045	-0.0046	17.1
-0.0105	-0.0053	0.0082	0.0052	17.1
-0.0053	-0.012	0.0067	0.0052	17.1
-0.0075	-0.0083	0.003	0.0082	17.1
-0.0068	-0.0083	-0.0015	0.015	17.1
-0.006	-0.0181	-0.0038	0.0157	17.1
-0.0053	-0.0165	-0.0046	0.0127	17.1
-0.006	-0.0128	-0.0068	-0.003	17.1
-0.0083	-0.0128	-0.0083	-0.0181	17.1
-0.003	-0.0068	-0.0075	-0.024	17.1
0.0022	0.012	-0.0053	-0.0308	17.1
0.0105	0.0285	-0.0053	-0.0128	17.1
0.0142	0.0457	-0.003	0.0307	17.1
0.0217	0.042	-0.0023	0.039	17.1
0.027	-0.0098	0.003	0.0067	17.1
0.027	-0.027	0.009	0.0022	17.1
0.0202	-0.0091	0.003	0.0007	17.1
-0.0105	-0.0053	-0.0105	-0.0083	17.1
-0.0398	0.0202	-0.0128	-0.006	17.1
-0.0285	0.0142	-0.0046	-0.012	17.1
-0.0015	-0.0053	0.0015	-0.0015	17.1
-0.0008	0.0037	0.0075	0.0007	17.1
0.0015	-0.0008	0.0105	-0.0023	17.1
0.0007	0.0022	0.012	0.0037	17.1
-0.0053	0.003	0.0067	0	17.1
-0.0083	0.0007	0.0015	0	17.1
-0.012	-0.0038	0.0015	-0.0008	17.1
-0.0015	-0.0053	0.0015	0	17.1
-0.0038	-0.003	-0.0015	-0.0015	17.1
-0.0105	-0.003	-0.0105	-0.0015	17.1
-0.0038	0.0015	-0.0113	0	17.1
0.006	0.0022	-0.0038	-0.0015	17.1
0.0082	0.003	-0.0015	-0.0046	17.1
0.0067	-0.0068	0.0067	-0.0046	17
0.0075	-0.0098	0.0112	-0.0015	17
0.0037	-0.0083	0.009	-0.006	17
0.003	-0.0105	0.0082	-0.0128	17
0.006	-0.006	0.003	-0.0128	17
0.0067	-0.0068	0.0015	-0.0091	17
0.006	-0.0015	0.0007	-0.015	17
0.0037	0.012	0.0007	-0.0195	17
0.0022	0.0127	-0.0023	-0.0105	17
0.0015	-0.003	-0.0046	-0.0068	17
0.0015	0.009	-0.0046	0.0172	17
0.0007	0.0097	-0.006	0.0322	17
-0.0015	-0.0158	-0.0038	0.0277	17
0	-0.0128	-0.0023	0.0412	17
-0.0015	-0.0091	-0.0023	0.0322	17
-0.0023	-0.0083	-0.0008	0.0105	17
0.0037	0.0075	-0.0015	0.0195	17
0.009	0.033	0.003	0.0382	17
0.0105	0.0502	0.0045	0.0352	17
0.009	0.039	0.0015	0.0142	17
0.0075	0.0165	0.003	0.0037	17
0.0067	0.0082	0.0015	-0.0083	17
0.006	-0.0053	-0.003	-0.0135	17
0.0045	-0.0188	-0.0083	-0.012	17
0.003	-0.0128	-0.0038	-0.015	17
-0.0008	-0.0015	0.0007	-0.0128	17
-0.0053	-0.0015	0.0022	-0.0143	17
-0.0068	-0.015	0.0037	-0.0068	17
-0.0083	-0.024	0.0007	-0.0053	17
-0.0128	-0.0248	0.003	-0.0083	17
-0.0218	-0.0203	0.003	-0.0046	17
-0.0195	-0.0158	0.003	-0.012	17
-0.0053	-0.012	0.0022	-0.021	17
-0.0038	0.018	0.003	-0.0233	17
-0.0023	0.027	0.003	-0.0181	17
-0.0015	-0.006	0.0007	-0.0105	17
-0.003	-0.0053	0.003	-0.0038	17
0.0007	0.0037	0.0007	0.0037	17
0	0.0105	-0.0015	0.0067	17
0	0.0442	-0.0015	0.0007	17
-0.003	0.048	-0.0023	-0.006	17
-0.003	0.0202	-0.003	-0.0008	17
0.003	0.0007	-0.0008	0.0052	17
0.0127	0.0052	0	0.012	17
0.0277	0.009	-0.0015	0.0067	17
0.045	-0.0105	-0.0015	-0.0113	17
0.0517	-0.0143	0.0015	-0.0075	17
0.0367	-0.0083	0.003	-0.003	17
-0.0248	-0.0181	0.0022	0.0045	17
-0.0495	-0.0248	0.0007	0.0217	17
-0.0075	-0.0203	0.0007	0.0165	17
-0.0015	-0.012	0.0045	0.0105	17
-0.0008	-0.0195	0.0037	0.006	17
-0.0053	-0.0233	0.0015	-0.0075	17
-0.024	-0.003	0.0022	-0.0098	17
-0.0181	0.0135	0.0045	-0.015	17.1
-0.0105	0.0112	0.006	-0.0233	17.1
-0.0008	0.0045	0.0045	-0.0083	17.1
0.0015	0.0285	-0.0091	0.0067	17.1
0.0015	0.054	-0.0225	0.0075	17.1
-0.0015	0.0277	-0.0173	0.0075	17.1
-0.0053	-0.012	-0.0083	0.0075	17.1
-0.0053	-0.0173	0	0.0045	17.1
-0.0083	-0.0256	0.0067	-0.0046	17.1
-0.0015	-0.0248	0.0105	-0.0053	17.1
0.0045	-0.0068	0.0157	-0.0113	17.1
0.0112	-0.0053	0.0135	-0.0256	17.1
0.0172	-0.006	0.009	-0.0225	17.1
0.0195	-0.003	0.0067	-0.012	17.1
0.018	-0.0165	0.0045	-0.0008	17.1
0.009	-0.015	0.0022	0.0165	17.1
0.006	0.0045	0.0007	0.018	17.1
0.0165	0.0015	-0.0015	0.0082	17.1
0.012	0.006	-0.0105	0.0135	17.1
-0.0203	0.0172	-0.0233	0.0232	17.1
-0.0346	0.0217	-0.0218	0.018	17
-0.012	0.0157	-0.0128	0.0045	17
-0.0023	0.0052	-0.0046	0.0007	17
-0.0023	0.009	0.0022	-0.0046	17
0.0037	-0.0038	0.0015	-0.0278	17
0.0007	-0.0113	0.0007	-0.0383	17
0.0015	-0.0173	0.0045	-0.024	17
-0.0015	-0.021	0.0112	-0.003	17
-0.0053	-0.0038	0.015	0.0172	17
-0.0098	0.003	0.018	0.0367	17
-0.0188	0.0045	0.0157	0.0405	17
-0.0308	0.0187	0.0105	0.0375	17
-0.0165	0.0247	0.009	0.0315	17
0.0082	0	0.0052	0.0045	17
0.006	-0.0105	0.0007	-0.0105	17
0.0097	-0.0046	-0.003	-0.0105	17
0.0097	-0.0053	-0.006	-0.0113	17
0.009	0.006	-0.0083	-0.0105	17
0.0097	0.009	-0.0075	-0.0091	17
0.0052	0.009	-0.0083	-0.0091	17
0.0052	0.0075	-0.0091	-0.0091	17
0.0007	0.0007	-0.0083	-0.0068	17
0.0015	-0.0008	-0.0068	-0.0068	17
-0.0015	-0.0046	-0.0068	-0.0046	17
-0.0015	-0.0015	-0.0046	-0.0046	17
0.0015	-0.012	0.0015	-0.0046	17
0.003	-0.0278	0.0045	-0.003	17
0.0037	-0.033	0.0037	-0.0068	17
0.0022	-0.027	-0.0008	-0.0165	17
0.0007	-0.0143	-0.0046	-0.027	17
-0.0008	-0.0008	-0.0046	-0.0165	17
0.0037	0.0165	-0.0046	-0.0015	17
0.0045	0.0165	-0.006	0.0045	17
0.0045	0.0067	-0.0068	0.0105	17
0.0045	0.0052	-0.0068	0.0135	17
0.003	0.003	-0.0053	0.0232	17
0.003	0.018	-0.0023	0.039	17
-0.0008	0.054	-0.0008	0.0375	17
-0.006	0.0517	0.0007	0.0037	17
-0.015	0.0105	0.003	-0.0105	17
-0.0203	0.0007	0.0067	-0.0046	17
-0.0098	-0.0023	0.0075	-0.0068	17
0.0097	-0.0053	0.0082	-0.003	17
0.0255	0.0007	0.0082	-0.0023	17
0.0435	-0.006	0.0082	-0.0015	17
0.0555	-0.0023	0.0105	-0.0008	17
0.0427	-0.0038	0.0082	-0.003	17
-0.0158	-0.0053	0.0045	-0.003	17
-0.0503	-0.0053	0.0007	-0.003	17
-0.0113	-0.0053	-0.003	-0.003	17
0	-0.0046	-0.0046	-0.0038	17
-0.003	-0.003	-0.0053	-0.0038	17
0.0045	-0.0015	-0.0068	-0.0046	17
-0.0008	-0.006	-0.0091	-0.0053	17
-0.0015	-0.0083	-0.0068	-0.0068	17
-0.0188	-0.0128	-0.003	-0.0091	17
-0.0181	-0.0158	-0.0038	-0.012	17
-0.0046	-0.0218	-0.0091	-0.0181	17
-0.0008	-0.0256	-0.012	-0.015	17
-0.0008	-0.0158	-0.0015	-0.0053	17
-0.003	0.0075	0.006	0.0007	17
-0.003	0.0232	0.009	0.009	17
-0.0068	0.0165	0.006	0.0165	17
-0.0165	0.0165	0.0007	0.0405	17
-0.0195	0.0277	0.0015	0.0622	17
-0.0068	0.0405	0.0015	0.0412	16.9
-0.0083	0.012	-0.003	0.0105	16.9
-0.0105	-0.0256	-0.0046	-0.0015	16.9
-0.0053	-0.003	-0.0015	-0.0113	16.9
-0.0038	0.009	-0.003	-0.0256	16.9
0	0.006	0.003	-0.0368	16.9
0.0045	0.0082	0.0082	-0.024	16.9
0.012	0.0067	0.012	-0.0083	16.9
0.018	0.0187	0.0142	-0.0015	16.9
0.0262	0.0127	0.0127	-0.0008	16.9
0.0352	-0.0008	0.0172	-0.0023	16.9
0.0367	0.0007	0.0157	0.0007	16.9
0.0292	-0.0053	0.0142	0.0007	16.9
0.0082	-0.0068	0.0082	0.003	16.9
-0.0308	-0.0053	-0.003	0.0045	16.9
-0.0465	-0.0083	-0.0053	0.0015	16.9
-0.0181	-0.0068	-0.003	0.003	16.9
-0.0083	-0.0091	-0.0008	0.0007	16.9
-0.0113	-0.0083	-0.0015	-0.0008	16.9
-0.0068	-0.0038	0	0.0007	16.9
-0.0083	0.0052	-0.0015	-0.003	16.9
-0.0068	0.0067	-0.003	-0.0023	16.9
-0.0083	0.0082	-0.0023	-0.0008	16.9
-0.0053	0.006	-0.0015	-0.003	16.9
0.0007	-0.0038	-0.0015	-0.0053	16.9
0.0067	-0.0008	-0.003	-0.0038	16.9
0.0142	0.0097	-0.0008	-0.0015	16.9
0.0127	0.0022	0.0015	-0.0008	16.9
0.0097	-0.0203	0.0045	0.0015	16.9
0.009	-0.0293	0.0007	0	16.9
0.0075	-0.0218	-0.0046	0	16.9
0.009	-0.0195	-0.0068	0.0015	16.9
0.0112	-0.0143	-0.0091	-0.0008	16.9
0.012	0	-0.0075	0.0007	16.9
0.0112	0.0082	-0.0098	-0.0008	16.9
0.0015	0.0105	-0.0143	0.0007	16.9
-0.0038	0.0067	-0.0113	0.0015	16.9
-0.0091	0.003	-0.0053	-0.0008	16.9
-0.0143	-0.0008	-0.0008	0	16.9
-0.0068	-0.0091	0.003	0.0007	16.9
0.0052	0.0007	0.0052	0.0052	16.9
0.015	0.0195	0.0067	0.0052	16.9
0.0165	0.0142	0.009	-0.0008	16.9
0.012	0.006	0.0105	-0.0015	16.9
-0.003	0.0105	0.009	-0.0008	16.9
-0.0203	0.0135	0.0082	-0.0015	16.9
-0.0128	0.0127	0.0045	0.0007	16.9
-0.0015	0.0045	0.0007	-0.0015	16.9
-0.0053	-0.0046	-0.0008	-0.0068	16.9
-0.0046	-0.0165	-0.003	-0.027	16.9
-0.003	-0.0346	-0.0053	-0.0518	16.9
-0.0015	-0.0405	-0.0105	-0.0443	16.9
0.003	-0.0353	-0.0143	-0.0195	16.9
-0.0015	-0.0218	-0.0105	0.0015	16.9
0.0097	-0.0083	-0.0008	0.0277	16.9
0.0352	0.009	0.0075	0.042	16.8
-0.0053	0.0442	0.012	0.0615	16.8
-0.0533	0.0915	0.012	0.0825	16.8
-0.0218	0.0787	0.0082	0.0495	16.8
-0.0083	0.0097	0.0075	0.0015	16.8
-0.012	-0.0128	0.0082	-0.0023	16.8
-0.0023	-0.012	0.0052	-0.0015	16.8
-0.0046	-0.0195	0.0037	0	16.8
0.0022	-0.0105	-0.0008	-0.0008	16.8
0.0022	-0.0083	-0.0105	-0.0128	16.8
0.0052	0.0007	-0.0256	-0.0143	16.8
0.0052	-0.0046	-0.0308	-0.0181	16.8
0.003	-0.0105	-0.0225	-0.0188	16.8
0.0045	0.0045	-0.0128	-0.0158	16.8
0.0022	0.012	-0.003	-0.0098	16.8
0.0045	0	-0.003	-0.0015	16.8
0.0037	-0.003	0.003	-0.0068	16.8
0.0082	0.0052	0.012	-0.0105	16.8
0.0105	0.0075	0.0157	-0.0105	16.8
0.0105	0.0165	0.0165	-0.0105	16.8
0.0082	0.006	0.0142	-0.006	16.8
0.0067	0.0037	0.018	-0.0053	16.8
0.0037	0.0037	0.0165	-0.0083	16.8
0	-0.0105	0.0142	-0.0046	16.8
-0.0015	-0.0098	0.0105	0.0007	16.8
-0.0046	-0.0068	0.0052	-0.003	16.7
-0.0053	-0.0046	0	-0.0046	16.7
-0.0053	-0.0068	-0.0158	-0.0053	16.7
-0.0038	-0.0068	-0.0285	-0.0008	16.7
0.0022	-0.0075	-0.03	0.003	16.7
0.0067	-0.0053	-0.021	0.003	16.7
0.0097	-0.0008	-0.0075	0.0045	16.7
0.0142	-0.0023	-0.0008	-0.0015	16.7
0.0172	-0.0023	0.0045	-0.0158	16.7
0.0232	-0.003	0.0067	-0.0218	16.7
0.027	-0.0008	0.0105	-0.0046	16.7
0.024	0.0007	0.0165	0.0202	16.7
0.0112	-0.0015	0.0165	0.0345	16.7
-0.024	-0.0233	0.0135	0.033	16.7
-0.0495	-0.0383	0.0097	0.0172	16.7
-0.0263	-0.0135	0.0112	0.0157	16.7
-0.0128	0.0232	0.0112	0.0262	16.7
-0.0285	0.0307	0.0105	0.0075	16.7
-0.0256	-0.006	0.0052	-0.0308	16.7
-0.0128	-0.0008	-0.0053	-0.0233	16.7
-0.0015	0.0352	-0.0105	0.0052	16.7
-0.0015	0.039	-0.0105	0.0187	16.7
-0.0015	0.0352	-0.0098	0.0142	16.7
0.0015	0.0082	-0.0105	-0.0068	16.7
0.003	-0.0046	-0.0083	-0.0068	16.7
0.012	-0.0008	-0.0046	-0.0091	16.7
0.0307	-0.0091	-0.003	-0.0098	16.7
0.0465	-0.006	0.0015	-0.0008	16.7
0.0405	-0.0113	0.0082	-0.0015	16.7
0.0195	-0.0098	0.009	0.0007	16.7
-0.0098	-0.0098	0.003	-0.0038	16.7
-0.0308	-0.012	-0.0053	0	16.7
-0.0353	-0.003	-0.0068	0.0015	16.7
-0.0218	0.009	-0.0008	-0.0046	16.7
-0.003	0.0015	-0.0015	-0.0068	16.7
-0.0068	-0.015	-0.0015	-0.0053	16.7
-0.0075	-0.0098	-0.0046	-0.0068	16.7
-0.006	-0.0038	-0.0068	-0.0091	16.7
-0.0075	0.0195	-0.0068	-0.0068	16.7
-0.0038	0.021	-0.0046	-0.0083	16.7
-0.0046	0.0007	-0.0046	-0.0053	16.6
-0.0023	0.0045	-0.0053	-0.0023	16.6
-0.0008	0.0015	-0.0023	-0.0015	16.6
0.0007	0.003	-0.0008	0.0015	16.6
-0.0038	-0.0008	0.003	0.0015	16.6
-0.003	-0.006	0.006	0.003	16.6
0.003	-0.0046	0.0082	0.003	16.6
0.0052	-0.0046	0.0105	0.0037	16.6
0.006	-0.003	0.0105	0.0045	16.6
0.0015	0.0045	0.006	0.003	16.6
-0.0008	0.0157	0.0022	0.003	16.6
0.0037	0.0075	0.0015	0.0007	16.6
0.0105	-0.0046	-0.0015	0.0007	16.6
0.0232	-0.0091	-0.0023	0.0007	16.6
0.0397	-0.0143	-0.0046	0.0015	16.6
0.0532	-0.0165	-0.0068	0.003	16.6
0.0547	-0.015	-0.0105	0.003	16.6
0.0105	-0.0053	-0.0098	0	16.6
-0.0458	0.003	-0.0023	-0.0015	16.6
-0.027	0.006	0.003	0.0007	16.6
-0.0105	0.0045	0.0015	0.0045	16.6
-0.0263	0.0082	-0.0105	0.003	16.6
-0.0181	0.0082	-0.0128	-0.0015	16.6
-0.0158	0.009	-0.0053	0.0007	16.6
-0.0068	0.0127	-0.0068	0.003	16.6
-0.0053	0.018	-0.0015	0.0007	16.6
-0.003	0.0202	0.0105	0.0015	16.6
0.003	0.0142	0.0195	0.0015	16.6
0.003	0.009	0.0217	0.0007	16.6
0.0067	-0.006	0.0165	0.0015	16.6
0.0067	-0.024	0.0127	-0.0015	16.5
0.0097	-0.048	0.0082	-0.003	16.5
0.0082	-0.0593	0.0082	-0.003	16.5
0.009	-0.0308	0.009	-0.0038	16.5
0.012	0.0007	0.0052	-0.0046	16.5
0.0105	0.024	0.0007	-0.0091	16.5
0.006	0.0262	-0.0008	-0.0128	16.5
-0.0008	0.012	0.0007	-0.0091	16.5
-0.0038	0.0202	-0.003	0.0015	16.5
-0.0105	0.024	-0.0008	0.006	16.5
-0.0158	0.012	0.0015	0.012	16.4
-0.0195	0.0112	0.0007	0.0217	16.4
-0.0105	0.0082	-0.003	0.021	16.4
-0.0083	0.006	-0.0098	0.0165	16.4
-0.0203	0.0127	-0.0105	0.0082	16.4
-0.0353	0.0112	-0.0068	0.0015	16.4
-0.027	0.0045	-0.006	-0.0046	16.4
0.0105	-0.0068	-0.0015	-0.0053	16.4
0.0112	-0.0083	0.006	-0.003	16.4
0.012	-0.0075	0.0075	-0.0053	16.4
0.0202	-0.0128	0.003	-0.003	16.4
0.021	-0.012	-0.0008	-0.0015	16.4
0.0337	-0.0068	0.003	0.0007	16.4
0.0322	-0.0015	0.0045	0	16.4
0.03	-0.0015	0.0052	-0.0015	16.4
0.0202	-0.0008	0.0045	0.0007	16.4
-0.0023	-0.0008	0.003	-0.0008	16.4
-0.0398	-0.0008	-0.0023	-0.0015	16.3
-0.057	-0.003	-0.0075	-0.0015	16.3
-0.0338	-0.0068	-0.0068	-0.0008	16.3
-0.0203	0.0007	-0.0068	0	16.3
-0.0053	-0.0008	-0.0068	-0.0015	16.3
-0.0008	-0.003	-0.0068	-0.0008	16.3
-0.0023	0.0015	-0.0046	-0.0023	16.3
0.003	-0.0008	-0.0068	-0.0075	16.3
0.0007	-0.0068	-0.0083	-0.0218	16.3
0.0037	-0.0181	-0.0091	-0.0353	16.3
0.006	-0.0256	-0.0068	-0.024	16.3
0.0142	-0.0293	-0.003	-0.0098	16.3
0.0217	-0.0263	-0.0015	-0.0098	16.3
0.0217	-0.0218	0.0045	0.0052	16.2
0.0195	-0.0158	0.0112	0.021	16.2
0.0142	0.003	0.0142	0.0195	16.2
0.0082	0.021	0.0142	0.03	16.2
0.003	0.0607	0.0105	0.0337	16.2
0.0015	0.0877	0.0082	0.0315	16.2
-0.0015	0.0637	0.0052	0.0442	16.2
0.0007	0.0592	0.0037	0.0352	16.2
-0.003	0.0337	0.0007	0.0007	16.2
-0.012	-0.0068	-0.0068	-0.0173	16.2
-0.0128	0.0007	-0.012	-0.0113	16.2
-0.0113	0.003	-0.0143	-0.0105	16.2
-0.0113	-0.0105	-0.0128	-0.0098	16.2
-0.0105	-0.0256	-0.0091	-0.0091	16.2
-0.0105	-0.024	-0.0091	-0.0098	16.2
-0.0105	-0.0195	-0.0053	-0.0068	16.2
-0.0053	-0.0173	-0.0053	-0.0098	16.2
0.0045	-0.0053	-0.0113	-0.0091	16.2
0.0202	-0.006	-0.0068	-0.0075	16.2
0.0427	-0.0068	0.0067	-0.0053	16.2
0.0615	-0.0083	0.0232	-0.0038	16.1
0.0652	-0.0128	0.0322	-0.0046	16.1
0.021	-0.0105	0.0262	-0.006	16.1
-0.048	-0.0128	0.0195	-0.0113	16.1
-0.0353	-0.0195	0.0127	-0.0158	16.1
-0.0105	-0.0278	0.0022	-0.0165	16.1
-0.0218	-0.0368	-0.0053	-0.0083	16.1
-0.0128	-0.0346	-0.0113	0.0052	16.1
-0.0203	-0.0158	-0.0098	0.009	16.1
-0.021	0.0007	-0.0046	0.0015	16.1
-0.0233	0.006	0.0007	0.0007	16
-0.0143	0.0232	0.0067	0.009	16
0.0052	0.0397	0.009	0.0195	16
0.0082	0.0862	0.0007	0.0247	16
0.012	0.0862	-0.0181	0.009	16
0.003	0.0165	-0.021	-0.0135	16
0.0045	0.012	-0.0053	-0.012	16
0.003	0.0007	0.0045	-0.0038	16
0.0015	-0.0203	0.012	-0.003	16
0.0015	-0.0256	0.0135	0.0015	16
0.0015	-0.042	0.0105	0.0037	16
0.0052	-0.0263	0.009	0.0052	16
0.0105	-0.0083	0.0052	0.0142	16
0.0157	0.0142	0.0015	0.0112	16
0.0097	0.012	-0.0046	-0.0083	16
0.0015	-0.0046	-0.0068	-0.0203	16
-0.0195	0.0015	-0.0091	-0.0143	16
-0.024	-0.0008	-0.0091	-0.0068	16
-0.0105	0.0007	-0.012	0.003	16
-0.0068	0.003	-0.0135	0.009	16
-0.0023	0.003	-0.0083	0.0105	15.9
-0.0008	0.003	-0.0068	0.0105	15.9
0.003	0.0052	-0.0015	0.0075	15.9
0.0127	0.0045	0.0015	0.0015	15.9
0.0232	-0.0105	-0.0008	-0.0105	15.9
0.0277	-0.0158	0.0045	-0.0083	15.9
0.0307	-0.0068	0.003	-0.003	15.9
0.0315	-0.003	0.0052	-0.0038	15.9
0.0202	-0.0015	0.0082	0.0022	15.9
0.003	0.0022	0.0052	0.003	15.9
-0.0308	0.0022	0.0015	0.0052	15.9
-0.0495	-0.0023	0.0015	0.003	15.9
-0.0158	-0.0046	0.0015	-0.003	15.9
-0.0008	0.0045	-0.003	-0.003	15.9
-0.0015	0.0127	-0.0053	-0.0046	15.9
0.0097	0.0015	-0.0038	-0.0053	15.9
0.0082	-0.0091	0.0007	-0.006	15.9
0.0142	-0.0091	0.0045	-0.0053	15.9
0.018	-0.0105	0.0052	-0.0046	15.9
0.024	-0.0068	0.009	-0.0008	15.9
0.0202	-0.0068	0.0097	0.0067	15.8
-0.0105	0.0037	0.0045	0.0142	15.8
-0.0293	0.0225	-0.0053	0.0165	15.8
-0.0278	0.0195	-0.0128	0.0045	15.8
-0.027	0.0052	-0.0113	-0.006	15.8
-0.0353	0.0007	-0.0091	-0.0105	15.8
-0.0203	-0.0068	-0.0068	-0.0293	15.8
-0.0075	-0.021	-0.003	-0.0428	15.8
-0.0091	-0.0308	-0.0046	-0.0218	15.8
-0.0068	-0.0248	-0.0105	0.0127	15.8
-0.0105	-0.012	-0.0143	0.0352	15.8
-0.0128	-0.003	-0.0038	0.0457	15.8
-0.0248	-0.0008	0.0082	0.039	15.8
-0.0015	-0.0023	0.0165	0.0232	15.8
0.0532	0.0067	0.0262	0.0097	15.8
0.072	0.009	0.027	-0.0173	15.8
0.0667	0.0262	0.0277	-0.0353	15.8
0.0082	0.0367	0.0097	-0.0225	15.8
-0.0428	-0.0008	-0.0068	-0.0098	15.8
-0.0128	0.003	-0.0053	-0.0008	15.8
-0.0105	0.024	-0.0015	0.0067	15.8
-0.015	0.018	0.0052	0.003	15.8
-0.0053	0.0127	0.0067	0.0037	15.8
-0.0046	0.0157	0.0015	0.0052	15.8
-0.0008	0.0037	-0.0046	-0.0091	15.8
-0.0038	-0.0165	-0.0068	-0.0053	15.8
0.0067	0.0015	-0.0068	0.0037	15.8
0.0052	-0.0046	-0.0023	-0.0083	15.8
0.003	-0.0015	0.0052	0.003	15.8
-0.0008	0.0255	0.006	0.0105	15.8
-0.0053	0.0157	0.0052	0.0135	15.9
-0.0046	0.0007	0.003	0.0277	15.9
-0.0075	-0.0135	-0.0008	0.0195	15.9
-0.006	-0.0195	-0.0053	0.0007	15.9
-0.006	-0.012	-0.0091	-0.0113	15.9
-0.0023	0.009	-0.0105	-0.0143	15.9
0.0007	0.0225	-0.0105	-0.0091	15.9
0.009	0.0165	-0.0135	-0.0038	15.9
0.0187	0.0015	-0.0165	-0.0046	15.9
0.0165	-0.0046	-0.012	-0.006	15.9
0.009	-0.0083	-0.0083	-0.0068	15.9
0.0015	-0.012	-0.0068	-0.0083	15.9
-0.0008	-0.0098	-0.0046	-0.0068	15.9
-0.003	-0.0158	-0.0023	-0.006	15.9
-0.0008	-0.0165	-0.0008	-0.0023	15.9
0.0015	-0.015	-0.0015	-0.0015	15.9
0.0022	-0.006	0.003	0.0015	15.9
0.0045	-0.0015	0.0045	0.003	15.9
0.0022	-0.0023	0.0045	0	15.8
0.0037	0.0015	0.0082	0.0007	15.8
0.0067	0.0037	0.012	0.0015	15.8
0.0097	0.0067	0.0142	0.0007	15.8
0.0097	0.0052	0.0097	0.0015	15.8
0.0112	0.0022	0.0082	0.0007	15.8
0.0165	0.0045	0.0067	0	15.8
0.0195	0.0052	0.0052	-0.0015	15.8
0.0142	0.0045	0.0067	0.0007	15.8
-0.0038	0.0007	0.0045	-0.0008	15.8
-0.0383	-0.003	0.0022	-0.0046	15.7
-0.0503	-0.0098	-0.0053	-0.0083	15.7
-0.0165	-0.012	-0.0098	-0.0098	15.7
0.0015	-0.0083	-0.0075	-0.006	15.7
0.0007	-0.0053	-0.006	-0.0053	15.7
0.0015	0.0067	-0.0008	-0.0038	15.7
-0.0046	0.0157	0.0052	-0.003	15.7
-0.003	0.0082	0.009	0.003	15.7
-0.003	0.006	0.0082	0.0232	15.7
-0.0053	0.009	0.006	0.0352	15.7
-0.0068	0	0.0052	0.0195	15.7
-0.0046	-0.021	0.0105	-0.0008	15.7
-0.0023	-0.0203	0.0105	0.0007	15.7
0.0007	-0.0075	0.003	-0.0038	15.7
0.0015	0.0037	-0.0083	-0.0068	15.7
-0.0091	0.0067	-0.0158	-0.0053	15.7
-0.0008	-0.0046	-0.024	-0.0053	15.7
0.0322	-0.0075	-0.0256	-0.0015	15.7
0.0502	-0.0091	-0.015	-0.003	15.7
0.0375	-0.003	-0.0091	-0.0008	15.7
-0.0165	0.003	0.0015	0.0007	15.7
-0.0593	0.0022	0.003	0.0007	15.7
-0.0225	0.009	-0.003	0.0022	15.7
0.0082	0.012	-0.0068	0.0015	15.7
0.0165	0.0142	-0.0053	0.0015	15.7
0.0382	0.0135	0.0052	0.0007	15.7
0.039	0.0157	0.0195	0.0007	15.7
0.0457	0.0165	0.027	0.0007	15.7
0.0442	0.0127	0.018	-0.0008	15.7
0.0277	0.0015	0.0105	-0.0008	15.7
-0.0023	-0.0091	0.0052	-0.0023	15.7
-0.0405	-0.0165	0.0007	-0.0015	15.7
-0.063	-0.0218	-0.0038	-0.0023	15.7
-0.0825	-0.003	-0.0091	-0.0046	15.7
-0.0698	0.018	-0.0075	-0.0105	15.7
-0.0346	0.0247	-0.0091	-0.0113	15.7
-0.0203	0.0157	-0.0098	-0.003	15.7
0.0045	-0.003	-0.0113	0.0022	15.7
0.0262	-0.0091	-0.0091	0.0105	15.7
0.024	-0.0008	0.0067	0.0142	15.6
0.0442	0.0045	0.0202	0.009	15.6
0.0457	-0.003	0.0255	0.0067	15.6
0.0255	-0.0008	0.0217	0.0045	15.6
-0.0278	-0.0008	0.0075	-0.0008	15.6
-0.0623	-0.0068	-0.003	-0.0046	15.6
-0.0248	0.0045	-0.0128	-0.0046	15.6
-0.012	0.006	-0.015	-0.003	15.6
-0.0091	0.0105	-0.0113	-0.0015	15.6
-0.0046	0.0142	-0.003	-0.003	15.6
0.0007	0.0052	0.0067	-0.0053	15.6
0.0105	0.0015	0.006	-0.0053	15.6
0.0082	-0.0046	0.0052	-0.0046	15.6
0.0292	-0.0091	-0.0023	-0.003	15.5
0.0517	-0.0075	-0.0068	-0.0015	15.5
0.042	-0.0046	-0.0098	0.0007	15.5
-0.0023	-0.003	-0.0143	0.003	15.5
-0.0443	-0.0015	-0.006	0.0022	15.5
-0.0293	-0.0008	0.0045	0.0015	15.5
-0.0038	0	0.0075	0.003	15.5
-0.0068	0.0007	0.0097	0.0007	15.5
-0.0008	-0.0008	0.009	0.0007	15.5
-0.0008	-0.0023	0.0045	0.003	15.5
-0.0015	-0.0023	0.003	0.0015	15.4
0.0045	-0.003	0.0022	0.0015	15.4
0.0075	-0.0053	0.0045	0.0015	15.4
0.0127	0	0.0037	0.0007	15.4
0.0157	0.0037	0.0015	-0.0008	15.4
0.0232	0.006	0.0015	-0.0008	15.4
0.0195	0.0172	-0.003	-0.0008	15.4
0.0142	0.0202	-0.0068	-0.0038	15.4
0.0075	0.0082	-0.0068	-0.006	15.4
0.0037	-0.0053	-0.0008	-0.0068	15.4
0.0045	-0.0165	0.0082	-0.0053	15.4
-0.0023	-0.0181	0.009	-0.003	15.4
-0.0008	-0.0158	0.0007	-0.0015	15.4
-0.012	-0.0195	-0.006	-0.0008	15.4
-0.0203	-0.0181	-0.0068	0.0007	15.4
-0.012	0.003	-0.0091	0.0097	15.4
-0.003	0.0195	-0.0068	0.021	15.4
0.009	0.0165	-0.0008	0.018	15.4
0.0187	0.0097	0.003	0.003	15.4
0.0247	0.0052	0.0007	-0.0023	15.4
0.0232	0	-0.003	-0.0023	15.3
-0.0256	-0.0038	-0.0098	-0.003	15.3
-0.0578	0.0007	-0.0165	-0.003	15.3
-0.0068	0.018	-0.0225	-0.003	15.3
0.0142	0.039	-0.0165	0.0007	15.3
0.0217	0.0292	-0.0053	0	15.3
0.0277	0.0015	0.0022	0	15.3
0.0127	-0.0218	0.0127	0	15.3
0.0037	-0.0443	0.0172	-0.0015	15.3
-0.0256	-0.0413	0.0142	-0.0008	15.3
-0.0511	-0.0315	0.0082	-0.003	15.3
-0.063	-0.0105	0.0067	-0.003	15.3
-0.0218	0.0157	0.0067	-0.0015	15.3
0.0105	0.018	0.0075	0.0052	15.3
0.0157	0.0067	0	0.0127	15.2
0.018	-0.0046	-0.0075	0.0127	15.2
0	-0.0128	-0.0068	0.0097	15.2
-0.0008	-0.0225	-0.0046	0.0007	15.2
-0.0091	-0.03	0.0022	-0.012	15.2
-0.0083	-0.027	0.0045	-0.0323	15.2
-0.0015	-0.0046	0.0045	-0.066	15.1
-0.0015	0.0075	0.0045	-0.084	15.1
0.0015	0.0082	0.0052	-0.0608	15.1
0.0007	0.0292	0.0075	-0.015	15.1
0.0022	0.0502	0.0052	0.0322	15.1
0.0052	0.0442	0.0052	0.0682	15.1
0.0195	0.03	0.006	0.0795	15.1
0.0232	0.0322	0.0067	0.0847	15.1
0.021	0.039	0.003	0.063	15.1
0.018	0.0157	-0.0015	0.015	15.1
0.0165	-0.015	-0.0023	-0.0256	15
0.0157	-0.012	-0.0046	-0.0383	15
0.0045	-0.0158	-0.0083	-0.033	15
-0.0038	-0.0143	-0.0068	-0.0256	15
-0.0053	-0.012	-0.0075	-0.0143	15
-0.0053	-0.0105	-0.0105	-0.003	15
-0.0053	0.009	-0.0128	0.0142	15
-0.0068	0.009	-0.0083	0.0142	15
-0.0068	-0.0143	-0.0015	0.0037	15
-0.0046	-0.0383	0.0015	0	14.9
-0.003	-0.0263	0.0082	-0.0053	14.9
-0.0015	-0.0015	0.0082	-0.0015	14.9
-0.0008	-0.0008	0.0037	-0.0181	14.9
0.0007	-0.0128	-0.0008	-0.03	14.9
0.0045	-0.0165	-0.0015	-0.0128	14.9
0.0075	-0.0015	-0.0068	0.006	14.9
0.012	0.0202	-0.0068	0.0232	14.9
0.0082	0.0382	-0.0015	0.024	14.8
0.0067	0.0262	0.0015	0.0277	14.8
0.0075	0.0382	0.0045	0.0277	14.8
0.0105	0.0705	0.003	0.0195	14.8
0.0187	0.048	-0.0008	0.0112	14.8
0.027	0.0127	-0.0038	-0.0098	14.8
0.036	-0.006	-0.0008	-0.0075	14.8
0.0405	-0.0015	0.0067	-0.006	14.8
0.0292	-0.0068	0.0127	-0.0091	14.8
0.003	-0.012	0.0172	-0.003	14.8
-0.0511	-0.0188	0.018	-0.0075	14.8
-0.1028	-0.024	0.0165	-0.0068	14.8
-0.0788	-0.0173	0.0105	-0.0083	14.7
-0.0398	-0.027	0.003	-0.0098	14.7
-0.0458	-0.0278	-0.003	-0.0195	14.7
-0.027	-0.0293	-0.0068	-0.042	14.7
-0.0053	-0.03	-0.006	-0.0458	14.7
-0.0023	-0.0293	-0.0046	-0.0188	14.7
0.0015	-0.0263	-0.0038	0.0067	14.7
0.0037	-0.0083	-0.0046	0.0255	14.7
0.006	0.0195	-0.0083	0.0495	14.7
0.006	0.0345	-0.0068	0.045	14.7
0.0067	0.0375	-0.0053	0.0315	14.7
0.0082	0.039	-0.0053	0.0157	14.6
0.012	0.009	-0.0038	-0.015	14.6
0.0105	-0.0091	-0.003	-0.0105	14.6
0.009	-0.0128	-0.0015	0.0127	14.6
0.0097	-0.021	-0.0008	0.009	14.6
0.0105	-0.0158	0.0037	-0.0091	14.6
0.0105	-0.0128	0.0082	-0.0225	14.6
0.0097	-0.0008	0.0052	-0.0233	14.6
0.0097	-0.003	0.0015	-0.024	14.6
0.0082	-0.0165	-0.0008	-0.0308	14.6
0.0097	-0.0008	-0.0008	-0.0233	14.5
0.0082	0.009	-0.003	-0.0143	14.5
0.0045	0.0022	-0.003	0.0007	14.5
0.0052	0.0277	-0.0068	0.03	14.5
0.0052	0.0285	-0.0181	0.0382	14.5
0.003	-0.0075	-0.0181	0.015	14.5
0.0015	-0.0143	-0.0083	0.003	14.5
0.0022	-0.0113	0.0007	0.0052	14.5
0.003	-0.0278	0.0075	-0.0046	14.5
0.003	-0.0383	0.009	0.0067	14.5
0.0052	-0.024	0.0105	0.0172	14.5
0.0052	-0.0105	0.0127	0.0105	14.5
0.0045	0.0292	0.0127	0.012	14.5
0.0052	0.0705	0.009	0.0052	14.5
0.003	0.0495	0.0067	-0.0113	14.5
0.0007	0.006	0.0037	-0.015	14.5
-0.0083	0.009	0.0022	-0.0128	14.5
-0.0203	0.0082	-0.0008	-0.0105	14.5
-0.0181	-0.0091	-0.015	-0.0083	14.5
-0.0135	-0.0068	-0.0188	-0.0195	14.5
-0.0181	-0.0188	-0.012	-0.0405	14.4
-0.0188	-0.0165	-0.003	-0.0383	14.4
-0.0165	-0.0143	0.0045	-0.0218	14.4
-0.0143	-0.0038	0.0075	-0.0046	14.4
-0.0128	0.006	0.0082	0.009	14.4
-0.0128	-0.0188	0.0067	0.0247	14.4
-0.006	-0.0105	0.009	0.045	14.4
0.0082	0.0405	0.0097	0.0457	14.4
0.03	0.0382	0.0105	0.0307	14.4
0.0555	-0.0383	0.0105	0.0127	14.4
0.0742	-0.057	0.0127	-0.0008	14.4
0.0742	-0.03	0.0135	-0.003	14.4
0.0412	-0.003	0.0082	0.0022	14.4
-0.024	0.0495	0.0022	-0.0015	14.4
-0.0285	0.072	-0.0015	-0.0315	14.4
0.0052	0.054	-0.0046	-0.048	14.4
-0.0053	0.0352	-0.0068	-0.0158	14.4
-0.0053	0.0052	-0.0128	0.0015	14.4
-0.0105	-0.0098	-0.0143	0.0172	14.4
-0.015	-0.003	-0.0128	0.0375	14.4
-0.0105	-0.0105	-0.012	0.0382	14.4
-0.0143	0.0067	-0.0113	0.0427	14.4
-0.0083	0.015	-0.0068	0.0225	14.4
-0.0098	-0.003	-0.0015	-0.0038	14.4
-0.0068	-0.0068	0	-0.0105	14.4
-0.0053	-0.0068	0.0015	-0.012	14.4
-0.003	-0.006	0.0007	-0.0143	14.4
-0.0015	-0.0098	-0.0015	-0.0113	14.4
-0.0008	-0.0143	-0.0008	0.006	14.4
0	-0.0165	-0.003	0.0127	14.4
-0.003	-0.0165	-0.0046	0.0052	14.5
-0.0015	-0.0083	-0.0038	0.0015	14.5
-0.0046	-0.0083	-0.0023	-0.003	14.5
-0.0015	-0.0083	-0.0046	-0.0128	14.5
-0.0023	0.0022	-0.0068	-0.015	14.5
-0.006	0.0007	-0.0038	-0.0158	14.5
-0.0143	-0.0068	0.003	-0.0181	14.5
-0.0308	-0.0098	0.0037	-0.0195	14.5
-0.0263	-0.0098	0.0022	-0.021	14.5
-0.0068	-0.0091	0.0022	-0.0181	14.5
0.0007	-0.0083	0.0015	-0.0165	14.5
0.0082	-0.012	0.0052	-0.0068	14.5
0.0202	-0.0046	0.012	0.009	14.5
0.0217	0.0067	0.0112	0.0165	14.5
0.024	0.0067	0.0105	0.0315	14.5
0.0172	0.009	0.0105	0.0322	14.5
0.0052	0.0105	0.0067	0.006	14.5
-0.0075	-0.0015	0.0015	0	14.5
-0.0218	-0.0105	0.0015	0.003	14.5
-0.0308	-0.0068	0	0	14.5
-0.0091	0.0015	-0.0053	-0.0053	14.5
0.009	0.0135	-0.0068	-0.0195	14.5
0.0007	-0.0015	-0.0068	-0.024	14.5
0.0067	-0.0263	-0.0068	-0.0188	14.5
0.0052	-0.0181	-0.0038	-0.0105	14.5
0.0067	-0.0113	0.0015	-0.0068	14.6
0.0082	-0.0068	0.0067	-0.0128	14.6
0.0052	0.0007	0.0082	-0.0008	14.6
0.0075	0.0427	0.0067	0.0345	14.6
0.003	0.063	0.0015	0.0337	14.6
0.003	0.006	-0.0008	0.0015	14.6
0.0007	-0.0068	-0.0008	0	14.6
0.003	-0.0038	-0.0008	0.0022	14.6
0.0045	-0.0068	-0.0008	-0.0008	14.6
0.003	0.0285	0.0007	0.0075	14.6
0.0045	0.0495	0.0007	0.0082	14.6
0.003	0.039	-0.0046	0.012	14.6
0	0.0082	-0.006	0.0052	14.6
-0.0023	-0.006	-0.006	-0.0075	14.6
-0.0015	-0.0113	-0.0046	-0.0038	14.6
-0.0023	-0.0135	-0.003	-0.0113	14.6
0	-0.0105	-0.006	-0.0128	14.6
0.0015	-0.0098	-0.0105	-0.0023	14.6
0.0015	-0.0083	-0.0128	0.0015	14.6
0.0015	-0.0091	-0.0015	0.003	14.6
0.0007	0.0052	0.0082	0.003	14.7
0.0007	0.0315	0.012	0.006	14.7
0.0007	0.027	0.009	0.0045	14.7
0.0007	-0.006	-0.003	-0.003	14.7
-0.0015	-0.024	-0.0068	-0.003	14.7
-0.0023	-0.0353	0.0007	0.0007	14.7
-0.0023	-0.0338	0.0052	-0.0008	14.7
-0.0023	-0.0195	0.0082	-0.0015	14.7
-0.006	-0.0158	0.0067	-0.0008	14.7
-0.0225	0	0.0082	-0.0015	14.7
-0.03	0.0127	0.0105	-0.003	14.7
-0.012	0.0202	0.0082	-0.003	14.7
0.003	0.0172	0.0082	-0.0008	14.7
0.012	0.0165	0.003	0.0015	14.7
0.0195	0.0105	0.0022	-0.0008	14.7
0.0172	-0.0046	0.0045	-0.003	14.7
0.0165	-0.0046	0.0097	-0.003	14.7
0.018	-0.012	0.0127	-0.0015	14.7
0.0135	-0.0053	0.0067	-0.0023	14.7
0.0075	-0.003	0	-0.0015	14.7
0.0022	-0.0038	-0.0083	0	14.7
-0.0046	0.0015	-0.0083	-0.0008	14.7
-0.0098	0.0037	-0.0091	-0.0008	14.7
-0.0105	0.009	-0.0113	-0.0015	14.7
-0.0091	0.0067	-0.0091	0	14.7
-0.0068	0.0052	-0.0105	0	14.7
-0.0046	0.0022	-0.0091	-0.0008	14.7
-0.0015	0	-0.0068	-0.0008	14.7
-0.006	-0.003	-0.0075	-0.0008	14.7
-0.0046	-0.0165	-0.0105	0.0007	14.7
0.0045	-0.0195	-0.0128	0.0007	14.7
0.0187	-0.0128	-0.0091	0.0015	14.7
0.0375	-0.0165	-0.0015	0.0015	14.7
0.048	-0.0143	0.0067	0.003	14.7
0.0367	-0.003	0.0105	0.003	14.7
-0.0195	0.0142	0.0075	0.0015	14.7
-0.0503	0.0307	0.0105	0.0007	14.7
-0.0105	0.0195	0.0082	-0.0008	14.7
-0.0068	0.006	0.0075	0.003	14.7
-0.0105	0.0067	0.0082	0.0015	14.7
-0.0015	0.003	0.0075	0.0015	14.7
-0.0068	0.0022	0.0045	0.0007	14.7
-0.0015	0.0007	-0.0015	-0.0008	14.7
-0.0038	0.0007	0	-0.0008	14.7
0.0007	-0.0008	0	-0.0015	14.7
0.0015	-0.0008	-0.0008	-0.0015	14.7
0.003	0	-0.0008	-0.0023	14.7
0.0045	0.0007	-0.0008	-0.0015	14.7
0.0045	0.0022	0.0007	-0.0015	14.7
0.0052	0.0015	0.0007	-0.0008	14.7
-0.0008	0.003	-0.0015	0	14.7
-0.0075	0.0007	-0.006	-0.0008	14.7
-0.0181	-0.0015	-0.006	0.0007	14.7
-0.0135	-0.0008	-0.0046	0.0007	14.7
-0.0038	-0.0023	-0.003	-0.0023	14.7
-0.0023	-0.0053	-0.0015	-0.0008	14.7
-0.0068	-0.0083	-0.0015	0.012	14.7
-0.0195	-0.0068	-0.003	0.0202	14.7
-0.0225	-0.0091	-0.003	0.0082	14.7
-0.0046	-0.012	-0.003	-0.0038	14.7
0.0045	-0.0158	-0.003	-0.012	14.6
0.003	-0.0181	0	-0.0158	14.6
0.009	-0.0075	0.003	-0.012	14.6
0.0067	0.0067	0.0045	-0.0293	14.6
0.006	-0.0091	0.0052	-0.0511	14.6
0.0037	-0.0315	0.0052	-0.0315	14.6
0.0045	-0.0165	0.0082	0.003	14.6
0.009	0.018	0.0112	0.033	14.6
0.009	0.039	0.0112	0.0525	14.6
0.0067	0.0187	0.0082	0.0412	14.6
0.0052	0.0045	0.003	0.0367	14.6
0.0075	0.03	0.0015	0.03	14.6
0.009	0.0562	-0.0023	0.0082	14.6
0.0067	0.0757	-0.0068	0.0045	14.6
0.0015	0.0532	-0.0091	0.0082	14.6
-0.0015	0.0217	-0.0068	0.0067	14.6
-0.003	-0.0046	-0.0053	-0.0023	14.6
-0.0075	-0.0203	-0.0083	-0.0053	14.6
-0.006	-0.0143	-0.006	-0.006	14.6
-0.0008	-0.024	-0.0053	-0.0091	14.6
0.0082	-0.0225	-0.0053	-0.0075	14.6
0.0165	-0.0173	-0.0046	-0.0105	14.6
0.0217	-0.0128	-0.0015	-0.0083	14.6
0.027	-0.0091	0.003	-0.0083	14.6
0.0217	-0.0128	0.003	-0.0075	14.6
0.003	-0.0083	0.0067	-0.003	14.6
-0.012	-0.0075	0.0082	-0.0046	14.6
-0.0346	-0.0053	-0.0046	-0.0046	14.6
-0.0383	-0.0068	-0.0233	-0.0046	14.6
-0.0046	-0.0083	-0.0308	-0.0038	14.6
0.006	-0.0113	-0.0203	-0.0046	14.6
0.0067	-0.012	-0.0038	-0.0046	14.6
0.0135	-0.006	0.015	-0.003	14.6
0.0052	-0.003	0.0247	-0.003	14.6
0.0045	0.0052	0.0255	-0.0015	14.6
-0.0015	0.0052	0.021	-0.0015	14.6
-0.0068	0.003	0.0157	-0.0023	14.6
-0.0083	0.012	0.009	-0.0008	14.6
-0.015	0.0135	0.0112	0.0007	14.6
-0.0346	0.0015	0.0112	0.0007	14.6
-0.0495	-0.0098	0.0052	0.0007	14.6
-0.0143	-0.0173	0.006	0.0015	14.6
0.0105	-0.0143	0.006	0	14.6
0.0112	-0.0075	0.0045	0.0007	14.6
0.018	-0.0068	0.0015	-0.0008	14.6
0.0157	-0.0023	-0.0008	-0.0046	14.6
0.015	0.0052	-0.0046	-0.0053	14.6
0.0105	0.0052	-0.006	-0.0038	14.6
0.0067	0.0052	-0.0046	-0.0015	14.6
0.009	0.006	-0.0068	-0.0008	14.6
0.0052	0.0052	-0.0068	-0.0008	14.7
0.006	0.0067	-0.0091	0.0007	14.7
0.003	0.0082	-0.0091	0.0015	14.7
0.0007	0.0112	-0.0053	0.0022	14.7
0.0007	0.012	-0.0015	0.0007	14.7
0.0007	0.0075	-0.0015	-0.0015	14.7
0.0037	0	-0.0008	0.0007	14.7
0.0067	-0.0083	0.0015	-0.0008	14.7
0.0037	-0.0218	0	-0.0083	14.7
-0.003	-0.0263	0.0007	-0.0203	14.7
-0.0105	-0.0008	-0.0046	-0.0203	14.7
-0.0135	0.0232	-0.0046	-0.0113	14.7
-0.0046	0.0157	-0.0046	-0.0053	14.7
0.0007	0.0007	-0.0053	0.0045	14.7
0.0015	-0.0046	-0.006	0.0142	14.7
0.0015	-0.0098	-0.0075	0.0232	14.7
-0.0008	-0.0023	-0.0038	0.0315	14.7
0.0015	0.015	-0.0023	0.0262	14.7
0	0.0045	-0.0015	0.0082	14.7
-0.0008	-0.006	0	-0.003	14.7
0.0015	-0.0008	0.003	0.0022	14.7
0.003	0.0157	0.003	0.0037	14.7
0.0045	0.0367	0.0052	-0.0008	14.7
0.0045	0.0202	0.009	-0.0008	14.7
0.0045	0.0165	0.0067	0.0105	14.7
0.0022	0.021	0.006	-0.0008	14.8
0.0022	-0.0083	0.0045	-0.0195	14.8
0.0007	-0.0113	0.003	-0.012	14.8
0	-0.0015	0	-0.0105	14.8
-0.0008	0.0075	0.0007	-0.0158	14.8
0.0007	0.0067	0.0007	-0.0143	14.8
-0.0008	-0.012	-0.0015	-0.0008	14.8
-0.0015	-0.0105	0.0007	0.0202	14.8
0.0007	-0.0053	0.0022	0.0345	14.8
-0.0015	0.0007	0.003	0.0427	14.8
-0.0008	0.0105	0.0037	0.0232	14.8
-0.0008	0.0082	0.0045	-0.0015	14.8
-0.0008	-0.003	0.003	-0.0046	14.8
-0.0008	-0.0075	0.0015	-0.0046	14.8
0.0007	-0.0046	0.0045	-0.006	14.8
0.0007	-0.0083	0.0022	-0.0091	14.8
0	-0.0083	0.0022	-0.0135	14.8
-0.0008	-0.0083	0.0037	-0.0105	14.8
0	-0.0068	0.003	-0.0113	14.8
0.0007	-0.003	-0.0008	-0.0083	14.8
0	-0.0038	-0.0015	0.0105	14.8
-0.0015	-0.0046	-0.0015	0.0187	14.8
-0.0015	-0.0038	-0.003	0.012	14.8
-0.0008	-0.003	-0.0053	0.003	14.8
-0.0015	-0.0038	-0.0053	-0.0023	14.8
-0.0008	-0.0015	-0.006	-0.006	14.7
0.0007	-0.0038	-0.0053	-0.0128	14.7
-0.0008	-0.0046	-0.0015	-0.0128	14.7
-0.0008	-0.003	0	-0.003	14.7
-0.0008	-0.0038	0	0.012	14.7
0	-0.0053	0	0.0135	14.7
0.0015	-0.003	0.0015	0.009	14.7
0.0015	0.0022	0.0022	0.0127	14.7
0.0022	0.0052	0.0007	0.0037	14.7
0.0015	0.0105	0.0007	-0.0105	14.7
0.0015	0.0232	-0.0015	-0.0158	14.7
0.0007	0.0142	-0.003	-0.0293	14.7
0	-0.0083	-0.003	-0.0361	14.7
0	-0.012	-0.0046	-0.0195	14.7
0	-0.012	-0.0075	-0.0053	14.7
-0.0008	-0.0143	-0.0083	0.003	14.7
-0.0008	-0.0158	-0.0068	0.0015	14.7
-0.0008	-0.0203	-0.0075	-0.006	14.7
-0.0008	-0.0165	-0.0068	-0.0158	14.7
-0.0015	-0.0165	-0.0015	-0.0278	14.7
0.0007	-0.0038	0.003	-0.0278	14.6
0.0022	0.0277	0.0067	-0.0233	14.6
0.006	0.0442	0.0105	-0.003	14.6
0.0052	0.0292	0.012	0.0292	14.6
0.0022	0.0315	0.0067	0.0502	14.6
0.0015	0.0285	0.0045	0.0382	14.6
-0.0008	0.0045	0.0037	0.027	14.6
0.0007	0.009	0.0015	0.0352	14.6
0.0007	0.0037	0	0.015	14.6
-0.0008	-0.0083	-0.003	0.0157	14.6
0.0007	0.0015	-0.0038	0.0232	14.6
-0.0008	0.0195	-0.0046	-0.0053	14.6
-0.0008	0.03	-0.0046	-0.015	14.6
0	0.003	-0.0046	-0.0181	14.5
-0.0015	-0.0091	-0.0046	-0.015	14.5
-0.0015	-0.0053	-0.0046	-0.0098	14.5
-0.003	-0.0158	0	-0.021	14.5
-0.0015	-0.0173	0.003	-0.03	14.5
0.0007	-0.0195	0.0045	-0.021	14.5
0.0022	-0.0218	0.0082	0	14.5
0.003	-0.03	0.006	0.027	14.5
0.0007	-0.03	0.0052	0.036	14.5
0.0007	-0.0083	0.003	0.03	14.5
0.0007	0.0142	0.0007	0.0322	14.4
0.0007	0.0322	0	0.0142	14.4
-0.0015	0.0195	-0.003	-0.012	14.4
-0.0015	0.0045	-0.0015	-0.0173	14.4
0.0007	0.0105	-0.0008	-0.015	14.4
0.0015	0.0082	-0.0015	-0.0046	14.4
0	0.006	0	-0.003	14.4
-0.0008	0.003	-0.0023	-0.012	14.4
-0.0015	-0.003	-0.0046	-0.0233	14.4
-0.0015	-0.0038	-0.003	-0.0293	14.4
0.0007	-0.003	0	-0.0158	14.4
0	-0.003	0	0.003	14.4
0	-0.0008	0.0022	0.0255	14.4
0.0015	0.0007	0.0045	0.039	14.4
0.0015	-0.0008	0.0007	0.0037	14.4
0.0007	-0.0008	0	-0.024	14.4
-0.0008	0	0	0	14.4
-0.0008	0.0015	0.0007	0.0217	14.4
0	0.0037	0.0045	0.039	14.4
0.0015	0.0067	0.0075	0.0367	14.3
0.0007	0.0022	0.0067	-0.003	14.3
-0.0008	-0.0068	0.0022	-0.0165	14.3
-0.0015	-0.0075	-0.0008	-0.0091	14.3
-0.0015	-0.0008	0.0007	-0.0068	14.3
-0.0008	0.0007	-0.0008	-0.0068	14.3
0	-0.0015	0	-0.0083	14.3
0.0007	0.006	0	-0.003	14.3
0	0.003	0.003	-0.003	14.3
-0.0008	-0.0105	0.0037	0.003	14.3
0	-0.0105	0.0052	0.0097	14.2
0	-0.0008	0.0082	0.0112	14.2
0.0007	-0.0008	0.0067	0.0127	14.2
0.0015	0.0007	0.006	0.0142	14.2
-0.0008	0.003	0.0015	0.009	14.2
-0.0008	-0.0053	-0.0023	-0.0038	14.2
-0.0008	-0.0038	-0.003	-0.0046	14.2
0	0.0007	-0.003	-0.0046	14.1
0	-0.0015	-0.003	0.0045	14.1
-0.0023	-0.0105	-0.0083	0.0285	14.1
-0.0015	-0.0158	-0.0091	0.021	14.1
-0.0015	-0.0165	-0.0105	-0.0203	14.1
-0.0023	-0.03	-0.0091	-0.0578	14.1
-0.0008	-0.0368	-0.0068	-0.0728	14
0.0007	-0.0181	-0.0038	-0.0608	14
0.003	0.0225	0	-0.0338	14
0.0037	0.0562	0.0007	-0.021	14
0.003	0.027	0.0022	-0.0165	14
0.0022	0.0015	0.003	0.0097	14
0.0037	0.0487	0.0045	0.0337	14
0.0067	0.0742	0.0052	0.0367	14
0.0052	0.0585	0.0037	0.0247	14
0.0015	0.0202	0.0015	-0.0053	14
-0.0008	-0.0165	-0.0046	-0.0346	14
-0.0015	-0.03	-0.0083	-0.0405	14
-0.0023	-0.0405	-0.0068	-0.0083	14
-0.0008	-0.0203	-0.0015	0.045	14
0.0015	-0.0203	0.0015	0.051	14
0	-0.0383	0.0015	0.039	14
-0.0015	-0.0315	0.0007	0.0502	14
-0.0015	-0.0098	0.0015	0.0225	14
0.0007	0.0247	0.0015	0	14
0.003	0.0517	0.003	0.0082	14
0.003	0.0577	0.0022	-0.003	14
0.0015	0.027	0.0052	-0.0068	14
0.0015	0.0045	0.0082	-0.0015	14
0.0015	-0.0008	0.0067	0.0045	14
0.0022	-0.003	0.0082	0.0217	14
0.0007	0.0007	0.0067	0.0315	14
0.0022	0.003	0.0045	0.0322	14
0.0022	0.0105	0.003	0.0315	14
0.0007	0.0007	0.0007	0.021	14
0	-0.0083	-0.003	0.0045	14
-0.0046	-0.012	-0.0053	-0.0135	14
-0.0046	-0.0181	-0.0083	-0.0278	14
-0.0053	-0.012	-0.0083	-0.0181	14
-0.0046	-0.012	-0.0046	-0.0158	14
0	-0.0113	0	-0.033	14
0	-0.012	0.0007	-0.027	14
0.0007	-0.0068	0.003	-0.0113	14
0.0015	-0.0023	0.0045	-0.0158	14
0.0015	-0.0068	0.0022	-0.0346	14
-0.0008	-0.0105	0	-0.0346	14
-0.0015	-0.0128	-0.0008	-0.0098	14
-0.0015	-0.0083	-0.0015	-0.0023	14
-0.0015	-0.0038	-0.0008	0.0067	14
-0.0015	-0.0015	0	0.015	14.1
-0.0015	-0.003	0.0022	0.0067	14.1
-0.0015	0.0007	0.003	0.0127	14.1
-0.003	0.009	0.0022	0.0082	14.1
-0.0008	0.0112	0.0015	-0.003	14.1
-0.0008	0.0045	-0.0008	-0.0128	14.1
-0.0015	-0.0038	-0.003	-0.0203	14.1
-0.0015	-0.012	-0.0046	-0.0105	14.1
-0.0015	-0.0135	-0.0015	0.0045	14.1
-0.0015	-0.0113	-0.0008	0.0232	14.1
0.0007	-0.0128	-0.0008	0.009	14.2
0.0015	-0.0098	0.003	-0.033	14.2
0.0015	-0.0158	0.0037	-0.048	14.2
0.0015	-0.0128	0.0015	-0.033	14.2
0.0015	0.003	0.003	-0.0158	14.2
0.003	0.027	0.0015	0.0007	14.2
0.0015	0.0307	-0.0008	0.012	14.2
0	0.0045	-0.0008	0.0067	14.2
0.0007	0.012	-0.003	0.0195	14.2
0.0007	0.042	-0.0046	0.0495	14.2
0.0022	0.0495	-0.0038	0.0502	14.3
0.003	0.0195	-0.0015	0.018	14.3
0.003	-0.0068	0.0007	-0.0128	14.3
0.003	-0.012	0.0015	-0.015	14.3
0.0015	-0.0091	0.0015	0.0022	14.3
0.0015	0.0067	0.0015	0.0195	14.3
0.0007	0	0.0007	0.0202	14.3
0.0015	-0.0053	0.0015	0.018	14.4
0.003	0	0.0015	0.012	14.4
0.003	-0.0046	0.0007	0.003	14.4
0.0007	-0.003	0	-0.0181	14.4
0.0015	-0.0015	-0.0053	-0.0405	14.4
0.003	0.0015	-0.0038	-0.0346	14.4
0.0022	0	-0.0008	-0.0256	14.4
0.0007	-0.0008	0.0007	-0.0195	14.4
0.0022	-0.0015	0.0015	-0.024	14.4
0.0015	-0.0075	-0.0038	-0.042	14.4
-0.0015	-0.0098	-0.0075	-0.0458	14.4
-0.003	-0.0091	-0.0091	-0.0233	14.4
-0.0015	-0.0068	-0.0091	0.0277	14.5
-0.0023	-0.0075	-0.0105	0.0727	14.5
-0.003	-0.0068	-0.0075	0.09	14.5
-0.003	-0.0038	-0.0023	0.0765	14.5
-0.0023	0.0022	0.0045	0.0532	14.5
-0.0008	0.003	0.012	0.027	14.5
0.0015	-0.0008	0.0127	-0.0165	14.5
0.0015	-0.0046	0.009	-0.0428	14.6
0.0015	-0.0015	0.0067	-0.0405	14.6
0.0015	0.0067	0.0075	-0.0308	14.6
0.0007	0.0045	0.003	-0.0098	14.6
0	-0.0008	0.003	-0.0015	14.6
-0.0008	-0.0008	0.0007	-0.0105	14.6
-0.0015	0.003	-0.0015	-0.0046	14.7
-0.0008	0.0037	0.0007	-0.003	14.7
0.0007	0.0045	-0.0046	-0.0015	14.7
0	0.0037	-0.006	0.0015	14.7
-0.0015	-0.0015	-0.0046	-0.0015	14.7
-0.0023	-0.0023	-0.0023	-0.012	14.7
-0.0023	0	0.0007	-0.0256	14.7
-0.0008	0.0037	0.003	-0.024	14.7
0.0007	0.0045	0.0052	-0.0195	14.8
0	0.003	0.0045	-0.0165	14.8
0.0007	0.0015	0.0045	-0.0135	14.8
0.0007	0.003	0.0045	-0.0105	14.8
0.0022	0.0045	0.003	-0.0053	14.8
0.0022	0.0015	0.0007	-0.0046	14.8
-0.0015	0	-0.0023	0.003	14.8
0	-0.0046	-0.0038	0.009	14.8
0.0015	-0.003	-0.003	0	14.8
0.0007	0.0007	-0.003	0.0112	14.8
0.0007	0.0045	-0.003	0.0277	14.8
-0.0008	0.003	-0.0023	0.0157	14.9
-0.0015	0.0007	-0.0038	0.0165	14.9
0.0007	0.0007	-0.0015	0.039	14.9
0.0007	0.0007	0.0015	0.0315	14.9
0	0.0007	0.0022	-0.0158	14.9
0.0007	-0.003	0.003	-0.0346	14.9
0.0015	-0.0046	0.0045	-0.0428	14.9
0.0007	-0.006	0.0052	-0.063	14.9
0.0015	-0.0008	0.0052	-0.0315	14.9
0.0015	0.0112	0.006	0.0045	15
0.0015	0.0105	0.0015	0.012	15
0	-0.0075	0.0007	0.024	15
-0.0008	-0.0143	-0.0023	0.0255	15
0.0007	-0.0075	-0.0046	0.0232	15
0.0007	-0.0091	-0.006	0.018	15
0	-0.0046	-0.0068	0.0082	15
0.0015	0.0007	-0.0046	0.0052	15.1
0.0015	0.0037	-0.0053	-0.0008	15.1
0.0007	0.0157	0.0007	-0.0046	15.1
0.0022	0.0315	0.0037	0.0037	15.1
0.0015	0.0247	0	0.0247	15.1
-0.0008	0.0007	0.0022	0.0367	15.1
-0.0008	-0.0008	0.0067	0.0345	15.1
-0.0008	0.0007	0.009	0.0427	15.1
0.0007	-0.0053	0.0075	0.0547	15.2
0.0007	-0.0015	0.0052	0.0367	15.2
-0.0015	0.0135	0.003	0.0007	15.2
-0.003	0.0127	0.0015	-0.0105	15.2
-0.0015	-0.0075	0.003	-0.0135	15.2
-0.0008	-0.0023	0.0015	-0.012	15.2
0	0.0007	-0.0015	-0.0023	15.2
0	-0.0023	-0.0046	-0.0083	15.2
-0.0008	0.0007	-0.0053	-0.0203	15.2
0	-0.003	-0.0046	-0.0398	15.2
-0.0008	0.0045	-0.0053	-0.0436	15.3
0	0.0015	-0.0046	-0.0218	15.3
0.0007	-0.0023	-0.0038	-0.0203	15.3
0.0007	-0.006	-0.0015	-0.0323	15.3
-0.0015	-0.0165	-0.0015	-0.0458	15.3
-0.0015	-0.021	0	-0.0375	15.3
-0.0008	-0.0173	0.0052	-0.0075	15.3
0.0007	-0.0113	0.0082	0.0195	15.3
0.003	-0.0046	0.0082	0.039	15.3
0.0015	-0.0008	0.0067	0.0142	15.3
0.0022	-0.0038	0.0067	-0.027	15.3
0.003	0.0015	0.0022	-0.0098	15.3
0.0015	0.0225	-0.0023	0.0307	15.3
0.0015	0.033	-0.003	0.0367	15.3
0.0007	0.0202	-0.0008	0.0345	15.4
0.0007	0.0067	0	0.0135	15.4
0.0007	0.0015	0	0.003	15.4
0.0007	0.0067	-0.0015	0.009	15.4
-0.0008	-0.0015	-0.0038	0.0022	15.4
-0.003	-0.0105	-0.0023	0.003	15.4
-0.003	-0.0053	-0.0015	0.006	15.5
-0.0015	-0.0038	0	0.0165	15.5
-0.0008	-0.0053	0.0015	0.0015	15.5
0.0007	-0.0105	0.0007	-0.0181	15.5
0	-0.0083	0	0	15.5
0.0007	-0.003	0.0007	0.003	15.6
0.0007	-0.0046	-0.003	-0.027	15.6
-0.0008	-0.0128	-0.0053	-0.057	15.6
-0.0015	-0.0158	-0.0068	-0.0683	15.6
-0.0023	-0.0008	-0.0068	-0.0803	15.6
-0.0015	0.0135	-0.0038	-0.0615	15.6
-0.0008	0.0232	-0.0023	-0.0135	15.7
0.0015	0.0195	0.0007	0.018	15.7
0.0015	-0.0008	0	0.0472	15.7
-0.0015	0.006	-0.0008	0.0645	15.7
0	0.0255	0.0015	0.0705	15.7
0.0015	0.0232	0.0022	0.0517	15.7
0.0007	0.0052	0.0045	0.0195	15.7
-0.0008	-0.006	0.0037	0.027	15.7
0	-0.0046	0.0022	0.0165	15.8
0.0007	-0.0091	0.0022	-0.0008	15.8
0	-0.0046	0.0045	0.0067	15.8
0.0015	0.0045	0.0045	0.024	15.8
0.0015	0.0045	0.0015	0.0367	15.8
0.0015	-0.0053	-0.0008	0.0142	15.9
0.0007	-0.0091	-0.0046	0.0007	15.9
-0.0008	-0.0053	-0.0038	0.0015	15.9
-0.0008	-0.0075	-0.0046	-0.0158	15.9
-0.0008	-0.0068	-0.0053	-0.027	15.9
-0.003	-0.0046	-0.0046	-0.0285	16
-0.0015	0.0015	-0.0053	-0.0346	16
-0.0015	0.0052	-0.0015	-0.0488	16
-0.0008	-0.003	0.0007	-0.042	16
0.0015	0	0.003	-0.0308	16
0.0015	0.003	0.0052	-0.0113	16.1
0.0015	0.0007	0.0045	0.009	16.1
0	0	0.0045	0.0037	16.1
0	-0.0038	0.0045	0.0015	16.1
0.0007	-0.0008	0.0052	-0.003	16.2
0.0022	0.0022	0.0045	-0.0023	16.2
0.003	0	0.0045	0.0135	16.2
0.0015	-0.0046	0.0022	0.0195	16.2
0.0015	-0.0083	0.0015	0.006	16.2
0.0007	-0.0105	0.0015	-0.012	16.2
0.0015	-0.0053	-0.0008	-0.0173	16.2
0.0022	0.003	-0.0008	-0.027	16.3
0.0007	0.0015	-0.0015	-0.0361	16.3
0.0007	0.0052	-0.0008	-0.027	16.3
0.0007	0.0127	-0.003	-0.012	16.3
0.0007	0.0127	-0.0008	0.0187	16.4
0.0015	0.018	0.0045	0.0615	16.4
0.0015	0.0187	0.0045	0.0892	16.4
-0.0008	0.0045	0.0037	0.0735	16.4
-0.0008	-0.0038	0.0015	0.0495	16.4
0	0.0007	0.0022	0.0307	16.5
0.0015	0.003	0.0052	-0.0188	16.5
0.0045	-0.003	0.003	-0.0443	16.5
0.0015	-0.0083	0	-0.0128	16.5
-0.0015	-0.0091	-0.0046	0.0232	16.6
-0.0015	-0.0105	-0.0053	0.003	16.6
-0.003	-0.012	-0.0053	-0.0458	16.6
-0.0023	-0.0105	-0.0046	-0.081	16.6
0	0.0052	-0.0008	-0.0878	16.6
0.0007	0.0232	0.0007	-0.0495	16.6
0.0007	0.0157	0	-0.0143	16.6
0	-0.0015	-0.0008	0.003	16.7
-0.0008	-0.003	0.0007	0.0007	16.7
0.0007	-0.003	0	0.0045	16.7
0.0007	0.003	0.0015	0.0502	16.7
0.0007	0.0037	0.003	0.0742	16.8
-0.0008	-0.0015	0.0007	0.0487	16.8
-0.0008	0	-0.0008	0.009	16.8
0.0007	0.0015	-0.0008	-0.0308	16.8
0.0015	0.0045	0	-0.042	16.9
0.0007	-0.0015	-0.0015	-0.0158	16.9
-0.0008	-0.0008	-0.0038	-0.0075	16.9
-0.0015	0.0037	-0.003	-0.0083	16.9
0.0007	0.0037	-0.0053	-0.0053	17
0.0007	0.0082	-0.0053	-0.0233	17
0.0015	0.003	-0.006	-0.0188	17
0.0007	-0.0038	-0.0053	0.0037	17
-0.0015	-0.0068	-0.003	0.0105	17
-0.0008	-0.0053	0.0007	0.0255	17.1
-0.0008	-0.006	0.0015	0.048	17.1
0.0007	-0.0008	0.0007	0.069	17.1
0.0007	0.0097	0.0045	0.0555	17.1
0.0007	0.0172	0.0045	0.024	17.2
0.0015	0.021	0.0045	0.027	17.2
0.003	0.0187	0.006	0.0285	17.2
0.0037	0.0187	0.0052	0.0307	17.2
0.0015	0.0135	0.003	0.0262	17.3
0.0007	-0.003	-0.0008	-0.0188	17.3
-0.0008	-0.0233	-0.0053	-0.0615	17.3
-0.0008	-0.0278	-0.012	-0.0488	17.3
-0.0015	-0.0278	-0.0128	-0.003	17.4
-0.0008	-0.0225	-0.0068	0.0172	17.4
-0.0008	-0.0158	0.0007	0.0157	17.4
0.0007	-0.012	0.0052	-0.0128	17.4
0.0007	-0.0083	0.0082	-0.0443	17.5
-0.0015	-0.0038	0.009	-0.0128	17.5
-0.0008	-0.003	0.0067	0.0075	17.5
-0.0023	-0.0068	0.006	-0.0308	17.5
0	-0.0091	0.0045	-0.0346	17.5
0.0007	-0.0128	0.0052	0.0075	17.5
0	-0.012	0.0045	0.0217	17.5
-0.0008	-0.0113	0	0.021	17.6
-0.003	-0.0091	-0.0008	0.0165	17.6
-0.0008	-0.0038	-0.003	-0.015	17.6
-0.0008	-0.0038	-0.0015	-0.0413	17.6
-0.0008	0.0037	-0.0015	-0.0511	17.7
0.0022	0.0195	-0.0038	-0.042	17.7
0.0007	0.0382	-0.0046	-0.027	17.7
-0.0008	0.0315	-0.0053	-0.0383	17.7
0.0007	0.009	-0.0053	-0.0465	17.7
0.0007	0.0127	-0.003	-0.0256	17.8
0.0007	0.0157	0.0007	-0.012	17.8
0.0015	0.012	0.0022	-0.0038	17.8
0.003	0.0097	0.003	0.009	17.9
0.0037	0.0082	0.003	0.0105	17.9
0.0022	0.0135	0.0045	0.033	17.9
0.0015	0.0187	0.0052	0.0765	17.9
0.0007	0.0157	0.0045	0.0915	18
-0.0008	0.012	0.0015	0.0577	18
-0.0015	0.0105	0.0015	-0.0046	18
0.0007	0.0037	0.0007	-0.024	18
0	0	-0.0015	0.0217	18
-0.0015	-0.003	-0.0008	0.0615	18
-0.0008	-0.012	0	0.0705	18.1
-0.0023	-0.0188	-0.0015	0.0442	18.1
-0.0046	-0.0195	-0.0023	0.0045	18.1
-0.0015	-0.0143	0.0015	-0.0068	18.1
-0.0008	-0.0098	0.003	-0.0053	18.2
-0.0008	-0.006	0.0052	-0.0128	18.2
0	-0.0038	0.006	-0.0233	18.2
0.0007	-0.0046	0.0052	-0.0315	18.2
0	-0.0046	0.0052	-0.0285	18.2
0.0007	-0.0008	0.0045	-0.0256	18.3
0.003	0	0.0015	-0.0353	18.3
0.0015	-0.0068	-0.0008	-0.0375	18.3
0.0015	-0.0128	-0.003	-0.0173	18.3
0.0007	-0.0128	-0.003	0.0015	18.4
0.0015	-0.0083	-0.003	0.003	18.4
0.0015	-0.0068	-0.0053	-0.0008	18.4
0	-0.0046	-0.0046	0.0007	18.4
0.0015	0.0022	-0.0046	-0.0015	18.4
0.0007	0.0157	-0.0015	-0.0195	18.4
0.0022	0.024	-0.0046	-0.0428	18.4
-0.0015	0.012	-0.0083	-0.0518	18.5
-0.0038	0	-0.0068	-0.0578	18.5
-0.0015	-0.0015	-0.0046	-0.033	18.5
-0.0015	-0.0053	-0.0023	0.0187	18.5
-0.0015	0.003	0	0.042	18.6
0	0.021	0.0015	0.0675	18.6
0.0015	0.057	0.0015	0.084	18.6
0.0037	0.084	0.0052	0.066	18.6
0.0052	0.0675	0.0082	0.0195	18.7
0.0067	0.0427	0.009	-0.0195	18.7
0.0052	0.0142	0.0075	-0.0195	18.7
0.0022	-0.0128	0	0.0045	18.7
-0.0015	-0.0315	-0.0068	0.0165	18.8
-0.0046	-0.0495	-0.0083	-0.0346	18.8
-0.003	-0.0511	-0.0046	-0.033	18.8
-0.0015	-0.0443	-0.0015	0.036	18.9
0.0007	-0.0383	0	0.057	18.9
0	-0.0375	0.0015	0.0607	18.9
-0.0023	-0.0361	0.0015	0.069	18.9
-0.0015	-0.0293	0.003	0.0442	18.9
-0.0015	-0.03	0.0067	0.0052	18.9
-0.0008	-0.027	0.009	-0.0068	19
-0.0008	-0.0256	0.0082	-0.0105	19
0	-0.0218	0.0037	-0.0165	19
0.0007	-0.0143	0	-0.021	19
-0.0008	-0.0113	-0.0015	-0.0225	19.1
0.0007	-0.0053	-0.003	-0.0248	19.1
0.0007	0.0007	-0.0046	-0.027	19.1
0.0007	0.0067	-0.0075	-0.027	19.2
0.0007	0.0105	-0.0075	-0.0263	19.2
-0.0008	0.0127	-0.0083	-0.0218	19.3
0.0007	0.0157	-0.0068	-0.0263	19.3
-0.0015	0.015	-0.0068	-0.0278	19.3
-0.0008	0.015	-0.006	-0.0173	19.3
-0.0015	0.0165	-0.0046	-0.0105	19.3
0	0.0165	-0.0015	-0.0158	19.4
0.0007	0.018	0.0022	-0.0383	19.4
0.0007	0.0225	0.003	-0.0465	19.4
0.003	0.0255	0.0052	-0.039	19.5
0.003	0.024	0.0045	-0.0346	19.5
0.0022	0.018	0.0045	-0.0181	19.6
0.003	0.015	0.0052	-0.0015	19.6
0.003	0.0142	0.006	0.0322	19.6
0.0015	0.0097	0.0045	0.0705	19.7
-0.0008	0.0022	-0.0015	0.0862	19.7
-0.0015	0.0007	-0.003	0.0795	19.7
-0.003	0.0015	-0.0053	0.0262	19.8
-0.0015	0.0007	-0.0053	-0.0173	19.8
0	0.003	-0.003	-0.0128	19.8
0.0007	0.009	-0.0023	-0.0128	19.8
0.0007	0.0105	-0.0015	-0.0165	19.9
0.0007	0.0045	0.0007	-0.0091	19.9
-0.0008	-0.0015	0.0022	-0.0038	20
-0.0008	-0.0046	0.0045	0.0007	20
-0.0008	-0.0091	0.0052	-0.0068	20.1
0	-0.006	0.0075	-0.0068	20.1
0.0007	-0.0046	0.0067	0.0082	20.1
0.0007	-0.0046	0.0052	0.0052	20.2
-0.0008	0.0015	0.0045	0.0165	20.2
-0.0008	0.006	0.0015	0.0195	20.2
0.0007	0.009	-0.0008	0.0015	20.3
0	0.0075	-0.003	0.006	20.3
0.0007	0.0045	-0.0015	0.0052	20.3
0.0015	-0.0015	-0.003	-0.0008	20.4
-0.0015	-0.0105	-0.0053	-0.003	20.4
-0.0008	-0.0083	-0.003	-0.0008	20.5
0.0015	-0.003	-0.0023	0.0052	20.5
0.0015	-0.003	-0.0015	-0.0113	20.6
0.0015	-0.0053	-0.0008	-0.0338	20.6
0.0015	-0.0046	0.0015	-0.0383	20.7
0.0007	-0.0046	0.0052	-0.0278	20.7
0	-0.0038	0.0067	-0.0225	20.7
0.0007	-0.0046	0.0052	-0.0278	20.8
0.0015	-0.0023	0.0052	-0.0203	20.8
0.0015	0.0045	0.0045	0.0097	20.9
0	0.0015	0.0015	0.039	21
-0.0008	-0.0015	0	0.0532	21
-0.0008	0	-0.0046	0.0487	21.1
0	0.003	-0.003	0.018	21.1
0.0007	0.0007	-0.0015	-0.0023	21.1
0.0007	-0.0015	-0.0008	-0.012	21.2
0.0015	-0.0023	-0.0015	-0.0143	21.2
0.0015	-0.006	-0.0046	0.0045	21.3
0.0007	-0.0053	-0.0046	0.0075	21.3
0.0007	-0.003	-0.003	-0.0083	21.4
0	-0.0015	-0.0015	-0.0105	21.4
0	0.0037	0.0007	0.0015	21.5
0.0007	0.0045	0.006	-0.0105	21.5
0.0015	0.0075	0.0082	-0.0233	21.6
0	0.0067	0.0075	-0.0233	21.6
0	0.0007	0.0045	-0.0218	21.7
0.0007	-0.0008	0.0015	-0.0068	21.8
-0.0015	-0.003	-0.0008	-0.0188	21.8
-0.0023	-0.0038	-0.0023	-0.0203	21.9
-0.0008	0.0022	-0.003	-0.0038	22
-0.0015	0.0135	-0.0038	0.0007	22
-0.0023	0.027	-0.0046	0.0075	22
-0.0008	0.0232	-0.0038	0.0105	22.1
-0.0008	0.0127	-0.0015	-0.003	22.2
0	0.0052	0.0015	0.003	22.2
0.0015	0.0045	0.0045	0.0615	22.3
0.0007	-0.0015	0.0015	0.0847	22.4
-0.0015	-0.0181	-0.0008	0.0435	22.4
-0.003	-0.0218	-0.003	0.0067	22.5
-0.003	-0.0158	0.0022	-0.0075	22.5
-0.0008	-0.012	0.0022	-0.0083	22.6
0	-0.0098	-0.0008	-0.024	22.6
0.0007	-0.0098	0.0007	-0.042	22.7
-0.0008	-0.0068	0.0007	-0.0465	22.8
-0.0008	0.0007	0.0007	-0.0278	22.9
0.0007	0.0052	-0.0008	-0.0068	22.9
0.0015	0.0052	-0.0023	-0.0143	22.9
0.0022	0.0022	-0.0023	-0.0135	23
0.0007	-0.0008	-0.0015	-0.0158	23.1
-0.0008	-0.003	-0.0053	-0.0105	23.2
-0.0015	-0.0015	-0.006	-0.0015	23.2
-0.0008	-0.0023	-0.0053	-0.0068	23.3
-0.0008	-0.0053	-0.0015	0.0165	23.4
-0.0015	-0.006	0.0007	0.0382	23.4
0.0007	-0.0091	0.0015	0.0442	23.5
0	-0.0173	0.0045	0.0382	23.5
-0.0008	-0.0158	0.0037	-0.012	23.6
-0.0015	-0.0128	0.003	-0.0683	23.7
-0.0015	-0.0105	0.0045	-0.0458	23.7
0.0007	-0.0038	0.003	0.0037	23.8
0.0007	0.0082	0.003	-0.0053	23.8
0.0015	0.0172	0.0015	0.0007	23.9
0.0015	0.0127	-0.0046	0.0165	23.9
0.0007	0.009	-0.0046	0.0045	24
0.0007	0.006	-0.0015	0.0217	24.1
0.0015	0.0067	0.0045	0.0255	24.1
0.0022	0.0105	0.0067	0.0067	24.2
0.0015	0.0067	0.0045	0.0127	24.3
-0.0008	0.0022	0.0015	0.0075	24.3
0	0.0082	0.0015	0.0232	24.3
0.0022	0.0157	0.0022	0.0742	24.4
0.0015	0.0127	0.0007	0.0787	24.5
0	0.0075	0.0015	0.0187	24.5
0.0015	0.0105	0.003	-0.0293	24.6
0.0007	0.009	0.003	-0.0195	24.7
-0.0008	-0.003	0.0045	-0.0158	24.7
0	-0.0083	0.0037	-0.0488	24.7
0	-0.0128	0.0015	-0.0555	24.8
-0.0008	-0.0158	0.0007	-0.0285	24.9
0.0015	-0.012	0.0007	0.0105	24.9
0.0015	-0.0098	0.0015	0.0577	25
-0.0023	-0.0098	-0.0008	0.0465	25
-0.0053	-0.0165	-0.003	-0.0368	25.1
-0.0046	-0.0143	-0.0023	-0.0863	25.2
-0.0008	0.0052	-0.0008	-0.0578	25.2
0.0015	0.0232	-0.0008	-0.0128	25.3
0	0.0217	-0.0023	0.0037	25.3
-0.0015	0.0157	-0.0023	0	25.4
0.0015	0.018	-0.0008	-0.0165	25.4
0.0022	0.024	0.0022	0.0052	25.5
0.0007	0.018	0.0007	0.042	25.6
0.0007	0.0067	-0.0046	0.027	25.6
0.003	0.0082	-0.0015	0.0045	25.7
0.0037	0.0127	0.003	-0.0015	25.7
0.0045	0.0082	0.006	-0.003	25.8
0.0045	0.0007	0.0045	-0.0128	25.9
0.0015	-0.0015	0	-0.0165	25.9
0.0007	-0.003	-0.003	-0.0203	26
0	-0.0053	-0.0038	-0.027	26
0.0022	-0.0053	-0.0015	-0.0083	26.1
0.0037	-0.003	-0.0008	-0.0068	26.1
0.0015	0.0045	-0.0023	-0.0091	26.2
0.0007	0.0112	-0.0015	-0.027	26.3
0.0007	0.0082	-0.0008	-0.0638	26.3
0.0015	0.0037	0.0015	-0.0518	26.4
0.0022	0.0015	0.0052	-0.0181	26.5
0.003	0.0022	0.0067	0.0337	26.5
-0.0008	0.0007	0.0015	0.0532	26.6
-0.0046	-0.0068	-0.0053	0.0315	26.6
-0.006	-0.0181	-0.0068	0.0757	26.7
-0.0053	-0.024	-0.0068	0.1162	26.8
-0.0023	-0.027	-0.0053	0.0847	26.8
-0.0008	-0.0293	-0.0068	0.03	26.9
0	-0.0285	-0.0046	-0.0188	27
0	-0.0203	-0.003	-0.0233	27
-0.0015	-0.0165	-0.003	-0.03	27.1
-0.0015	-0.012	-0.003	-0.048	27.1
-0.003	-0.0083	-0.0046	-0.0278	27.2
-0.0015	-0.0053	-0.0023	-0.0053	27.3
-0.0008	0.0015	-0.0008	0.0247	27.4
0.0007	0.0037	0.0015	0.0307	27.4
0.003	0.006	0.0022	0.0067	27.4
0.0015	0.0082	0.003	0.033	27.5
0.0007	0.0067	0.0052	0.0502	27.6
0.0015	0.0127	0.0037	0.042	27.7
-0.0008	0.0142	0	0.027	27.7
0.0007	0.012	0.0007	-0.0068	27.8
0.0015	0.012	0.0022	-0.0293	27.9
0.003	0.0067	0.0007	-0.0353	27.9
0.0022	0.0022	-0.003	-0.0428	28
0.0007	0.003	-0.0023	-0.0503	28.1
0.0007	0.0067	-0.0046	-0.0683	28.1
0.0007	0.0135	-0.0053	-0.0856	28.2
0.0007	0.0202	-0.0053	-0.057	28.3
0.0007	0.0277	-0.0038	-0.0248	28.3
0.0007	0.033	-0.0008	0.012	28.4
0.0022	0.0345	0.0037	0.0532	28.4
0.0052	0.0285	0.0082	0.075	28.5
0.0052	0.018	0.009	0.1117	28.6
0.0007	-0.0008	0.0075	0.1275	28.7
-0.0015	-0.0256	0.003	0.0877	28.7
-0.003	-0.0285	0.0015	0.027	28.8
-0.003	-0.0278	0.003	0.003	28.8
0	-0.0218	0.0037	-0.0315	28.9
0.0007	-0.0173	0.0015	-0.093	29
0.0007	-0.0188	0.0007	-0.111	29.1
0.003	-0.0128	0.0007	-0.093	29.1
0.0015	-0.0158	-0.0015	-0.0721	29.2
-0.0008	-0.0113	-0.0015	-0.033	29.2
-0.0023	-0.0046	-0.0015	-0.0015	29.3
-0.003	-0.0008	-0.0053	0.0075	29.4
-0.003	-0.0023	-0.0068	0.0195	29.5
-0.0023	0.003	-0.0023	0.0202	29.6
-0.0008	0.012	0.003	0.0105	29.6
-0.0015	0.0142	0.006	-0.0046	29.7
0	0.0232	0.0045	0.0165	29.7
-0.0008	0.0277	0.0052	0.0682	29.8
-0.0008	0.0202	0.006	0.0855	29.9
0	-0.0008	0.0015	0.0667	30
-0.0015	-0.012	-0.0015	0.0457	30
-0.0008	-0.0091	-0.0015	0.0307	30.1
0.0015	-0.0098	0.0015	0.0157	30.1
0.0015	-0.0128	0.0015	0.0015	30.2
0.0007	-0.0158	-0.0008	-0.0173	30.3
0.0007	-0.0143	-0.0008	-0.0181	30.4
0.0015	-0.012	-0.0008	-0.033	30.4
0	-0.0075	-0.0015	-0.0428	30.5
-0.0008	-0.0015	-0.0008	-0.0083	30.6
0	0.0112	-0.0015	-0.0091	30.6
-0.0008	0.0187	0.0007	-0.0375	30.7
0	0.0195	0.0015	-0.045	30.7
0.0007	0.0217	0.0022	-0.0308	30.8
0.0015	0.0127	0.003	0.0007	30.9
0.0015	0.003	0.0052	0.0105	30.9
0.0015	-0.0053	0.006	-0.0143	31
0.0022	-0.0128	0.0045	-0.0218	31
0.0015	-0.0165	0.0007	-0.015	31.1
-0.0008	-0.0188	-0.0038	-0.0346	31.2
-0.0015	-0.0128	-0.0046	-0.0578	31.2
-0.0008	-0.006	-0.0046	-0.0638	31.3
0	0.0015	-0.0046	-0.054	31.4
0.0007	0.0067	-0.0038	-0.0165	31.4
0	0.0067	-0.003	0.0105	31.5
0.0007	0.012	-0.003	0.0487	31.6
0	0.0187	-0.0023	0.0862	31.6
0.0007	0.0217	-0.003	0.0742	31.7
0.0015	0.0202	-0.0023	0.093	31.8
-0.0008	0.0135	-0.0023	0.1125	31.8
-0.0008	0.0052	0.0007	0.0855	31.9
0.003	0.0052	0.0082	0.0405	32
0.0052	0.0127	0.0127	-0.003	32
0.0045	0.0202	0.0082	-0.0465	32.1
0.0015	0.024	0.0022	-0.108	32.2
-0.0008	0.0382	-0.0008	-0.1155	32.3
-0.0008	0.0517	-0.0015	-0.0645	32.3
-0.0008	0.0367	-0.0023	-0.012	32.4
0.0007	0.0135	-0.0015	0.0532	32.4
0.003	-0.0053	0.0015	0.1275	32.5
0.0007	-0.0353	-0.0008	0.1455	32.6
-0.0053	-0.0623	-0.0053	0.0817	32.7
-0.0068	-0.0691	-0.0083	-0.0195	32.7
-0.0038	-0.063	-0.003	-0.099	32.8
0.0007	-0.0503	0.0007	-0.132	32.8
0.0015	-0.0361	0	-0.129	32.9
0.0015	-0.0158	0.0037	-0.0623	33
0.0007	0.027	0.0052	0.0015	33
0.0007	0.0705	0.0052	0.0412	33.1
0.0007	0.0675	0.0045	0.072	33.2
0.0007	0.0345	0.0037	0.072	33.3
-0.0008	0.0045	0.0022	0.048	33.3
-0.0008	-0.024	0	-0.0278	33.4
0	-0.042	-0.0015	-0.0518	33.4
-0.0008	-0.0503	-0.0046	-0.0263	33.5
-0.0008	-0.0525	-0.0053	-0.0495	33.6
-0.0015	-0.0383	-0.0068	-0.0698	33.6
0.0007	-0.0181	-0.0038	-0.0458	33.7
0.0037	0.0015	0.0015	0.042	33.7
0.0045	0.009	0.0037	0.1035	33.8
0.0022	0.0082	0.003	0.0855	33.9
-0.0015	0.0097	0.0007	0.0555	34
-0.0015	0.0112	0.0045	0.0517	34
-0.0023	-0.0015	0.0052	0.0262	34.1
-0.0015	-0.024	0.0037	-0.0525	34.1
-0.0008	-0.0256	0.0037	-0.0878	34.2
0	-0.0203	0.0015	-0.1148	34.3
-0.0008	-0.0128	-0.0008	-0.1403	34.4
-0.0015	0.0045	-0.003	-0.1013	34.4
-0.0015	0.0255	-0.0023	-0.0495	34.5
-0.0008	0.0427	-0.0038	0.0202	34.6
0.0007	0.0382	-0.0046	0.0877	34.6
0.0007	0.0247	-0.0038	0.1222	34.7
-0.0015	0.003	-0.0075	0.135	34.7
-0.003	-0.0128	-0.0068	0.1275	34.8
-0.0023	-0.0135	-0.0053	0.1072	34.9
-0.0015	-0.0165	-0.0046	0.072	35
-0.0023	-0.0143	-0.003	0.0255	35.1
-0.0015	-0.0083	-0.0008	-0.015	35.1
-0.0008	0.0007	0.0037	-0.0233	35.1
0.0007	0.009	0.0052	-0.03	35.2
0	0.009	0.0052	-0.057	35.3
-0.0008	0.009	0.0045	-0.0691	35.4
0	0.0112	0.0037	-0.0555	35.4
0.0007	0.0142	0.003	-0.0443	35.5
0.0015	0.0172	0	-0.0428	35.5
0.0015	0.0255	0	-0.0383	35.6
0.003	0.03	-0.0008	-0.0353	35.7
0.0045	0.027	-0.0015	-0.0346	35.7
0.0045	0.0157	-0.0053	-0.0525	35.8
0.003	0.0052	-0.0068	-0.0743	35.9
0.0007	0.021	-0.0023	-0.0353	35.9
0.003	0.0382	-0.0015	0.0277	36
0.0015	0.0352	-0.003	0.0517	36
0.0007	0.0345	0.0007	0.0712	36.1
0.0015	0.0217	0.0067	0.0555	36.2
0.003	-0.003	0.0067	0.0015	36.2
0.003	-0.0165	0.006	-0.0098	36.3
0.0022	-0.027	0.0067	-0.0256	36.4
0.003	-0.0285	0.0052	-0.0563	36.4
0.0015	-0.0263	0.0052	-0.0645	36.4
0.0022	-0.027	0.0052	-0.0098	36.5
0.0015	-0.021	0.0075	0.0952	36.6
0.0037	-0.0128	0.0045	0.1387	36.7
-0.0008	-0.0278	-0.0015	0.0967	36.7
-0.0053	-0.0375	-0.0053	0.0787	36.8
-0.0046	-0.033	-0.0075	0.072	36.9
-0.0046	-0.033	-0.0083	0.0142	36.9
-0.0038	-0.0233	-0.006	-0.006	37
-0.003	-0.0143	-0.0046	-0.033	37.1
-0.0038	-0.0091	-0.003	-0.057	37.1
-0.0015	-0.0015	-0.0015	-0.0323	37.2
0	0.003	-0.0008	-0.0436	37.3
-0.0008	0.0067	0.0007	-0.057	37.3
0	0.012	0.006	-0.0578	37.4
0.0015	0.0172	0.006	-0.0578	37.5
0.003	0.0225	0.003	-0.0413	37.6
0.0045	0.0262	0.003	0.0037	37.6
0.0022	0.021	0.0015	0.0232	37.7
-0.0008	0.012	-0.0015	0.0045	37.8
-0.0015	0.009	-0.0038	-0.0083	37.8
0.0007	0.012	-0.0023	-0.006	37.9
0.0007	0.0127	-0.0046	0.0232	38
0.0007	0.0217	-0.0046	-0.0015	38
0.003	0.042	-0.0015	-0.0233	38.1
0.003	0.0465	-0.0008	0.0172	38.2
0.0015	0.0337	-0.0015	0.0255	38.2
0	0.009	-0.0008	-0.0053	38.3
-0.0015	-0.0098	0.0007	-0.0353	38.4
0.0015	-0.012	0.0037	-0.0046	38.4
0.003	-0.0158	0.0045	0.0585	38.5
0.0015	-0.0165	0.006	0.0705	38.6
0.003	-0.0098	0.006	0.072	38.6
0.003	-0.0083	0.0045	0.0832	38.7
0.0007	-0.0165	0.003	0.069	38.8
-0.0015	-0.0218	-0.0008	0.0255	38.9
-0.0015	-0.0195	-0.0008	-0.0046	38.9
-0.0008	-0.0195	-0.003	-0.0203	39
0	-0.0203	-0.0023	-0.0563	39.1
0	-0.0218	-0.0015	-0.1125	39.1
-0.0008	-0.0233	-0.0046	-0.1245	39.2
-0.0015	-0.012	-0.0068	-0.0856	39.3
0	-0.0015	-0.0053	-0.078	39.3
0.0007	0.0045	0	-0.0458	39.4
0.0007	0.0195	0.0007	0.0315	39.5
0	0.0277	0.003	0.0952	39.6
-0.0015	0.024	0.0015	0.1282	39.6
-0.0015	0.0127	0.003	0.0817	39.7
-0.0015	0	0.0045	0.009	39.7
-0.0015	-0.0128	0.0052	0.0052	39.8
0	-0.0105	0.0052	0.0052	39.9
0.0015	-0.0083	0.003	-0.0083	40
0.0007	-0.012	0.003	-0.0143	40
0.0015	-0.0083	0.0022	-0.0346	40.1
0.0015	-0.0068	-0.0008	-0.045	40.2
0.0015	-0.0075	-0.0023	-0.0465	40.2
0.0015	-0.0053	-0.0038	-0.0383	40.3
0.0015	-0.0068	-0.0046	-0.0368	40.4
0.0015	-0.0046	-0.003	-0.0158	40.5
0.0015	0.012	0.0007	0.0412	40.5
0.0007	0.0232	-0.0008	0.0277	40.6
-0.0015	0.021	-0.0015	0.009	40.6
-0.0015	0.0345	-0.0008	0.054	40.7
-0.0008	0.048	0	0.0562	40.8
-0.0023	0.0397	0.0015	0.0015	40.9
-0.0023	0.027	0.0007	-0.0503	40.9
-0.003	0.015	-0.0008	-0.063	41
-0.003	0.003	-0.0015	-0.0555	41.1
0	0	-0.0023	-0.0248	41.1
0.0015	-0.012	0	0.0045	41.2
0.0015	-0.0195	0.003	0.012	41.3
0.0015	-0.0068	0.003	0.0555	41.4
0.0007	0.0022	0.003	0.0862	41.4
0	0.0015	0.003	0.0667	41.4
-0.0008	-0.0068	0.0022	0.0397	41.5
0.0007	-0.0128	0.0022	0.033	41.6
-0.0008	-0.0233	0.0007	0.048	41.7
-0.0038	-0.039	-0.0008	0.0277	41.8
-0.003	-0.0465	-0.0008	-0.0293	41.8
-0.003	-0.0473	0.003	-0.0721	41.8
-0.0008	-0.0323	0.0067	-0.0825	41.9
0	-0.0165	0.009	-0.0721	42
0.0015	0.0022	0.0097	-0.0383	42.1
0.0022	0.0082	0.0082	-0.006	42.2
-0.0008	-0.0023	0.0015	0.0127	42.2
-0.0015	0.0037	0.0015	0.024	42.3
-0.0015	0.012	-0.0008	0.0187	42.3
-0.0008	-0.0008	-0.006	0.0465	42.4
-0.0008	-0.0105	-0.0068	0.0442	42.5
-0.0008	-0.0158	-0.012	-0.0015	42.6
-0.0008	-0.0173	-0.0128	-0.0158	42.6
-0.0008	-0.0113	-0.012	-0.0315	42.7
-0.0015	-0.0053	-0.0113	-0.048	42.8
-0.0023	0.0007	-0.006	-0.0758	42.8
0.0015	0.0067	-0.003	-0.09	42.9
0.0015	0.0165	0	-0.0743	43
0.0022	0.024	0.003	-0.078	43.1
0.003	0.03	0.0067	-0.0346	43.1
0.0037	0.0345	0.009	0.0052	43.2
0.0037	0.0375	0.0075	-0.0233	43.2
0.0022	0.0555	0.003	-0.0181	43.3
0.0037	0.0765	0.003	0.0322	43.4
0.0067	0.0787	0.0052	0.1125	43.5
0.0075	0.0577	0.003	0.177	43.5
0.003	0.0315	0	0.1777	43.6
-0.0015	0.0112	-0.0046	0.1755	43.6
-0.0046	-0.0113	-0.0075	0.1395	43.7
-0.0068	-0.0368	-0.0091	0.0667	43.8
-0.0053	-0.042	-0.0053	0.009	43.8
0.0007	-0.0315	0.003	-0.0315	43.9
0.0037	-0.0308	0.006	-0.0293	44
0.0045	-0.0278	0.009	-0.0278	44.1
0.0045	-0.0308	0.0075	-0.0368	44.1
0.0007	-0.0346	0.0067	-0.0413	44.1
0	-0.0308	0.0097	-0.0473	44.2
0.0007	-0.0293	0.0082	-0.0488	44.3
-0.0008	-0.0278	0.0045	-0.0743	44.4
-0.003	-0.0293	-0.003	-0.1058	44.4
-0.0046	-0.027	-0.0075	-0.1095	44.5
-0.0038	-0.0158	-0.0098	-0.0915	44.5
-0.0046	0.0007	-0.0113	-0.063	44.6
-0.0023	0.0165	-0.012	-0.0225	44.7
-0.0023	0.0352	-0.0128	0.0127	44.7
-0.0023	0.0585	-0.0143	0.0382	44.8
-0.0015	0.0562	-0.0113	0.0352	44.9
0	0.033	-0.0091	0.0105	45
0.0015	0.0187	-0.0038	0.0067	45
0.003	0.012	0	0.0067	45.1
0.003	0.0015	0	0.018	45.1
0.0022	-0.0105	0.0045	0.009	45.2
0.0022	-0.0218	0.006	-0.0593	45.3
0.003	-0.0195	0.0105	-0.09	45.4
0.0037	-0.015	0.0105	-0.0555	45.4
0.0045	-0.012	0.009	-0.0181	45.5
0.006	0.003	0.012	-0.0323	45.6
0.0067	0.0202	0.0157	0.0187	45.6
0.0075	0.0255	0.0127	0.165	45.7
0.0007	0.0045	-0.003	0.1462	45.8
-0.0053	-0.0128	-0.0083	0.0772	45.9
-0.0053	0	-0.0075	0.1042	45.9
-0.0038	-0.0083	-0.0105	0.1087	46
-0.0068	-0.0346	-0.0143	0.0997	46
-0.0091	-0.045	-0.0128	0.033	46.1
-0.0068	-0.0398	-0.0053	-0.0285	46.2
-0.0038	-0.0293	-0.0046	-0.048	46.3
0	-0.0181	0.0007	-0.0743	46.3
0.0007	-0.0068	0.0045	-0.057	46.4
0.0007	0.0015	0.006	-0.0443	46.5
0.0022	0.0067	0.0105	-0.0308	46.6
0.0045	0.012	0.0105	0	46.6
0.0037	0.0142	0.0082	0.0082	46.7
0.0007	0.0082	0.003	-0.0143	46.8
0.0015	0.0067	0.0022	-0.0788	46.8
0.0022	0.0105	-0.0008	-0.0938	46.9
0.003	0.0247	-0.0015	-0.0443	47
0.0045	0.0405	-0.0015	-0.0165	47.1
0.003	0.0517	-0.0046	0.0157	47.1
0.003	0.0555	0	0.0592	47.2
0.003	0.0375	-0.0008	0.048	47.3
0.0007	0.0165	-0.0038	0.0067	47.3
-0.0008	-0.0008	-0.0023	0.0135	47.4
-0.0023	-0.0173	-0.0015	0.0165	47.5
-0.0015	-0.0203	0.0045	-0.0225	47.6
0.0015	-0.012	0.0097	-0.0233	47.6
0.0022	-0.006	0.012	-0.0181	47.7
0.003	-0.0113	0.012	-0.0195	47.8
0.0022	-0.0181	0.009	0.0052	47.8
0.0015	-0.0225	0.0052	0.0112	47.9
0.0015	-0.0203	0.0007	0.021	48
0.0007	-0.0053	-0.0015	0.0397	48
0.0007	0.0105	-0.0046	0.0442	48.1
0	0.015	-0.0046	-0.0008	48.2
0.0015	0.0202	-0.0046	-0.0773	48.2
0.0015	0.0315	-0.0046	-0.108	48.3
0.0007	0.0172	-0.0053	-0.093	48.4
-0.003	-0.0113	-0.0083	-0.0615	48.5
-0.0046	-0.0203	-0.0038	-0.0225	48.5
0.0007	-0.015	0.0015	0.0645	48.6
-0.0015	-0.0203	0.0015	0.144	48.6
-0.0038	-0.0323	0.003	0.1402	48.7
-0.0023	-0.0143	0.0097	0.06	48.8
-0.0008	0.0105	0.0112	-0.0338	48.9
-0.0008	0.0165	0.009	-0.0458	48.9
0.0007	0.0202	0.0097	-0.024	49
0.0037	0.0187	0.0067	0.0217	49
0.0015	-0.003	0.0007	0.057	49.1
-0.0008	-0.0195	-0.0046	0.0555	49.2
-0.003	-0.0278	-0.0105	0.057	49.2
-0.003	-0.0218	-0.012	0.0037	49.3
-0.0015	0.0007	-0.0128	-0.0165	49.4
-0.0008	0.0097	-0.0105	-0.0105	49.5
0	0.0067	-0.0105	-0.0263	49.5
-0.0008	0.003	-0.0075	-0.0008	49.6
0	-0.003	-0.0038	0.003	49.6
-0.0008	-0.0113	0.0007	-0.027	49.7
0	-0.0135	0.0037	-0.048	49.8
0.0007	-0.0128	0.0082	-0.042	49.8
0.0015	-0.0053	0.0127	-0.048	49.9
0.0022	-0.0008	0.0127	-0.0428	49.9
0.0015	-0.0008	0.009	-0.0181	50
-0.0008	0.0052	0.0045	-0.0308	50.1
-0.0008	0.0037	0	-0.0285	50.2
-0.003	0	-0.0015	-0.0075	50.2
-0.003	-0.0091	-0.003	-0.0128	50.3
0.0007	-0.0135	-0.0053	-0.0203	50.4
-0.0008	-0.0053	-0.0068	0.0097	50.4
-0.0008	-0.003	-0.0098	0.018	50.4
-0.0023	-0.0203	-0.0128	-0.0105	50.5
-0.0046	-0.0128	-0.0113	-0.0278	50.6
-0.0023	0.0255	-0.0046	-0.0323	50.6
-0.0015	0.054	0.0015	0.0015	50.7
-0.0008	0.063	0.0075	0.066	50.8
-0.0008	0.0457	0.0082	0.093	50.8
-0.0008	0.0195	0.012	0.057	50.9
0	-0.0053	0.0165	0.0232	50.9
0.003	-0.012	0.0202	0.0315	51
0.006	-0.0098	0.0172	0.03	51.1
0.0045	-0.0173	0.0105	-0.0083	51.1
0.0045	-0.024	0.003	-0.033	51.2
0.0022	-0.0195	0.0007	-0.0361	51.3
0.0045	-0.0091	0.0015	-0.0653	51.3
0.0045	-0.0053	-0.0008	-0.0525	51.4
0.0022	0.0067	-0.0053	0.0157	51.4
-0.0015	0.0082	-0.0105	0.0705	51.5
-0.0053	-0.003	-0.012	0.0907	51.6
-0.0038	-0.0113	-0.012	0.069	51.6
-0.0046	-0.0158	-0.0105	0.0547	51.7
-0.0046	-0.0195	-0.0068	0.0352	51.7
-0.0038	-0.0218	-0.006	0.0105	51.8
-0.003	-0.0158	-0.0008	-0.0128	51.9
-0.0008	-0.003	0.006	-0.0443	52
0.0007	0.0142	0.0082	-0.0488	52
0.0015	0.027	0.006	-0.0443	52.1
0.0007	0.0225	0.006	-0.0361	52.2
0.0015	0.0127	0.0022	-0.0158	52.2
0.0007	0.0067	-0.0015	0.015	52.3
0	-0.0023	-0.006	0.0247	52.3
-0.0015	-0.006	-0.0098	-0.0068	52.4
-0.0015	-0.003	-0.012	-0.0308	52.5
0.0007	0.0007	-0.0128	-0.0353	52.6
0.0015	0.0052	-0.0091	-0.042	52.6
0.0015	0.0157	-0.0075	-0.0323	52.7
0.003	0.0195	-0.006	-0.0323	52.7
0.0022	0.012	-0.0023	-0.0458	52.8
0.0007	0.0082	0.0022	-0.0368	52.9
0.0037	0.009	0.006	-0.0383	52.9
0.0045	0.015	0.0105	-0.0105	53
0.0067	0.0345	0.0165	0.0607	53.1
0.0082	0.0405	0.0172	0.09	53.1
0.0052	0.018	0.0127	0.081	53.1
0.0015	0.0007	0.0075	0.0832	53.2
0.0007	-0.006	0.003	0.054	53.3
0.0007	-0.0046	0.0007	-0.0158	53.4
0.0007	0.0105	-0.0046	-0.048	53.4
0.0007	0.0097	-0.006	-0.054	53.5
-0.0008	-0.0038	-0.0075	-0.0465	53.5
0	-0.0105	-0.0075	-0.0248	53.6
0.0022	-0.0091	-0.0053	0.0067	53.6
0	-0.0091	-0.0105	0.0547	53.7
-0.0015	-0.0181	-0.0083	0.0292	53.8
-0.0015	-0.027	-0.0015	-0.0218	53.8
0.0007	-0.0195	0.0052	-0.0143	53.9
0.003	-0.0158	0.009	0.0052	54
0.0007	-0.0263	0.009	0.0337	54
-0.0008	-0.024	0.0127	0.0142	54.1
-0.0008	-0.0075	0.012	-0.066	54.1
0.0015	0.015	0.0112	-0.0863	54.2
0.003	0.0217	0.0082	-0.0428	54.3
0.0022	0.0165	0.003	0.0007	54.3
0.0015	0.0142	-0.003	0.045	54.4
-0.0008	0.0052	-0.0113	0.0457	54.4
-0.0046	-0.0068	-0.0165	0.0255	54.5
-0.0068	-0.0195	-0.0195	0.024	54.5
-0.0046	-0.0158	-0.0158	-0.003	54.6
-0.0015	-0.0023	-0.012	0.0045	54.7
-0.003	-0.0105	-0.0113	0.0007	54.7
-0.0015	-0.015	-0.003	-0.0443	54.8
0.0007	-0.0015	0.0052	-0.0458	54.9
0	0.0195	0.009	-0.021	54.9
0	0.033	0.012	0.0217	54.9
0.0007	0.0202	0.0142	0.0667	55
0.0007	-0.0075	0.012	0.0847	55.1
-0.0008	-0.027	0.0075	0.0697	55.1
-0.0008	-0.0293	0.0045	0.0532	55.2
0	-0.027	0.0007	0.0195	55.2
0	-0.0181	-0.0008	-0.0308	55.3
-0.0015	-0.0105	-0.003	-0.0315	55.3
-0.0023	-0.0113	-0.006	-0.024	55.4
-0.0015	-0.003	-0.0083	-0.0293	55.4
-0.0008	0.003	-0.0075	-0.054	55.5
-0.0008	0	-0.0046	-0.0728	55.6
0	0.0075	-0.0038	-0.078	55.6
0.0007	0.0367	-0.0015	-0.0368	55.7
0	0.0502	-0.0015	0.042	55.7
-0.0008	0.0502	0.0045	0.0517	55.8
0.003	0.0502	0.0105	0.0742	55.8
0.0007	0.027	0.009	0.108	55.9
-0.0023	-0.0091	0.012	0.0405	55.9
-0.0015	-0.0181	0.0142	-0.039	56
0.0015	0.0052	0.0157	-0.0518	56
0.0045	0.009	0.0082	-0.039	56.1
0.0015	-0.0091	0.003	-0.0436	56.2
0.0045	-0.015	0.0052	-0.0173	56.2
0.003	-0.012	0.0015	0.0607	56.2
-0.0008	-0.0218	-0.0046	0.081	56.3
-0.003	-0.0436	-0.012	0.021	56.3
-0.003	-0.0338	-0.012	-0.0091	56.4
0	-0.0143	-0.0083	-0.0428	56.4
-0.0008	0.0022	-0.0098	-0.0825	56.5
-0.0015	0.0292	-0.003	-0.0788	56.5
0.0007	0.027	-0.0008	-0.063	56.6
0.0015	0.0142	-0.0008	-0.0083	56.6
0.0007	0.0007	0.0015	0.036	56.7
-0.0008	-0.0098	0.0067	0.0622	56.7
-0.0008	-0.0128	0.009	0.1012	56.8
0.0007	-0.024	0.0052	0.0592	56.8
-0.0008	-0.0181	0.0067	-0.0195	56.9
0	-0.0083	0.0015	-0.027	56.9
0.0007	-0.0015	-0.0015	-0.0293	57
0.0007	0.0015	-0.003	-0.0293	57
0.0007	-0.0038	-0.0083	-0.0233	57.1
-0.0015	-0.0091	-0.0128	-0.09	57.1
-0.0008	-0.0083	-0.0143	-0.1215	57.1
-0.0008	0.0007	-0.0091	-0.054	57.2
-0.0008	0.0015	-0.012	0.0127	57.2
-0.0008	0.006	-0.0105	0.0405	57.3
-0.003	0.0135	-0.0083	0.0495	57.3
-0.0046	0.0195	-0.0068	0.0502	57.4
-0.003	0.0187	0.0015	0.0367	57.5
-0.0008	0.024	0.0045	0.018	57.5
0.0015	0.0465	0.0127	0.0375	57.6
0.0045	0.0457	0.015	0.06	57.6
0.0022	0.018	0.0105	0.0285	57.6
0.003	0.0037	0.0135	-0.039	57.7
0.0067	0.0105	0.0142	-0.1006	57.7
0.0067	0.0165	0.0105	-0.0893	57.8
0.0052	0.0232	0.0015	-0.0053	57.8
0.0022	0.0382	-0.0053	0.1042	57.9
-0.0046	0.0322	-0.0143	0.159	58
-0.0091	-0.006	-0.0173	0.1312	58
-0.006	-0.03	-0.0091	0.0787	58
-0.0008	-0.0375	-0.006	0.0352	58.1
0.0015	-0.0405	-0.0046	0.0277	58.1
0	-0.0443	-0.0015	0.0187	58.2
-0.0008	-0.057	-0.0008	-0.0046	58.2
-0.0008	-0.0533	0.003	-0.0181	58.3
0.0015	-0.0495	0.0067	-0.0428	58.3
0.003	-0.0383	0.012	-0.0518	58.4
0.0045	-0.0278	0.0135	-0.042	58.4
0.003	-0.027	0.0112	-0.033	58.5
0.0022	-0.0233	0.0052	-0.0458	58.5
0.0007	-0.0128	-0.0008	-0.075	58.5
-0.0015	0.0067	-0.0046	-0.0743	58.6
-0.0023	0.0277	-0.0098	-0.0458	58.7
-0.0023	0.0427	-0.0113	-0.042	58.7
-0.0008	0.0405	-0.0135	-0.078	58.8
-0.0015	0.03	-0.0165	-0.0818	58.8
-0.003	0.033	-0.015	-0.0195	58.9
-0.0015	0.039	-0.012	0.012	58.9
-0.0008	0.0352	-0.0053	0.0307	58.9
0.0007	0.0247	-0.0015	0.081	59
0.0007	0.0105	0.0037	0.0757	59
0.0015	0.003	0.009	0.0315	59.1
0.003	-0.0008	0.0135	0.0075	59.1
0.003	-0.0105	0.021	-0.0008	59.2
0.006	-0.0165	0.021	-0.0143	59.2
0.0052	-0.0165	0.0165	-0.0046	59.3
0.0022	-0.0195	0.0112	0.0045	59.3
0.0015	-0.0165	0.0067	-0.0308	59.4
0.0015	-0.0105	0.0015	-0.0338	59.4
0.0015	-0.0053	-0.0038	-0.024	59.4
0.0015	0.0157	-0.0053	0.0157	59.5
-0.0008	0.024	-0.0105	0.0877	59.5
-0.0068	0.003	-0.0173	0.0675	59.5
-0.0091	0.0052	-0.0158	0.0532	59.6
-0.0075	0.0135	-0.0128	0.069	59.6
-0.0053	0.012	-0.0098	0.0307	59.7
-0.003	0.0202	-0.0015	-0.0233	59.7
-0.0008	0.0367	0.0045	-0.0473	59.8
0.0015	0.048	0.009	-0.0308	59.8
0.0045	0.0472	0.0157	-0.0308	59.8
0.006	0.0382	0.0135	-0.03	59.9
0.0045	0.0292	0.0105	-0.0428	59.9
0.0052	0.0285	0.009	-0.0743	60
0.0052	0.0045	0.0075	-0.0548	60
0.0045	-0.0233	0.0067	-0.0083	60.1
0.0022	-0.0346	0.003	0.0495	60.1
-0.0008	-0.0525	-0.0038	0.093	60.2
-0.0015	-0.0608	-0.0083	0.1072	60.2
-0.003	-0.0645	-0.006	0.0562	60.3
-0.0008	-0.0593	-0.0038	-0.0143	60.3
-0.0015	-0.0465	-0.0046	-0.0458	60.3
-0.0008	-0.0375	-0.0038	-0.0728	60.4
0	-0.0218	0	-0.0578	60.4
-0.0008	-0.0158	0.003	-0.0368	60.5
-0.0015	-0.0083	0.0007	-0.024	60.5
-0.003	0.0015	0.003	0.0105	60.6
-0.0015	-0.0015	0.0037	-0.0083	60.6
-0.0008	0.0007	0	-0.0773	60.7
0.0007	0.0097	-0.0008	-0.0863	60.7
0.0015	0.0247	-0.003	-0.039	60.7
0.0007	0.03	-0.0053	-0.024	60.8
0.0015	0.033	-0.0015	-0.0008	60.8
0.0045	0.054	0.0022	0.0667	60.9
0.0052	0.0645	0.0007	0.1102	60.9
0.0015	0.063	-0.0046	0.1447	61
-0.0023	0.0427	-0.0098	0.1372	61
-0.0046	0.0232	-0.0053	0.1027	61
0.0007	0.0105	0.0015	0.1095	61.1
0.0015	-0.0135	0.0015	0.0592	61.1
0	-0.03	0.003	-0.0046	61.2
0.0007	-0.0405	0.0052	-0.0458	61.2
0.0007	-0.0353	0.0082	-0.1013	61.2
0.0022	-0.0165	0.0112	-0.078	61.2
0.0052	-0.0091	0.0105	-0.0368	61.3
0.0022	-0.0143	0.0067	-0.015	61.3
-0.0008	-0.0203	0.003	0.0195	61.4
0	-0.0135	-0.0008	0.0082	61.4
-0.0008	-0.0165	-0.0046	-0.0165	61.5
-0.0008	-0.0181	-0.0083	-0.033	61.5
0	-0.0068	-0.0105	-0.0436	61.5
0	-0.0046	-0.012	-0.0405	61.6
-0.0008	-0.0143	-0.012	-0.0368	61.6
-0.0015	-0.0285	-0.0105	-0.0443	61.6
-0.0008	-0.0375	-0.0083	-0.0938	61.7
-0.0015	-0.0225	-0.003	-0.2303	61.7
0.0015	0.03	0.0052	-0.3458	61.8
0.0052	0.0592	0.009	-0.231	61.8
0.0052	0.0442	0.0105	0.033	61.9
0.0067	0.06	0.0142	0.2602	61.9
0.003	0.063	0.0105	0.378	62
-0.0053	0.0052	0.0015	0.354	62
-0.0105	-0.0308	-0.0015	0.213	62.1
-0.0053	-0.0075	0.0052	0.0945	62.1
0.0015	0.0052	0.0082	0.0637	62.1
0.0007	-0.0143	0.003	0.018	62.1
-0.0023	-0.0285	0.0015	0.0165	62.2
-0.0023	-0.0428	0	0.0225	62.2
-0.0015	-0.0428	-0.0023	-0.0015	62.3
-0.0008	-0.0278	-0.0023	-0.0143	62.3
-0.0008	-0.0256	-0.006	-0.0615	62.4
-0.003	-0.0128	-0.0091	-0.108	62.4
-0.0015	0.0202	-0.0068	-0.1823	62.5
-0.0015	0.0277	-0.0023	-0.1553	62.5
-0.0008	0.0217	0.0015	-0.0645	62.5
0.0015	0.0345	0.0045	-0.0233	62.6
0.0007	0.0255	0.009	0.063	62.6
0.0007	0.009	0.0082	0.0945	62.7
-0.0015	0.0052	0.0045	0.078	62.7
0	-0.0053	0	0.018	62.7
0.0007	-0.0053	-0.0015	-0.0465	62.8
0.0022	-0.0015	-0.0008	-0.0383	62.8
0.003	-0.003	-0.003	-0.0436	62.9
0.0015	0.0142	-0.0008	-0.0181	62.9
0.003	0.0202	-0.0008	0.009	63
0.0022	-0.0038	-0.006	-0.0165	63
0	-0.0165	-0.006	-0.0525	63
0	-0.0135	-0.0053	-0.0915	63.1
0	-0.0128	-0.0053	-0.0848	63.1
-0.0015	-0.0158	-0.0053	-0.0548	63.1
-0.0015	-0.0083	0.0007	-0.0308	63.2
-0.0015	0.0232	0.0052	-0.0015	63.2
-0.0008	0.063	0.0082	0.0292	63.3
0.0022	0.075	0.012	0.1005	63.3
0.003	0.0442	0.012	0.1432	63.4
0.0015	-0.0038	0.006	0.1462	63.4
-0.0015	-0.0346	-0.0015	0.153	63.4
-0.0046	-0.0458	-0.0053	0.0952	63.5
-0.0015	-0.045	-0.003	0.024	63.5
0.0007	-0.033	-0.0046	-0.0083	63.5
0.003	-0.0195	-0.0046	-0.0278	63.6
0.003	-0.0113	-0.0046	-0.0413	63.6
0.003	-0.0068	-0.0068	-0.0691	63.7
0.003	0.0082	-0.0068	-0.075	63.7
0.0015	0.0315	-0.0105	-0.0915	63.8
0.0015	0.042	-0.0053	-0.132	63.8
0.0037	0.048	0	-0.1365	63.9
0.0052	0.06	0.003	-0.0885	63.9
0.006	0.0547	0.0045	-0.0315	63.9
0.0007	0.0217	0.0015	0.0315	63.9
-0.0008	-0.0165	0.0075	0.1027	64
-0.0008	-0.0315	0.0097	0.1462	64
0	-0.0361	0.0105	0.1252	64.1
0.0015	-0.0503	0.0112	0.0142	64.1
0.0022	-0.0585	0.009	-0.1583	64.2
0.0052	-0.0278	0.0105	-0.2873	64.2
0.006	0.015	0.0082	-0.1935	64.2
0.0022	0.0225	0.0045	0.0232	64.3
0.0007	0.009	-0.0023	0.171	64.3
-0.003	-0.0203	-0.0143	0.3	64.3
-0.0113	-0.0668	-0.0248	0.327	64.4
-0.012	-0.0653	-0.021	0.1867	64.4
-0.0068	-0.0353	-0.0128	0.057	64.5
-0.0068	-0.0308	-0.0091	0.0052	64.5
-0.0053	-0.0195	-0.0015	-0.0323	64.5
-0.0023	-0.0165	0.003	-0.0436	64.6
-0.0008	-0.0128	0.0082	-0.0503	64.6
0.0015	-0.0046	0.012	-0.0675	64.7
0.003	-0.003	0.009	-0.099	64.7
0.003	0.0157	0.0075	-0.1208	64.7
0.003	0.0285	0.0037	-0.0653	64.8
0.003	0.0255	-0.0046	-0.0188	64.8
-0.0015	0.024	-0.0083	0.0015	64.8
-0.0008	0.027	-0.0091	-0.0015	64.9
-0.0008	0.018	-0.0128	-0.1485	64.9
0.0007	0.0142	-0.0143	-0.3451	65
0.003	0.0262	-0.0113	-0.3458	65
0.0052	0.0577	-0.003	-0.1118	65.1
0.0067	0.0855	0	0.1267	65.1
0.0037	0.0765	-0.0015	0.2767	65.1
-0.0015	0.0525	-0.0008	0.3307	65.2
-0.0053	0.0225	0.003	0.216	65.2
-0.0015	0.0247	0.0142	0.1515	65.2
0.003	0.0367	0.0225	0.1432	65.3
0.003	0.0127	0.021	0.099	65.3
0.003	-0.0173	0.0195	0.1065	65.4
0.0022	-0.042	0.0172	0.03	65.4
0.003	-0.057	0.0142	-0.012	65.5
0.0015	-0.063	0.0112	0.012	65.5
0.0007	-0.063	0.0052	-0.027	65.5
0.0007	-0.0593	-0.0008	-0.039	65.6
-0.0015	-0.0473	-0.0038	-0.0593	65.6
-0.003	-0.0375	-0.0091	-0.0653	65.7
-0.0046	-0.021	-0.0105	-0.0645	65.7
-0.0046	-0.0083	-0.0113	-0.0706	65.7
-0.0053	-0.003	-0.0083	-0.0735	65.8
-0.0038	0.0135	-0.003	-0.0893	65.8
-0.0015	0.0232	0.0007	-0.0788	65.9
-0.0008	0.0202	0.0015	-0.0645	65.9
0.0015	0.0172	0.0052	-0.0443	66
0.0022	0.027	0.0082	-0.0203	66
0.0015	0.0307	0.0045	-0.0173	66.1
0.0015	0.0315	0.0022	-0.024	66.1
0.0037	0.0502	0	-0.0248	66.2
0.0045	0.06	0.0015	-0.0518	66.2
0.0067	0.0487	0	-0.0908	66.3
0.009	0.0307	0.003	-0.0773	66.3
0.009	0.027	0.003	-0.0938	66.4
0.0067	0.0285	-0.006	-0.1583	66.4
0.0015	0.0262	-0.0091	-0.0856	66.5
0	0.0165	-0.0091	0.1395	66.5
-0.0008	0.0105	-0.0083	0.2835	66.6
-0.006	-0.0098	-0.0128	0.3412	66.6
-0.0128	-0.0795	-0.0105	0.3225	66.6
-0.0105	-0.0945	0	0.2025	66.7
-0.003	-0.0735	0.0067	0.0915	66.7
-0.0008	-0.0713	0.0082	0.0015	66.8
0	-0.0533	0.0082	-0.024	66.8
-0.0015	-0.0443	0.0075	-0.0458	66.9
0	-0.0256	0.0045	-0.063	66.9
0.0007	-0.0195	0.003	-0.0675	67
0.0015	-0.0165	0.0022	-0.093	67
0.003	-0.0068	-0.0015	-0.0975	67.1
0.0022	-0.0083	-0.0083	-0.0915	67.1
0.0015	-0.0015	-0.0105	-0.0593	67.2
-0.0008	0.003	-0.0128	-0.0361	67.2
-0.0015	0.0052	-0.0113	-0.0008	67.3
0	0.0097	-0.0083	0.024	67.3
0	0.0045	-0.0068	-0.0233	67.4
0.0007	-0.0105	-0.0023	-0.1006	67.4
0.0015	0	0.0045	-0.1868	67.5
0.0052	0.0457	0.0105	-0.2498	67.5
0.0105	0.105	0.0157	-0.246	67.5
0.012	0.1327	0.0202	-0.135	67.6
0.009	0.1245	0.0157	0.0382	67.6
0.0015	0.111	0.0067	0.2625	67.7
-0.0068	0.0322	-0.0038	0.3945	67.8
-0.0128	-0.054	-0.0068	0.3262	67.8
-0.0083	-0.06	0.0007	0.2362	67.9
-0.0015	-0.06	0.0045	0.1275	67.9
-0.0008	-0.0683	0.0045	0.0007	68
0.0015	-0.075	0.003	-0.1028	68
0.0007	-0.078	-0.0008	-0.1568	68.1
-0.0008	-0.06	-0.003	-0.1328	68.1
0.0007	-0.024	-0.003	-0.0578	68.2
-0.0008	0.0045	-0.0038	0.0307	68.3
-0.003	0.006	-0.003	0.06	68.3
-0.0053	-0.0068	-0.0091	0.09	68.3
-0.0083	-0.0135	-0.0113	0.078	68.4
-0.0068	0.0075	-0.0068	-0.0023	68.4
-0.003	0.0217	-0.003	-0.0285	68.5
-0.003	0.012	-0.0015	-0.045	68.6
-0.0015	0.0127	-0.0023	-0.0346	68.6
0.0015	0.012	-0.0046	-0.012	68.7
0.0022	0.0067	-0.0053	-0.0278	68.7
0.003	0	-0.0038	-0.0405	68.8
0.003	0.0007	-0.0046	-0.0735	68.8
0.0045	0.0277	-0.003	-0.1028	68.9
0.006	0.054	-0.0008	-0.0953	69
0.0052	0.048	-0.0008	-0.0706	69
0.0045	0.0322	0	-0.0068	69.1
0.003	0.0247	-0.0008	0.0427	69.1
-0.0015	-0.0053	-0.003	-0.0091	69.2
-0.0038	-0.027	0.0007	-0.1426	69.3
0.0015	-0.0128	0.012	-0.2588	69.3
0.0082	0.012	0.024	-0.1928	69.3
0.0127	0.0465	0.033	0.027	69.4
0.0105	0.057	0.024	0.2737	69.5
-0.003	-0.003	0.003	0.432	69.5
-0.0105	-0.0675	-0.006	0.306	69.6
-0.0068	-0.0578	-0.0023	0.1252	69.7
-0.0015	-0.0308	0.0007	0.0405	69.7
-0.0038	-0.0278	-0.0023	-0.0465	69.7
-0.0046	-0.0203	-0.003	-0.0975	69.8
-0.003	-0.0173	-0.0046	-0.1283	69.8
-0.0008	-0.0105	-0.0015	-0.0405	69.9
0.006	0.009	0.0015	0.033	70
0.0045	0.018	-0.0053	0.0277	70
-0.0008	0.006	-0.0083	0.0172	70.1
-0.0008	0.0082	-0.0023	-0.0908	70.1
-0.0008	0.0292	-0.0015	-0.099	70.2
-0.0008	0.057	-0.0015	-0.0046	70.2
0.0007	0.0795	0.0022	0.0277	70.3
0.0015	0.0555	0.003	0.0652	70.3
0	-0.0046	0	0.0667	70.4
0.0007	-0.0293	-0.0015	-0.0315	70.5
0.0037	-0.0405	-0.0046	-0.0765	70.5
0.0037	-0.0533	-0.0046	-0.0458	70.6
0.0045	-0.0256	-0.0008	-0.045	70.6
0.0045	-0.0091	-0.0008	-0.006	70.6
0.0015	-0.0195	0	0.0652	70.7
0	-0.0443	-0.0008	0.0727	70.8
-0.0015	-0.0436	-0.0046	0.0645	70.8
-0.0068	-0.0256	-0.0105	0.0825	70.9
-0.0105	-0.0346	-0.012	0.0825	70.9
-0.0091	-0.0293	-0.0075	0.0345	71
-0.0075	-0.0165	-0.0053	-0.0615	71.1
-0.0046	-0.0015	0.003	-0.1238	71.1
0.0007	0.0075	0.0112	-0.1028	71.2
0.0045	0.0105	0.0157	-0.0495	71.2
0.0045	0.012	0.0142	-0.0038	71.3
0.0015	0.0067	0.012	-0.0038	71.3
0.0015	0.0307	0.0105	-0.0128	71.4
0.0037	0.057	0.0045	0.003	71.5
0.0015	0.0352	-0.0023	0.0375	71.5
-0.003	-0.0091	-0.0098	0.0285	71.5
-0.0015	-0.0083	-0.0068	-0.1493	71.6
0.0045	0.0195	-0.0038	-0.228	71.7
0.0067	0.0645	-0.0023	-0.1148	71.7
0.0082	0.1252	-0.0046	-0.0023	71.8
0.0045	0.1087	-0.0105	0.171	71.9
-0.0008	0.0495	-0.0083	0.174	71.9
0	0.0157	-0.003	0.0562	72
0.0015	-0.0233	0.003	0.0315	72
0.0007	-0.054	0.0082	-0.0353	72
0.0015	-0.063	0.009	-0.0405	72.1
0.0022	-0.066	0.0142	0.0285	72.2
0.0007	-0.078	0.0097	0.0952	72.2
-0.003	-0.0863	0.0045	0.1425	72.3
-0.0046	-0.084	0	0.1267	72.4
-0.0046	-0.0773	-0.0038	0.0397	72.4
-0.0038	-0.0405	-0.0046	-0.0256	72.4
-0.0038	-0.0278	-0.0105	-0.0158	72.5
-0.0075	-0.0353	-0.0143	-0.024	72.6
-0.0091	-0.0203	-0.0165	-0.0638	72.6
-0.003	0.0187	-0.0075	-0.1268	72.7
0.0045	0.051	-0.0008	-0.1125	72.7
0.003	0.042	-0.0068	-0.0353	72.8
0	0.0427	-0.0038	0.0217	72.8
0.0022	0.0412	0.0007	0.0592	72.9
0.0007	0.0277	0.0052	-0.012	73
0.0022	0.0352	0.0082	-0.0458	73
0.0052	0.0472	0.0135	0.0217	73.1
0.0067	0.0457	0.018	0.0577	73.1
0.0052	0.0255	0.012	0.0885	73.2
0	-0.0046	0.0052	0.0712	73.3
-0.0008	-0.0181	-0.0008	0.024	73.3
-0.0008	-0.0046	-0.0008	-0.0368	73.3
0.0022	0.0165	-0.0008	-0.1388	73.4
0.0015	0.0232	-0.0015	-0.2055	73.5
0.0015	0.0472	-0.003	-0.2026	73.5
0.0022	0.0675	-0.003	-0.1028	73.6
-0.0008	0.054	-0.0053	0.063	73.7
-0.0008	0.0592	-0.0091	0.1822	73.7
-0.003	0.03	-0.0128	0.1762	73.8
-0.0083	-0.0158	-0.0091	0.111	73.8
-0.0046	-0.0128	0.0015	0.0525	73.8
0.0015	-0.0195	0.0082	-0.003	73.9
0.003	-0.0383	0.0112	-0.0285	74
0.0045	-0.0518	0.0165	-0.1043	74
0.0067	-0.0578	0.0202	-0.1741	74.1
0.0082	-0.0405	0.018	-0.1973	74.2
0.009	-0.0038	0.0135	-0.1935	74.2
0.0082	0.0427	0.0082	0.024	74.2
0.003	0.0742	-0.003	0.1935	74.3
-0.003	0.0292	-0.0128	0.1972	74.4
-0.006	-0.024	-0.0165	0.2797	74.4
-0.0091	-0.045	-0.0181	0.1987	74.5
-0.0091	-0.06	-0.0165	0.108	74.5
-0.0068	-0.0518	-0.0113	0.069	74.6
-0.0015	-0.042	-0.003	-0.105	74.7
0.0015	-0.0263	0.0015	-0.1275	74.7
0.0007	-0.033	0.006	-0.1006	74.7
0.0007	-0.0383	0.0082	-0.0383	74.8
-0.0015	-0.0218	0.0075	0.0682	74.8
-0.0008	-0.012	0.0075	0.0742	74.9
-0.0008	-0.0135	0.0045	0.036	75
-0.0015	-0.012	0.0045	-0.06	75
0.0007	0.0082	0.0037	-0.123	75.1
0.0007	0.003	0	-0.2093	75.1
0.0007	0.0022	-0.0008	-0.2595	75.2
0.003	0.0082	-0.0046	-0.2011	75.2
0.0022	0.0097	-0.0083	-0.1733	75.3
0.0007	0.0217	-0.0083	-0.1381	75.3
0.003	0.0442	-0.0015	-0.096	75.4
0.0082	0.1042	0.009	-0.0818	75.4
0.0105	0.1432	0.0007	0.0165	75.5
-0.0046	0.0787	-0.0225	0.3277	75.6
-0.0181	0	-0.0218	0.558	75.6
-0.0091	0.0202	-0.0053	0.4515	75.6
-0.0046	0.0427	0.0007	0.2355	75.7
-0.0046	0.0037	0.0097	0.1087	75.7
0	-0.0278	0.0142	0.045	75.8
0.003	-0.033	0.0202	0.0097	75.9
0.0045	-0.045	0.0247	0.0315	75.9
0.0067	-0.0578	0.0232	0.0082	76
0.006	-0.081	0.0127	-0.0405	76
0.0015	-0.1133	0.0022	-0.1155	76
0.0015	-0.0968	0.0007	-0.2588	76.1
0.006	-0.0578	-0.0008	-0.3263	76.2
0.0052	-0.0233	-0.0015	-0.255	76.2
0.0022	0.0307	-0.0075	-0.0218	76.3
-0.006	0.024	-0.0195	0.2407	76.3
-0.021	-0.0653	-0.033	0.243	76.4
-0.0225	-0.0743	-0.024	0.0855	76.4
-0.0091	-0.0046	-0.0091	-0.0706	76.5
-0.0008	0.0277	-0.0053	-0.1411	76.5
0.0015	0.0495	0.0045	-0.078	76.6
0.003	0.0577	0.0082	-0.0983	76.6
0.0052	0.0585	0.012	-0.0721	76.7
0.0082	0.0885	0.012	-0.0083	76.8
0.006	0.141	0.0112	-0.0165	76.8
0.0045	0.126	0.0067	0.024	76.9
0.0007	0.06	-0.0008	0.0045	76.9
0.0007	0.0532	0.0015	0.0637	76.9
0.0007	0.0195	-0.0053	0.2175	77
-0.0053	-0.0765	-0.0128	0.2325	77.1
-0.0046	-0.1148	-0.0053	0.1192	77.1
0.0037	-0.0938	0.0052	-0.0383	77.2
0.0097	-0.0743	0.012	-0.105	77.2
0.0105	-0.0473	0.0105	-0.0405	77.3
0.0045	-0.0436	-0.0015	0.0645	77.3
-0.006	-0.0788	-0.0113	0.069	77.4
-0.0091	-0.0683	-0.0091	-0.0713	77.4
-0.0046	-0.0023	-0.0046	-0.2768	77.5
-0.0015	0.0322	0.0007	-0.3593	77.5
-0.0015	0.0277	0.006	-0.1838	77.6
0	0.0397	0.009	0.0652	77.7
0.0007	0.0457	0.0067	0.2077	77.7
-0.0008	0.0285	-0.0008	0.2512	77.8
-0.003	0.0307	-0.0046	0.1852	77.8
-0.0008	0.033	-0.006	0.0735	77.8
0.0007	0.0195	-0.0053	0.024	77.9
0.003	0.0105	-0.006	-0.0098	77.9
0.0037	-0.0091	-0.0098	-0.0488	78
0.0022	-0.0165	-0.0091	-0.0795	78
0.0037	-0.003	-0.0083	-0.1613	78.1
0.0022	0.0187	-0.0046	-0.2648	78.2
0.0052	0.0495	0.0015	-0.2573	78.2
0.0067	0.0802	0.0045	-0.1313	78.3
0.0045	0.0622	0.0037	0.0547	78.3
-0.0008	-0.006	-0.0008	0.24	78.3
-0.0068	-0.0315	0.003	0.1717	78.4
-0.003	-0.0165	0.0105	-0.0721	78.4
0.0015	-0.0098	0.0135	-0.1815	78.5
0.009	0.0337	0.0255	-0.1238	78.5
0.0127	0.0555	0.0232	0.0877	78.6
0.0052	0.0157	0.0067	0.2437	78.7
-0.0053	-0.0105	-0.0068	0.2842	78.7
-0.0098	-0.024	-0.0083	0.2017	78.7
-0.0053	-0.0315	-0.0023	0.0472	78.8
-0.003	-0.0375	-0.0015	0.0382	78.8
-0.0015	-0.0405	-0.0008	0.048	78.9
-0.0008	-0.0495	-0.0015	0.024	79
0	-0.054	-0.0023	-0.0023	79
0	-0.0488	-0.0023	-0.0165	79.1
0.0015	-0.0233	0.0022	-0.0593	79.1
0.003	0.024	0.003	-0.1238	79.2
0	0.0457	0.0022	-0.1095	79.2
-0.0008	0.036	0.003	-0.093	79.3
-0.003	0.0195	0	-0.0593	79.3
-0.0015	0.009	0	-0.054	79.4
0.0015	0.0022	-0.0008	-0.0915	79.4
0.006	0.0375	0.0052	-0.1193	79.5
0.0112	0.0652	0.0067	-0.0953	79.5
0.0052	0.0187	-0.0008	0.042	79.6
-0.0015	-0.0368	-0.0075	0.111	79.6
-0.0046	-0.0503	-0.012	0.0502	79.6
-0.003	-0.0375	-0.0053	-0.0675	79.7
0.0015	0.0052	0.003	-0.1463	79.7
0.0045	0.0652	0.0067	-0.0495	79.8
-0.0008	0.0615	-0.0015	0.093	79.8
-0.0105	-0.012	-0.0091	0.1192	79.9
-0.0105	-0.0555	-0.0015	0.0585	79.9
-0.003	-0.0428	0.0075	0.0367	80
0.0007	-0.0248	0.0105	0.129	80
0.0007	-0.0375	0.0097	0.1867	80.1
0.0007	-0.042	0.0067	0.1035	80.1
0.0015	-0.0458	0.0067	0.0007	80.1
-0.0008	-0.0555	0.0037	-0.0436	80.2
-0.003	-0.048	0	-0.1088	80.2
-0.0015	-0.0368	-0.0023	-0.1696	80.3
0	-0.0105	-0.0068	-0.1298	80.3
-0.003	0.0195	-0.0091	0.0075	80.4
-0.0023	0.0292	-0.0128	0.1537	80.4
-0.0023	0.0352	-0.012	0.0952	80.5
-0.0015	0.0682	-0.0091	-0.0315	80.5
-0.0008	0.0952	-0.0105	-0.0563	80.5
-0.0023	0.0982	-0.0053	-0.1006	80.6
-0.0008	0.0862	-0.0008	-0.0983	80.6
0.006	0.0795	0.0082	-0.0668	80.7
0.009	0.084	0.0127	0.018	80.7
0.0052	0.0382	0.009	0.1807	80.8
0	-0.0248	0.0052	0.237	80.9
-0.0008	-0.0548	0.0075	0.1515	80.9
0.0045	-0.0428	0.0135	0.024	81
0.0067	-0.0353	0.0135	0.0015	81
0.0045	-0.057	0.009	0.0352	81
0.0022	-0.0735	-0.0008	-0.015	81.1
0.0007	-0.0668	-0.0075	-0.0743	81.1
0	-0.045	-0.0143	-0.0893	81.2
-0.0046	-0.0488	-0.0181	-0.1006	81.2
-0.0046	-0.0383	-0.0091	-0.165	81.3
-0.0008	-0.0046	-0.003	-0.2026	81.3
0.0015	0.0435	0	-0.108	81.4
0	0.0577	-0.0008	0.0217	81.4
-0.003	0.0142	0	0.1162	81.4
-0.0015	0.0022	0.0052	0.1612	81.5
0	0.012	0.006	0.162	81.5
-0.0023	0.0067	0.0037	0.1537	81.6
-0.003	0.0045	0.003	0.1027	81.6
-0.0008	0.0052	0.003	0.0165	81.7
0.0015	-0.0218	-0.0015	-0.0098	81.7
0.0015	-0.0398	-0.0015	-0.0346	81.8
0.0037	-0.0323	-0.0046	-0.0721	81.8
0.003	-0.0346	-0.0053	-0.0555	81.8
0.0022	-0.0293	-0.006	-0.063	81.9
-0.0015	-0.0285	-0.0128	-0.0578	81.9
-0.0023	-0.012	-0.0128	-0.0578	82
-0.0008	0.0217	-0.0128	-0.075	82
-0.0015	0.057	-0.0105	-0.054	82.1
-0.0008	0.0787	-0.0068	-0.075	82.1
0.0007	0.075	-0.0023	-0.117	82.2
0.0045	0.0615	0.0045	-0.1328	82.2
0.0045	0.0457	0.0097	-0.1433	82.3
0.0067	0.0442	0.018	-0.1335	82.3
0.0097	0.0555	0.0187	-0.0608	82.3
0.0082	0.0615	0.0127	0.0352	82.4
0.0045	0.0255	0.0067	0.1462	82.4
-0.0015	-0.003	0.006	0.1905	82.5
0.003	0.0067	0.0142	0.129	82.5
0.0067	-0.0068	0.0082	0.171	82.6
-0.0015	-0.0353	-0.0053	0.2362	82.6
-0.0105	-0.0863	-0.012	0.1665	82.7
-0.0098	-0.1065	-0.0098	0.1222	82.7
-0.0091	-0.0953	-0.0105	0.105	82.8
-0.0113	-0.0923	-0.0105	0.0435	82.8
-0.0068	-0.0615	-0.0038	-0.0068	82.8
-0.0015	-0.0285	-0.0008	-0.081	82.9
0.0007	-0.0113	0.003	-0.15	82.9
0	-0.0068	0.0007	-0.1965	83
0.0007	0.0217	0.0045	-0.21	83
0.0052	0.0345	0.0112	-0.1268	83.1
0.0052	0.0427	0.0082	0.0127	83.1
0	0.0285	0.0015	0.1665	83.2
-0.0053	-0.0293	-0.0053	0.1995	83.2
-0.0023	-0.0383	-0.006	0.114	83.2
-0.0008	-0.0195	-0.0053	0.0007	83.3
0.0007	0.0007	-0.0083	-0.048	83.3
0.0007	0.0157	-0.0083	-0.0405	83.3
0.0022	0.0202	-0.0105	-0.0908	83.4
0.003	0.03	-0.0098	-0.1013	83.4
0.0022	0.03	-0.0091	-0.0968	83.5
0.0015	0.0105	-0.0091	-0.105	83.5
0.0022	0.012	0.0022	-0.1575	83.6
0.0097	0.039	0.0142	-0.2663	83.6
0.0142	0.0825	0.0195	-0.2925	83.7
0.0082	0.123	0.0105	-0.0871	83.7
-0.0053	0.0705	-0.0046	0.3067	83.7
-0.012	0.0097	-0.0053	0.5092	83.7
-0.0075	-0.0015	-0.0008	0.384	83.8
-0.003	0.0007	0.0037	0.129	83.8
0.0015	0.0232	0.0082	0.0172	83.9
0.0015	0.0015	0.0067	0.0787	83.9
-0.0008	-0.0091	0.0067	0.0757	84
0.0015	-0.0278	0.0052	0.0195	84
0.0022	-0.048	0.0052	-0.0091	84
0.0015	-0.048	0.0045	-0.0083	84.1
0.0015	-0.0706	0.0007	-0.0443	84.1
0.0007	-0.0721	-0.0053	-0.0795	84.1
-0.0015	-0.0653	-0.0075	-0.0653	84.2
-0.0008	-0.039	-0.003	-0.0698	84.2
-0.0008	-0.0353	-0.003	-0.063	84.3
-0.003	-0.0458	-0.0023	-0.0533	84.3
-0.0023	-0.024	-0.0015	-0.0443	84.3
-0.0008	0.0007	0.003	-0.0405	84.4
0	0.012	0.0045	-0.045	84.4
-0.0015	-0.0046	0.0022	-0.042	84.5
-0.0008	-0.0098	0.0015	-0.06	84.5
0	-0.0046	0	-0.0975	84.5
0.0037	0.0112	0.0015	-0.135	84.6
0.0082	0.0757	0.0022	-0.1305	84.6
0.0082	0.1312	-0.0015	-0.1253	84.6
0.0052	0.1162	-0.0083	-0.1193	84.7
0.0015	0.0982	-0.0075	-0.0443	84.7
-0.0008	0.0727	-0.0068	0.1365	84.7
-0.0046	0.018	-0.0068	0.3247	84.8
-0.0083	-0.0038	-0.0023	0.2872	84.8
-0.0068	-0.0233	0	0.156	84.8
-0.0038	-0.0405	0.009	0.1042	84.9
-0.0008	-0.0428	0.0165	0.045	84.9
0.0015	-0.054	0.0165	0.0157	84.9
0.0015	-0.057	0.0165	-0.0091	85
0.0015	-0.0638	0.0127	-0.0323	85
0.0007	-0.0563	0.006	-0.045	85
0	-0.0225	0.0015	-0.0615	85
0.003	0.0202	0.0015	-0.0503	85
0.0022	0.033	-0.0068	-0.054	85.1
0	0.042	-0.0105	-0.1103	85.1
0.0045	0.0517	-0.0075	-0.1935	85.1
0.0075	0.0315	-0.0038	-0.2003	85.2
0.0105	0.0165	0.0015	-0.123	85.2
0.009	0.0067	-0.0015	-0.0015	85.2
-0.0008	-0.0188	-0.0083	0.129	85.3
-0.0068	-0.039	-0.0075	0.1762	85.3
-0.0098	-0.048	-0.0068	0.2025	85.3
-0.012	-0.0713	-0.0046	0.219	85.4
-0.0091	-0.0555	-0.0008	0.117	85.4
-0.006	-0.0218	0	0.054	85.4
-0.0046	-0.0135	0.0022	0.045	85.5
-0.0015	-0.0165	0.0015	-0.024	85.5
0.0007	-0.021	-0.0015	-0.0353	85.5
0.0015	-0.0233	-0.0038	-0.0938	85.5
0.003	-0.0218	-0.0068	-0.177	85.6
0.0045	0.0367	-0.0046	-0.2168	85.6
0.009	0.1477	0.0045	-0.2858	85.6
0.0157	0.1957	0.012	-0.1905	85.7
0.0165	0.2025	0.0075	0.0712	85.7
0.0037	0.1612	-0.0113	0.282	85.7
-0.0158	-0.0203	-0.0248	0.3802	85.8
-0.0135	-0.1065	-0.0091	0.2632	85.8
-0.0023	-0.0908	0.0052	0.0937	85.8
0.0007	-0.117	0.0142	0.0502	85.9
0.0067	-0.1155	0.0217	-0.0458	85.9
0.0067	-0.1298	0.0187	-0.1095	85.9
0.0052	-0.1103	0.018	-0.1756	85.9
0.0022	-0.0885	0.0037	-0.219	85.9
-0.0053	-0.0675	-0.0105	-0.09	86
-0.0105	-0.0128	-0.0173	0.0015	86
-0.0135	0.0075	-0.0225	0.0217	86
-0.0158	-0.0203	-0.024	0.0862	86
-0.0128	-0.0135	-0.0158	0.0727	86
0	0.0457	-0.0015	-0.0615	86.1
0.0052	0.0637	-0.0008	-0.0683	86.1
0.006	0.0667	-0.0008	-0.0128	86.1
0.003	0.0292	-0.0068	0.042	86.2
-0.0023	0.0015	-0.0053	0.1425	86.2
0	0.0217	0.0022	0.0855	86.2
0.0007	0.0202	0.006	0.0142	86.2
0.0007	0.0202	0.0105	0.0195	86.2
0.0022	0.0315	0.0105	-0.0015	86.3
0.003	0.0405	0.0112	0.0015	86.3
0.0052	0.0532	0.0157	-0.0203	86.3
0.006	0.0675	0.0157	-0.042	86.3
0.0075	0.066	0.012	-0.0413	86.3
0.009	0.0622	0.009	-0.0825	86.4
0.0075	0.039	0.0045	-0.1178	86.4
0.0052	0.0075	0.003	-0.1155	86.4
0.0037	0.0187	0.0015	-0.0668	86.5
0.0015	0.0075	-0.0023	0.057	86.5
-0.0008	-0.0413	-0.0068	0.1365	86.5
-0.0023	-0.063	-0.0053	0.033	86.6
-0.0008	-0.0623	-0.0091	-0.0675	86.6
-0.0015	-0.0346	-0.012	-0.048	86.6
-0.0008	0.0285	-0.003	-0.0691	86.7
0.003	0.0885	-0.0008	-0.078	86.7
-0.0015	0.0697	-0.0068	0.0645	86.7
-0.0098	0.009	-0.0083	0.1567	86.8
-0.0053	0.0202	0.0082	0.1432	86.8
0.0007	0.024	0.0165	0.1567	86.8
0.0015	0.009	0.0202	0.0705	86.8
0.0052	0.003	0.0255	-0.0188	86.8
0.0045	-0.0518	0.0195	0.0142	86.9
0.003	-0.09	0.0157	0.0345	86.9
0	-0.1178	0.0022	0.024	86.9
-0.003	-0.132	-0.0068	-0.0323	87
-0.0015	-0.0953	-0.0105	-0.093	87
-0.003	-0.0593	-0.0188	-0.0885	87
-0.0098	-0.0555	-0.0285	-0.0398	87.1
-0.0143	-0.054	-0.0346	-0.0173	87.1
-0.0128	-0.0428	-0.0263	-0.0113	87.1
-0.0098	-0.0195	-0.0158	-0.024	87.1
-0.0023	0.0082	-0.0083	-0.066	87.2
-0.0008	0.027	-0.0015	-0.0691	87.2
0.006	0.075	0.006	-0.1305	87.2
0.0097	0.1252	0.012	-0.1823	87.3
0.009	0.153	0.015	-0.165	87.3
0.012	0.1597	0.018	-0.0983	87.3
0.0075	0.12	0.0067	0.117	87.3
-0.003	0.0232	-0.006	0.3345	87.3
-0.0046	-0.0308	-0.0008	0.315	87.4
0.0022	-0.0158	0.0067	0.096	87.4
0.0007	-0.0518	0.0075	-0.006	87.4
0.0037	-0.0593	0.015	-0.039	87.5
0.009	-0.0008	0.0202	-0.1043	87.5
0.006	0.0397	0.0097	-0.0691	87.5
-0.003	0.0157	-0.0053	-0.0053	87.5
-0.0083	-0.024	-0.0091	0.1275	87.6
-0.0105	-0.0278	-0.012	0.1485	87.6
-0.0091	-0.0293	-0.003	0.018	87.6
-0.0015	-0.0195	0.0067	0.0262	87.6
0.0007	-0.0293	0.0082	0.033	87.6
0.0015	-0.0361	0.0082	0.0037	87.7
0.0022	-0.0405	0.003	0.0037	87.7
0.0045	-0.0375	0.0007	-0.0278	87.7
0.0045	-0.0285	-0.0046	-0.033	87.7
0.003	-0.027	-0.0083	-0.045	87.7
0.0022	-0.0165	-0.0165	-0.06	87.8
0.0007	-0.0225	-0.0181	-0.0788	87.8
0.003	-0.0053	-0.0135	-0.105	87.8
0.0045	0.0307	-0.012	-0.1778	87.8
0.0052	0.0795	-0.0075	-0.303	87.8
0.0097	0.138	-0.006	-0.3285	87.9
0.009	0.1807	-0.003	-0.1778	87.9
0	0.171	-0.0068	0.1665	87.9
-0.0143	0.0817	-0.0091	0.432	88
-0.012	0.012	0.0127	0.384	88
0.0015	-0.027	0.0307	0.1965	88
0.0052	-0.075	0.0315	0.072	88.1
0.0082	-0.1043	0.0352	0.0442	88.1
0.0082	-0.1381	0.03	0	88.1
0.0045	-0.1365	0.0202	-0.0188	88.2
0.0007	-0.114	0.0015	-0.0083	88.2
-0.012	-0.1253	-0.0203	0.0465	88.2
-0.0165	-0.1028	-0.024	0.0532	88.2
-0.0113	-0.0413	-0.0233	-0.0683	88.2
-0.0083	0.003	-0.0218	-0.0653	88.3
-0.0053	0.027	-0.0173	-0.0578	88.3
-0.0015	0.0427	-0.012	-0.0721	88.3
0.0015	0.0382	-0.0091	-0.0188	88.4
0.0007	0.0345	-0.0038	0.0127	88.4
0.006	0.0382	0.0045	0.0232	88.4
0.0075	0.015	0.006	-0.0143	88.5
0.0052	0.0045	0.0097	-0.0308	88.5
0.006	0.0052	0.012	-0.0856	88.5
0.0045	0.0157	0.0097	-0.1028	88.6
0.0045	0.0465	0.0105	-0.0511	88.6
0.0022	0.0532	0.0052	0.0007	88.6
-0.0046	0.0472	-0.0008	0.0442	88.6
-0.003	0.0682	0	-0.0053	88.6
-0.0008	0.093	-0.0038	0.009	88.7
-0.003	0.099	-0.0068	0.0615	88.7
-0.0008	0.069	-0.0091	0.0705	88.7
0	0.0165	-0.0083	0.0787	88.8
0.0015	0.003	0.0045	0.0345	88.8
0.006	-0.0023	0.0127	-0.0053	88.8
0.0082	-0.0068	0.012	-0.0458	88.8
0.0045	0.0015	0.0067	-0.0473	88.9
0.0007	-0.0361	0.003	0.012	88.9
-0.0008	-0.0803	0.0052	0.0645	88.9
-0.0038	-0.09	0.003	0.0465	89
-0.0046	-0.0915	0.0052	-0.015	89
-0.003	-0.0848	0.0082	-0.0053	89
-0.0008	-0.0683	0.009	-0.0105	89.1
0.0022	-0.0548	0.009	-0.0346	89.1
0.0052	-0.0346	0.006	-0.0488	89.1
0.006	-0.0015	0.0015	-0.0653	89.1
0.0022	0.0277	-0.0091	-0.0315	89.1
-0.003	0.0457	-0.0181	-0.0046	89.2
-0.0068	0.0255	-0.0285	0.015	89.2
-0.0091	-0.0053	-0.0278	0.042	89.2
-0.0053	0.0045	-0.0143	0.0202	89.2
-0.0008	0.0157	-0.0075	-0.012	89.3
0.0007	0.0105	-0.0008	-0.0105	89.3
0.0015	0.0232	0.0015	-0.0143	89.3
0.0022	0.0277	0.0037	-0.0346	89.4
0.003	0.0345	0.0105	-0.0623	89.4
0.003	0.0375	0.0112	-0.0368	89.4
0.0022	0.0585	0.018	0.012	89.5
0.003	0.0787	0.0202	0.0555	89.5
0.0007	0.0352	0.0142	0.1125	89.5
0.0007	0.0412	0.0135	0.0862	89.5
0.0045	0.0367	0.0135	0.0457	89.5
0.0045	-0.0008	0.0127	0.0502	89.6
0.0037	-0.0248	0.0045	0.0315	89.6
0.0007	-0.057	-0.0015	0.0082	89.6
-0.0008	-0.0788	-0.0068	0.003	89.7
-0.0046	-0.0968	-0.0128	0.006	89.7
-0.0068	-0.0915	-0.0158	-0.012	89.7
-0.0068	-0.0825	-0.0203	-0.0375	89.8
-0.0075	-0.048	-0.0165	-0.0503	89.8
-0.0053	-0.0173	-0.0128	-0.045	89.8
-0.003	-0.006	-0.0083	-0.033	89.9
-0.0015	0.0157	-0.003	-0.0315	89.9
0	0.024	0.0007	-0.0308	89.9
0.0015	0.0217	0.0045	-0.024	89.9
0.003	0.0195	0.0037	-0.0233	90
0.003	0.018	-0.0008	-0.0285	90
0.0045	0	-0.0068	-0.0735	90
0.006	0.0112	-0.0053	-0.1628	90
0.0082	0.0555	-0.0015	-0.1935	90.1
0.009	0.096	-0.0015	-0.1238	90.1
-0.0008	0.1027	-0.0075	0.069	90.1
-0.0083	0.0622	-0.0113	0.2272	90.2
-0.0083	0.0502	-0.0008	0.192	90.2
-0.0038	0.0765	0.009	0.1327	90.3
-0.003	0.0675	0.009	0.1027	90.3
-0.003	0.0172	0.0142	0.1065	90.3
0.0007	-0.0315	0.018	0.1095	90.4
0.0015	-0.0653	0.021	0.0967	90.4
0.0045	-0.0765	0.0225	0.0255	90.4
0.0067	-0.0856	0.0165	-0.0368	90.5
0.0045	-0.0871	0.0097	-0.0075	90.5
0.0007	-0.0863	-0.0015	-0.0503	90.5
-0.003	-0.0713	-0.0105	-0.0698	90.6
-0.0015	-0.0165	-0.0158	-0.099	90.6
-0.0015	0.0427	-0.0143	-0.1118	90.7
-0.0008	0.0885	-0.0128	-0.06	90.7
0.0015	0.1035	-0.0128	-0.042	90.8
0.003	0.0637	-0.0091	0.0015	90.8
0.003	0.0142	-0.0068	-0.0098	90.8
0.003	-0.0083	0.0015	-0.027	90.8
0.0052	-0.0015	0.0067	-0.0225	90.9
0.0045	-0.0158	0.0082	-0.0233	90.9
-0.0008	-0.0706	0.0052	0.033	90.9
-0.0038	-0.0885	0.0067	0.075	91
-0.0046	-0.0968	0.0045	0.069	91
-0.0068	-0.0833	-0.0015	0.036	91.1
-0.0075	-0.0533	-0.0015	-0.0083	91.1
-0.0068	-0.0458	-0.003	-0.0143	91.1
-0.0046	-0.0278	-0.006	-0.0091	91.2
-0.0023	-0.0075	-0.0105	-0.045	91.2
0	0.024	-0.0105	-0.084	91.3
0.003	0.0607	-0.0113	-0.108	91.3
0.003	0.09	-0.0113	-0.0743	91.3
0.0037	0.1365	-0.0068	0.012	91.3
0.0075	0.1875	-0.003	0.0307	91.3
0.0052	0.1792	0.0015	0.0285	91.4
0.0045	0.126	0.0015	0.084	91.4
0.006	0.0967	0.0075	0.1065	91.5
0.0067	0.063	0.0142	0.1065	91.5
0.0045	-0.0218	0.0165	0.0855	91.5
0.0052	-0.0975	0.0202	0.0255	91.6
0.0045	-0.1478	0.0202	0.0052	91.6
-0.0008	-0.1763	0.0157	0.0337	91.7
-0.0023	-0.1703	0.0052	0.0367	91.7
-0.0068	-0.1568	-0.003	-0.012	91.7
-0.0083	-0.1328	-0.0083	-0.039	91.8
-0.0083	-0.1013	-0.015	-0.0555	91.8
-0.0105	-0.0653	-0.0181	-0.066	91.8
-0.0091	-0.0443	-0.0188	-0.0908	91.8
-0.0046	-0.0091	-0.0143	-0.1208	91.9
0.0007	0.0442	-0.0091	-0.1013	91.9
0.003	0.0817	-0.0083	-0.0593	92
0.0015	0.108	-0.0091	0.0105	92
-0.003	0.096	-0.012	0.0682	92
-0.0068	0.0495	-0.0053	0.075	92.1
-0.003	0.021	0.0082	0.087	92.1
0	0.0202	0.0225	0.0855	92.2
0.0037	0.0157	0.0292	0.0382	92.2
0.0045	0.0082	0.024	0.0375	92.2
0.0037	-0.0075	0.0195	0.0247	92.2
0.0007	-0.0091	0.0082	-0.0105	92.3
-0.0015	-0.0008	0.0007	-0.0091	92.3
0	-0.003	-0.003	-0.0315	92.4
-0.003	0.0045	-0.0075	-0.0353	92.4
-0.0023	0.0105	-0.0091	-0.0383	92.4
-0.0008	0.0142	-0.0105	-0.0353	92.5
-0.0015	0.0202	-0.0083	-0.027	92.5
0.0007	0.036	-0.0075	-0.0346	92.6
0.003	0.0502	-0.0098	-0.0233	92.6
0.0045	0.0547	-0.0053	-0.0248	92.6
0.006	0.0712	-0.0008	-0.0195	92.7
0.0052	0.0667	0.0015	0.0022	92.7
0.003	0.0502	0.0082	0.0127	92.7
0.006	0.069	0.012	0.0165	92.7
0.0037	0.0615	0.012	0.0435	92.8
0.0037	0.0442	0.0172	0.0502	92.8
0.006	0.045	0.0225	0.0142	92.9
0.006	0.0232	0.0232	0.0052	92.9
0.0082	-0.0091	0.021	-0.0046	92.9
0.006	-0.0436	0.0142	-0.0068	93
0.0015	-0.0788	0.0045	0.0382	93
-0.0053	-0.1073	-0.0038	0.0607	93.1
-0.006	-0.1095	-0.0053	0.0247	93.1
-0.0053	-0.123	-0.0091	0.0037	93.1
-0.0075	-0.1238	-0.015	-0.0165	93.1
-0.0053	-0.0915	-0.0203	-0.0555	93.2
-0.0068	-0.0713	-0.024	-0.0653	93.2
-0.0053	-0.0443	-0.0218	-0.0615	93.3
-0.0053	-0.0165	-0.0165	-0.0308	93.3
-0.0053	-0.0075	-0.0083	0.0082	93.4
-0.003	-0.0023	-0.0015	0.0345	93.4
-0.003	0.0007	-0.0015	0.0705	93.4
-0.003	0.0007	0.003	0.054	93.5
0.0015	0.0232	0.0112	-0.0068	93.5
0.0067	0.033	0.009	-0.0038	93.6
0.0052	0.03	0.0045	-0.0046	93.6
0.0052	0.036	0.0007	-0.0181	93.6
0.0037	0.0285	-0.006	-0.0091	93.6
0.0022	0.018	-0.0105	-0.0233	93.7
0.0015	0.0112	-0.0135	-0.027	93.7
0.0045	0.024	-0.0143	-0.0525	93.8
0.0075	0.048	-0.0113	-0.0863	93.8
0.0082	0.0915	-0.006	-0.0915	93.8
0.009	0.1627	-0.0053	-0.0758	93.9
0.0022	0.1897	-0.0053	-0.0195	93.9
-0.0038	0.1522	0	0.06	94
-0.0023	0.0892	0.009	0.0945	94
0.0037	0.045	0.0255	0.0825	94
0.0112	0.0495	0.039	0.0825	94
0.012	-0.0098	0.0382	0.129	94
0.0067	-0.1463	0.03	0.1455	94.1
0.0052	-0.2041	0.0217	0.0142	94.1
0.0015	-0.2093	0.006	-0.0795	94.1
-0.0046	-0.1515	-0.0053	-0.111	94.2
-0.0075	-0.0638	-0.0203	-0.1103	94.2
-0.0165	-0.0728	-0.0323	0.0405	94.3
-0.0195	-0.0638	-0.027	0.1207	94.3
-0.0135	-0.003	-0.0165	0.0735	94.3
-0.0068	-0.006	-0.003	0.0382	94.4
-0.0015	-0.0293	0.006	0.0285	94.4
0.0007	-0.0263	0.009	0.0405	94.4
0.0007	-0.0315	0.006	0.0442	94.5
0.0007	-0.0165	0.0022	-0.0008	94.5
0	-0.0015	0.0007	-0.054	94.5
-0.0023	0	-0.0008	-0.057	94.5
-0.0015	0.0045	0	-0.0615	94.6
-0.0015	0.0142	-0.0015	-0.0563	94.6
-0.0008	0.0345	-0.0023	-0.0458	94.6
0.0037	0.033	0	-0.0503	94.7
0.0045	0.0352	-0.0008	-0.0353	94.7
0.0052	0.0345	-0.0008	-0.0278	94.8
0.0045	0.0255	-0.0015	-0.0165	94.8
0.0045	0.0442	-0.0053	-0.0203	94.8
0.0045	0.084	-0.0068	-0.0555	94.9
0.0037	0.135	-0.0113	-0.0825	94.9
0.003	0.1567	-0.0143	-0.0548	94.9
-0.0038	0.0997	-0.0195	-0.0091	94.9
-0.0053	0.0225	-0.0143	-0.0113	95
0.0015	0.0232	0.0007	-0.0263	95
0.0082	0.0562	0.0142	0.0097	95
0.0105	0.0525	0.03	0.0615	95.1
0.012	0.0435	0.036	0.0352	95.1
0.0142	0.0232	0.0345	0.027	95.1
0.0045	-0.0383	0.0277	0.0862	95.2
-0.003	-0.108	0.0165	0.1597	95.2
-0.0053	-0.1515	0.0105	0.171	95.2
-0.0075	-0.15	0.0015	0.0615	95.3
-0.0083	-0.1478	-0.0128	0.0277	95.3
-0.012	-0.156	-0.021	-0.0046	95.3
-0.012	-0.126	-0.0256	-0.0511	95.3
-0.0135	-0.093	-0.0308	-0.0188	95.3
-0.0105	-0.0593	-0.027	-0.0525	95.4
-0.0053	-0.0158	-0.021	-0.0691	95.4
0.0007	0.0187	-0.0158	-0.099	95.4
0.003	0.0637	-0.0128	-0.108	95.4
0.0022	0.0877	-0.0053	-0.0533	95.5
0.0007	0.0885	0.003	-0.0083	95.5
0.0007	0.1387	0.009	0.0232	95.5
0.0045	0.1732	0.0157	0.0015	95.6
0.006	0.159	0.0225	0.0022	95.6
0.009	0.1335	0.0232	0.0195	95.6
0.0097	0.0862	0.0202	0.0307	95.7
0.0082	0.0457	0.0157	0.0172	95.7
0.006	-0.0233	0.0135	0.039	95.7
0.0052	-0.0713	0.0142	0.0645	95.7
0.0067	-0.0968	0.0105	0.0427	95.8
0.0052	-0.1238	0.0052	0.0637	95.8
0.0007	-0.123	-0.0046	0.027	95.8
-0.0068	-0.1283	-0.0158	-0.0046	95.8
-0.0105	-0.1223	-0.0256	-0.0158	95.8
-0.0135	-0.108	-0.0293	-0.0615	95.9
-0.0143	-0.084	-0.0278	-0.0638	95.9
-0.0128	-0.027	-0.0233	-0.0593	95.9
-0.0068	0.0487	-0.0105	-0.054	96
0.0007	0.099	0.0007	-0.0555	96
0.0037	0.1035	0.009	-0.0503	96
0.0045	0.078	0.0105	-0.0105	96.1
0.0045	0.0472	0.0142	0.069	96.1
0.0067	0.0262	0.0195	0.1042	96.1
0.0075	-0.027	0.0195	0.0645	96.1
0.0052	-0.0555	0.012	0.0247	96.2
0.003	-0.0525	-0.003	-0.0105	96.2
-0.0015	-0.0615	-0.0128	-0.0158	96.2
-0.0015	-0.0353	-0.0181	-0.0465	96.3
-0.0008	0.0037	-0.0188	-0.1065	96.3
0.0007	0.0517	-0.015	-0.132	96.3
0.0015	0.0982	-0.0128	-0.1163	96.3
-0.0008	0.12	-0.0135	-0.0091	96.3
-0.003	0.1267	-0.0053	0.1012	96.3
0.0022	0.1162	0.0082	0.1125	96.4
0.0067	0.1005	0.0225	0.093	96.4
0.0067	0.0525	0.033	0.1192	96.4
0.012	-0.0068	0.0405	0.1425	96.5
0.0105	-0.0593	0.042	0.0832	96.5
0.0082	-0.1088	0.0337	0.0285	96.5
0.0045	-0.1133	0.018	-0.0143	96.5
-0.0008	-0.0653	0.003	-0.0818	96.6
-0.0015	-0.0068	-0.0075	-0.0893	96.6
-0.0053	0.036	-0.0195	-0.0653	96.6
-0.0083	0.0345	-0.0233	0.006	96.6
-0.0083	-0.0046	-0.0203	0.0382	96.7
-0.0053	-0.0083	-0.0128	-0.0015	96.7
0.0007	-0.0165	-0.0046	0.0307	96.7
0.0022	-0.0563	0.0015	0.003	96.7
0.0007	-0.0706	0.0045	-0.012	96.7
-0.003	-0.0585	0	0.0082	96.8
-0.0053	-0.033	-0.003	-0.0233	96.8
-0.0038	-0.015	-0.0068	-0.027	96.8
-0.0038	0.0067	-0.0075	-0.0578	96.8
-0.0046	0.0322	-0.0046	-0.06	96.9
-0.0023	0.0285	-0.0053	-0.0458	96.9
-0.0015	0.0112	-0.0023	-0.0293	96.9
0.0007	0	-0.0053	-0.0143	97
-0.0015	-0.0068	-0.0091	-0.0278	97
-0.0053	-0.0188	-0.0113	-0.006	97
-0.0015	-0.0278	-0.0113	0.0157	97
-0.0015	-0.0173	-0.0128	0.0255	97.1
-0.0008	0.0082	-0.012	-0.0165	97.1
0.0052	0.0592	-0.0068	-0.0878	97.1
0.0082	0.1297	-0.006	-0.1418	97.1
0.0052	0.177	-0.0008	-0.1118	97.2
-0.0023	0.1395	0.0052	0.0292	97.2
-0.0053	0.069	0.0187	0.1462	97.2
0.003	0.018	0.033	0.228	97.2
0.0067	-0.0233	0.0367	0.2062	97.2
0.0082	-0.042	0.0442	0.1155	97.3
0.0105	-0.084	0.0345	0.0645	97.3
0.003	-0.1155	0.0142	0.0135	97.3
0	-0.075	0.003	-0.0098	97.3
-0.0008	-0.0383	-0.0068	-0.0383	97.4
0.0007	-0.0188	-0.006	-0.0533	97.4
0.003	0.0082	-0.0091	-0.0383	97.4
-0.0023	-0.012	-0.0158	-0.0308	97.5
-0.0023	-0.0308	-0.0181	-0.0173	97.5
-0.0015	-0.0353	-0.0203	-0.0256	97.5
-0.0046	-0.057	-0.0181	-0.0188	97.5
-0.0053	-0.0638	-0.0181	-0.0105	97.6
-0.0083	-0.0765	-0.0165	-0.0413	97.6
-0.0075	-0.0638	-0.012	-0.0623	97.6
-0.0075	-0.042	-0.0068	-0.042	97.6
-0.0083	-0.0165	-0.0008	-0.0203	97.6
-0.0068	0.0112	0.003	-0.0195	97.7
-0.0023	0.0375	0.0067	-0.006	97.7
0.003	0.0802	0.0097	0.0255	97.7
0.0052	0.0967	0.0067	0.039	97.7
0.006	0.0892	-0.0008	-0.0128	97.8
0.0067	0.0675	-0.0046	-0.0488	97.8
0.009	0.0562	-0.0083	-0.0158	97.8
0.0082	0.084	-0.0143	0.0562	97.8
0.0067	0.075	-0.015	-0.0053	97.9
0.0052	0.0262	-0.0105	-0.1538	97.9
-0.0008	0.0052	-0.0091	-0.0915	97.9
-0.0105	-0.0518	-0.0091	0.0352	98
-0.0165	-0.1013	0.0007	0.15	98
-0.0091	-0.06	0.018	0.165	98
-0.0038	-0.0375	0.0307	0.1252	98
0.003	-0.0158	0.042	0.1387	98.1
0.0112	0.0082	0.042	0.0472	98.1
0.0082	-0.0008	0.0307	-0.0046	98.1
0.0037	-0.0315	0.0195	-0.0398	98.1
0.003	-0.0668	0.009	-0.0623	98.1
0.0015	-0.063	0	-0.0585	98.2
-0.0015	-0.0465	-0.0091	-0.063	98.2
-0.0015	-0.012	-0.0143	-0.03	98.2
-0.0015	0.0127	-0.0181	-0.0248	98.2
-0.0015	0.033	-0.0195	-0.0218	98.3
-0.003	0.0427	-0.0188	-0.0375	98.3
-0.003	0.0405	-0.0143	-0.0233	98.3
0.0015	0.042	-0.0075	0	98.3
0.0015	0.018	-0.006	-0.003	98.4
0.0007	0.0007	-0.0053	0.0007	98.4
0.0007	-0.0015	-0.003	-0.0098	98.4
0.0015	0.0067	-0.0008	-0.006	98.5
0.0007	0.0105	0.0015	-0.0068	98.5
0.0007	0.0112	0.0015	-0.006	98.5
0.0007	0.0082	0.0045	0.0015	98.5
0.0007	0.0142	0.006	-0.003	98.5
0.0022	0.0232	0.0052	0.0015	98.5
0.003	0.0142	0.0067	0.0067	98.6
0.003	0.0067	0.003	0.0052	98.6
0.0022	-0.0008	0.0007	0.0052	98.6
0.0022	0.0105	-0.0015	0.0007	98.7
0.0037	0.0202	-0.0053	-0.0128	98.7
0.0015	0.015	-0.0083	-0.0405	98.7
0.003	0.027	-0.0068	-0.0555	98.7
0.006	0.0705	-0.0046	-0.0405	98.8
0.0037	0.1065	-0.003	-0.063	98.8
0.0007	0.0825	-0.0008	-0.0315	98.8
-0.0053	0.0052	-0.0023	0.093	98.8
-0.0091	-0.054	0.0075	0.1537	98.9
-0.003	-0.048	0.0195	0.1125	98.9
0.0015	-0.042	0.024	0.072	98.9
0.003	-0.063	0.0255	0.0637	99
0.003	-0.0848	0.0142	0.0165	99
0	-0.0856	0.0015	-0.0113	99
-0.0015	-0.0615	-0.0105	-0.027	99
-0.0015	-0.042	-0.0173	-0.048	99
-0.0038	-0.0315	-0.0218	-0.054	99
