File Name: 10Nsen.log
Channel 1: 'RF', 29220 values, engineering units: mV, no filters.
Channel 2: 'BF', 29220 values, engineering units: mV, no filters.
Channel 3: 'VM', 29220 values, engineering units: mV, no filters.
Channel 4: 'ST', 29220 values, engineering units: mV, no filters.
Channel 5: 'FX', 1461 values, engineering units: deg, no filters, extrapolated from 50 to 1000 samples per second.

-0.0008	0.0007	0.0007	-0.0008	70.2
-0.0015	0.0007	0.0015	0.0007	70.2
-0.0008	0	0.0022	0.0007	70.2
-0.0008	0	0.0022	-0.0008	70.2
-0.0008	0	0.003	0.0007	70.2
-0.0008	0.0007	0.003	-0.0008	70.2
0	0.0007	0.0007	-0.0008	70.2
0.0007	0.0007	0.0015	-0.0008	70.2
0.0015	-0.0008	0.0007	-0.0015	70.2
0.0015	0	0.0015	-0.0015	70.2
0.0015	-0.0008	0.0015	-0.003	70.2
0.0015	0	0.0007	-0.0046	70.2
0.0015	-0.0008	0.0015	-0.0053	70.2
0.0015	-0.003	0.0007	-0.0053	70.2
0.0015	-0.0015	0.0022	-0.0046	70.2
0.0015	-0.0023	0.0007	-0.003	70.2
0.0007	-0.0015	0.0007	-0.003	70.2
0.0015	-0.0008	0	-0.0023	70.2
0.0022	-0.0015	-0.0015	-0.0015	70.2
0.0015	-0.0015	-0.0008	-0.0015	70.2
0.0015	-0.0008	0.0007	-0.0008	70.2
0.0007	-0.0015	0.0007	0.0007	70.2
0.0007	-0.0023	0.0015	-0.0008	70.2
0.0007	-0.0008	0.0037	-0.0015	70.2
0	-0.0015	0.0015	-0.0008	70.2
0	-0.003	0.0007	-0.0015	70.2
-0.0008	-0.0023	0	-0.003	70.2
0.0015	-0.0015	0	-0.003	70.2
0.0007	-0.0008	0.0007	-0.0008	70.2
-0.0008	0.0015	0.0007	-0.0023	70.2
0	0.0015	0.003	-0.0015	70.2
0.0007	0.0015	0.003	0.0007	70.2
0.0015	0.0022	0.0015	0.0007	70.2
0.0022	0.0015	0.0015	0.0022	70.2
0.0007	0.0015	0.0015	0.0022	70.2
0.0007	0.0022	0.003	0.0015	70.2
0	0.003	0.0015	0.0015	70.2
-0.0015	0.0015	-0.0015	0.0015	70.2
-0.0023	0.0015	-0.0038	0.0015	70.2
-0.0008	0.0007	-0.0046	0.0022	70.2
0.0007	0	-0.0046	0.0022	70.2
-0.0008	0.0022	-0.003	0.0015	70.2
-0.0015	0.0015	-0.0046	0.0007	70.2
-0.0015	0.0015	-0.0053	0.0022	70.2
-0.0015	0.0015	-0.0023	0.003	70.2
-0.003	0.0007	-0.0015	0.0037	70.2
-0.0023	-0.0008	-0.0038	0.003	70.2
0.0007	-0.0015	-0.003	-0.0008	70.2
0.0007	-0.0008	-0.0008	-0.0008	70.2
0.0015	-0.0015	0.0015	0	70.2
0	-0.0008	0.0037	-0.0008	70.2
0.0015	-0.0008	0.0015	0.0015	70.2
0.0015	-0.003	0.0007	0.0022	70.2
-0.0008	-0.0008	-0.0008	0.0015	70.2
0.0007	-0.0023	-0.0008	-0.0008	70.2
-0.0008	-0.0015	-0.0015	-0.0008	70.2
0	-0.0008	-0.0015	0.0007	70.2
-0.0008	-0.0008	-0.003	0	70.2
-0.0008	0.0007	-0.003	0.0007	70.2
0.0007	0.0007	-0.0046	0.0037	70.2
0	0.0015	-0.0053	0.0045	70.2
0.0015	0.003	-0.0015	0.003	70.2
0.0007	0.003	-0.0008	0.0015	70.2
-0.0008	0.003	0.0007	0.0007	70.2
0.0007	0.0022	0.0015	0	70.2
0.0007	0.003	0.0037	-0.0008	70.2
0.0007	0.0015	0.0045	0	70.2
0.0015	0.0015	0.0045	0.0015	70.2
0.0007	0.0037	0.0045	0.0015	70.2
-0.0008	0.003	0.0045	0.0045	70.2
-0.0008	0.0015	0.0037	0.0037	70.2
-0.0015	0.0015	0.0015	0.0015	70.2
-0.003	0.0022	-0.0008	0.0015	70.2
-0.0008	0.0015	-0.0038	0.0007	70.2
-0.0008	0.0015	-0.003	0.0015	70.2
-0.0008	0	-0.0015	0.0007	70.2
0	0.0007	0	-0.0008	70.2
0	0.0007	0.0007	-0.0008	70.2
-0.0008	0.0007	0.0007	-0.0015	70.2
0.0007	-0.0008	0.003	-0.003	70.2
0.0015	-0.0015	0.0037	-0.0015	70.2
0.0015	-0.0015	0.0037	-0.0038	70.2
0.003	-0.0023	0.0015	-0.003	70.2
0.0015	-0.0015	0.0015	0.0007	70.2
0.0022	-0.0015	0.003	-0.0008	70.2
0.0045	0	0.003	0	70.2
0.0037	0.0007	0.0067	0.0022	70.2
0.0022	-0.0008	0.0045	0.0015	70.2
0.0015	-0.0008	0.003	0.0022	70.2
0	0	0.0007	0.0015	70.2
0.0007	0.0015	0	0.003	70.2
0.0015	0.0015	0.003	0.0037	70.2
0.0007	0.0022	0	0.0007	70.2
0.0015	0.003	0.0015	0.0015	70.2
0.0007	0.003	-0.0008	0.0015	70.2
-0.0015	0.003	-0.0023	0.0007	70.2
-0.0023	0.0022	-0.0046	0	70.2
-0.0023	0.0037	-0.0068	-0.0015	70.2
-0.0038	0.0022	-0.0091	-0.0008	70.2
-0.003	0.0007	-0.012	-0.003	70.2
-0.003	-0.0008	-0.0075	-0.003	70.2
-0.0023	0.0007	-0.0075	-0.0008	70.2
-0.0008	0.0007	-0.0091	0.0007	70.2
-0.0008	-0.0008	-0.0068	-0.003	70.2
-0.0008	-0.0015	-0.0038	-0.006	70.2
0.0007	-0.0023	0.003	-0.0068	70.2
0.0015	-0.0015	0.009	-0.0046	70.2
0.003	-0.0015	0.0127	-0.003	70.2
0.003	-0.0008	0.0127	-0.003	70.2
0.003	0.0015	0.012	-0.0015	70.2
0.0022	0.0015	0.0082	-0.0008	70.2
-0.0008	0.0015	0.0067	0.003	70.2
-0.0015	0.0037	0.0052	0.0015	70.2
-0.0015	0.0015	0.0007	-0.0015	70.2
-0.003	0.0015	-0.0023	-0.0023	70.2
-0.003	0.0015	-0.0053	0	70.2
-0.003	0.0015	-0.0083	0.0007	70.2
-0.0015	0.003	-0.0091	0.0015	70.2
-0.0015	0.003	-0.0083	0.0015	70.2
-0.0015	0.003	-0.012	0.0015	70.2
-0.0008	0.0015	-0.0165	0.003	70.2
0.0007	0.0007	-0.0203	0.0037	70.2
0.003	0.0007	-0.0203	0.0037	70.2
0.0052	-0.0015	-0.0128	-0.0015	70.2
0.0045	-0.003	-0.0038	-0.0046	70.2
0.0045	-0.0008	0.009	-0.0015	70.2
0.0037	-0.0008	0.0202	-0.0015	70.2
0.0007	-0.0015	0.027	-0.003	70.2
0.0007	-0.0015	0.0345	-0.003	70.2
0.0015	-0.0008	0.0345	-0.0015	70.2
0.0007	0.0007	0.0315	-0.0008	70.2
-0.0008	0	0.0232	-0.0008	70.2
-0.0008	0.0007	0.012	-0.0015	70.2
-0.0008	0	0.0075	-0.0023	70.2
-0.0023	-0.0015	0.0007	-0.0015	70.2
-0.0023	-0.0008	-0.0023	0.0007	70.2
-0.0015	0.0007	-0.0053	0.0007	70.2
-0.0015	0	-0.006	0.0015	70.2
0	0.0007	-0.0083	0.0022	70.2
0.0007	0.0015	-0.0091	0.0015	70.2
0.0007	0.0015	-0.0083	0.0015	70.2
0.0007	0.0015	-0.0091	0	70.2
-0.0008	0.0015	-0.0068	-0.0023	70.2
-0.0008	0.0022	-0.0083	-0.0015	70.2
-0.0008	0.0037	-0.0091	0	70.2
-0.0008	0.003	-0.006	0.0007	70.2
-0.0015	0.003	-0.0046	0	70.2
-0.0015	0.0022	-0.0046	0	70.2
0.0015	0.0007	-0.003	-0.0015	70.2
0.0015	0.0015	-0.003	-0.003	70.2
0.0015	0.0007	-0.003	-0.0038	70.3
0.0007	0	-0.003	-0.003	70.3
0	0.0007	-0.0046	0	70.3
0.0015	-0.0008	-0.003	0.0007	70.3
0.0015	-0.0015	-0.003	-0.0008	70.3
0.0015	-0.0008	-0.003	0.0007	70.3
0.003	0.0007	-0.003	0.0007	70.3
0.0022	0	-0.0046	-0.0008	70.3
0.003	0	-0.0046	-0.0008	70.3
0.003	-0.0008	-0.0046	-0.0015	70.3
0.0022	-0.0008	-0.0008	-0.0015	70.3
0.0007	-0.0008	0.0007	-0.0008	70.3
-0.0008	-0.0023	0	0	70.3
-0.0015	-0.003	-0.0015	-0.0015	70.3
-0.0008	-0.0008	-0.0008	-0.0008	70.3
-0.0008	-0.0008	0.0007	0.0015	70.3
0.0007	-0.0015	0.0015	0.0022	70.3
0.0007	-0.0015	0.0037	0.0022	70.3
0.0015	-0.0023	0.0045	-0.0008	70.3
0.0007	-0.0015	0.0045	-0.0008	70.3
0.0007	-0.0008	0.0052	0.0015	70.3
0.0007	-0.0008	0.0045	0.003	70.3
0	0	0.0067	0.003	70.3
-0.0008	0	0.009	0.003	70.3
-0.0023	0	0.006	0.003	70.3
-0.0008	0.0007	0.003	0.0007	70.3
-0.0015	0.0015	0.0007	0.0007	70.3
-0.0038	0.0015	-0.0023	-0.0008	70.3
-0.0023	0.0015	-0.003	-0.003	70.3
-0.0008	0.0022	-0.0015	-0.0015	70.3
-0.0015	0.0022	0.0007	-0.0015	70.2
-0.0015	0.0015	0.003	-0.0015	70.2
0	0.0015	0.0022	0.0007	70.2
0	-0.0008	0.0007	0	70.2
0.0007	0	0	0	70.2
-0.0008	0.0007	-0.0015	-0.0015	70.2
-0.0015	0	-0.0008	-0.003	70.2
0.0007	0	-0.0015	-0.003	70.2
-0.0008	0	-0.0015	-0.003	70.2
-0.003	0	-0.0008	-0.0008	70.2
-0.003	0.0007	-0.003	0.0007	70.2
-0.0015	0	-0.003	0.0015	70.2
-0.0008	0	-0.003	0.0007	70.2
-0.0008	0.0022	-0.0046	0.0007	70.2
0.0007	0.0015	-0.0015	0.0007	70.2
-0.0008	0.0007	-0.0008	-0.0015	70.2
0	0.0007	-0.0015	0	70.2
0	0.0007	-0.0008	0.0015	70.2
-0.0008	0	0.0015	0	70.2
-0.0008	0.0007	0.0022	0	70.2
-0.0008	0.0015	0.0015	0.0007	70.2
0	0.0007	0.0015	0.0015	70.2
0.0007	0	0.0015	0.0022	70.2
0.0022	0.0007	0.0045	0.0022	70.2
0.0015	0.0015	0.0052	0.0015	70.2
0.0007	0.0007	0.0037	0.003	70.2
0.0007	0.003	-0.0008	0.0015	70.2
0.0007	0.003	-0.0008	-0.0008	70.2
0.0007	0.0015	0.0007	0.0007	70.1
0.0007	0.0015	-0.0023	0.0015	70.1
0.0007	0.0007	-0.0015	0.0015	70.1
0.0015	0	-0.0015	0.0022	70.1
0.0007	-0.0008	-0.0015	0.0015	70.1
-0.0008	0	0.0015	0.003	70.1
-0.0008	-0.0015	0.0015	0.0015	70.1
0.0007	-0.0023	0.0015	-0.0015	70.1
0.0015	-0.0008	-0.0015	-0.0008	70.1
0.0007	0	-0.0015	-0.0015	70.1
-0.0015	-0.0008	-0.0015	-0.0008	70
0	-0.0015	-0.003	-0.0008	70
0.0015	0	0.0007	-0.0008	70
0.0015	-0.0008	0.0015	-0.0008	70
0.0007	-0.0008	0.0007	-0.0008	70
-0.0008	0.0007	0.0015	-0.0008	70
0.0007	-0.0015	0.0007	-0.003	70
-0.0008	-0.0015	-0.0008	-0.003	70
-0.0008	-0.0008	0.0007	-0.0008	69.9
0.0007	0.0007	0	-0.003	69.9
-0.0008	0.0015	-0.0038	-0.0015	69.9
0	0.0037	-0.0068	0	69.9
-0.0008	0.003	-0.0083	0.0015	69.9
-0.0008	0.0022	-0.0105	0.003	69.9
0.0007	0.003	-0.012	0.0007	69.9
0.0007	0.0015	-0.0083	0.0007	69.9
0.003	0.0045	-0.0046	0	69.9
0.0037	0.003	0.0052	-0.0008	69.8
0.0022	0.0007	0.0127	-0.0008	69.8
0.0015	0.0015	0.018	-0.0008	69.8
0	0.0007	0.0217	0.0007	69.8
0	0.0022	0.0157	0	69.8
-0.0008	0.0015	0.0105	-0.0008	69.7
0	0.003	0.0067	0	69.7
0	0.0037	0.0052	0.0007	69.7
0.0007	0.0015	0.0007	0.0015	69.7
0.0007	0.0007	-0.0015	0.0007	69.7
-0.0015	0	-0.0015	0.0007	69.7
-0.0015	-0.0008	-0.003	0.0007	69.7
-0.0023	-0.0008	-0.0015	0.0007	69.7
-0.0008	-0.003	-0.0008	-0.0015	69.7
-0.0008	-0.0015	0	-0.0008	69.6
-0.0015	-0.0008	0.0007	0.0007	69.6
0	-0.0008	0.0007	0.0007	69.6
-0.0015	-0.0008	-0.0015	0.0015	69.6
-0.0023	-0.0008	-0.0053	0.0015	69.6
-0.0015	0	-0.0038	0.0015	69.5
0	0.0007	-0.0015	0.0015	69.5
0.0022	0.0007	-0.0015	0.0015	69.5
0.0007	0.0007	-0.0015	0.0007	69.5
0.0007	0.0007	-0.0038	0.0015	69.5
0.0007	0.0007	-0.003	-0.0015	69.4
0	0.0015	-0.0015	-0.0053	69.4
-0.0008	0.0007	-0.0008	-0.0046	69.4
-0.0008	-0.0008	0.0015	-0.0046	69.4
-0.0008	0.0007	0.0007	-0.003	69.4
-0.0008	0.0007	-0.0008	-0.0023	69.3
0.0007	0	0	-0.0023	69.3
0.0007	0.0007	0.0007	-0.0015	69.3
-0.0008	0	0.0022	-0.003	69.3
0.0007	-0.0008	-0.0008	-0.0023	69.3
0.0007	-0.0008	0.0007	-0.0015	69.3
-0.0015	-0.0015	-0.0008	-0.0015	69.3
0.0007	-0.0023	-0.0038	-0.003	69.3
0.003	-0.003	-0.003	-0.0015	69.2
0.003	-0.0008	-0.003	0.0015	69.2
0.0022	-0.0008	-0.0015	-0.0015	69.2
0.0007	-0.0015	0.0007	-0.0008	69.2
0.0007	0	0.0015	0	69.2
0.0007	0.0007	0.003	0	69.1
0.0007	0.0007	0.0007	0.0007	69.1
0.0007	0.0007	-0.0008	0.0007	69.1
0	0.0015	0.0007	0.003	69
-0.0015	0.0022	0.0015	0.003	69
-0.0015	0.0015	0.0037	0.0022	69
-0.0015	0.0022	0.0045	0.0015	69
-0.0023	0.003	-0.0008	0.003	69
-0.0015	0.0015	-0.0023	0.0015	68.9
0.0007	0.0007	-0.0008	0.0007	68.9
0.0015	-0.0008	-0.0015	0.0007	68.9
0.0007	0.0007	-0.0008	-0.0008	68.9
0.0007	0.0015	-0.0008	-0.0008	68.8
0	0.0015	-0.0008	-0.0008	68.8
0.0007	0.0007	0.0007	-0.0023	68.8
0.0007	-0.0008	-0.0008	-0.0015	68.8
0.0007	-0.0015	0.0007	0.0007	68.8
0.0007	-0.0023	0.0015	0.0007	68.7
0.0007	-0.003	0.0007	0.0007	68.7
0.0015	-0.0015	0.0007	-0.0008	68.7
0.0015	-0.0008	0.0022	0.0007	68.7
0.0015	0.0015	0.0037	0.0015	68.6
0	0.003	0.0015	0.0007	68.6
-0.0015	0.0015	0.003	0	68.5
0.0007	0.0007	0.003	0.0007	68.5
0	0.0007	0	0.0007	68.5
-0.0008	0.003	-0.003	0.0007	68.5
0.0007	0.003	-0.003	0.0015	68.5
0.0015	0.0015	-0.0038	0.0015	68.4
0	0.0007	-0.003	-0.0008	68.4
-0.0015	0.0007	-0.003	-0.0015	68.4
0.0007	0.0015	-0.0008	-0.0008	68.3
-0.0008	0.0015	-0.0023	0	68.3
0	0.0007	-0.0008	0.0007	68.3
0	0.0007	-0.0008	0	68.3
-0.0008	-0.0008	0.0015	-0.0023	68.3
0	0	0.0045	-0.0023	68.2
0	0.0007	0.0015	0	68.2
-0.0015	0	0.0022	0.0007	68.2
-0.0015	0.0007	0.0007	-0.0008	68.1
-0.0008	0	0	0	68.1
0.0015	0.0007	0.0007	0.0015	68.1
0.0015	0	-0.0015	0.0022	68.1
0.0007	0	0	0.0037	68
0.0007	-0.0008	0	0.0037	68
0.0015	-0.0015	-0.0015	0.0015	67.9
0.0015	0.0007	-0.003	-0.0008	67.9
0.003	0.0007	-0.0023	-0.0008	67.9
0	0	-0.003	-0.0008	67.9
-0.0015	0	-0.0015	-0.0015	67.8
-0.0008	0.0015	0.0007	-0.0023	67.8
-0.0008	0.0007	0.0015	0	67.8
-0.0008	0.0015	0.003	0	67.7
-0.0015	0.003	0.0022	-0.0015	67.7
-0.0015	0.0015	0.0015	0	67.6
-0.0023	0.0015	0.0007	0.0007	67.6
-0.0015	0	-0.0008	0.0007	67.6
-0.0008	-0.0008	0	0.0007	67.5
-0.0008	0.0007	0.0022	0.0022	67.5
-0.0023	0.0007	0.0007	0.0037	67.5
-0.0015	0.0015	-0.0008	0.0007	67.4
0	0.0007	0	0	67.4
0.0007	0	-0.0023	0.0007	67.4
0.0015	-0.0008	-0.003	0.0007	67.3
0.0037	-0.0008	-0.0038	-0.003	67.3
0.0022	-0.0008	-0.0015	-0.0023	67.2
0.0015	0.0007	0.0015	-0.0008	67.2
0.0015	-0.0008	0.003	-0.0015	67.2
-0.0008	-0.0015	0.0045	-0.0008	67.1
0	-0.0023	0.0045	-0.0015	67.1
0.0015	-0.0015	0.0045	-0.003	67.1
0.0007	-0.0008	0.0037	-0.0008	67
0.0007	0	0.006	-0.0008	67
0	0	0.0045	-0.0015	67
-0.0008	-0.0008	0.003	0.0007	67
0	-0.0008	0.0022	-0.0008	66.9
0.0015	0	0.0015	-0.0008	66.9
0.0022	0.0015	-0.0008	0	66.9
0.0015	0.0022	-0.0015	-0.0008	66.8
0.0015	0.003	-0.0008	-0.0008	66.8
0.0015	0.0045	-0.0008	-0.0008	66.7
0.0015	0.003	-0.0023	-0.0008	66.7
0.0015	0.0015	-0.0038	0.0007	66.7
0.0007	0.0007	-0.003	0.0007	66.6
0	0.0015	-0.0038	0.0022	66.6
-0.0008	0.0015	-0.003	0.0007	66.6
-0.0008	0.0015	-0.0046	0	66.5
0	0.0007	-0.0015	-0.0008	66.5
-0.0008	-0.0015	0.0007	-0.0015	66.4
0.0007	-0.0008	0	-0.0008	66.4
0.0007	-0.0008	0.0022	0	66.4
-0.0008	0	0.0007	0.0007	66.3
-0.003	0.0007	-0.0015	-0.0008	66.3
-0.003	0.0007	-0.0023	-0.0023	66.2
-0.0023	0	-0.003	-0.0023	66.2
-0.0015	-0.0008	-0.0038	-0.0015	66.1
0	-0.0008	-0.0046	-0.0015	66.1
0.0007	0	-0.0053	-0.0008	66.1
-0.0008	0.0015	-0.0046	-0.0008	66
0.0015	0.0015	-0.0015	0	66
0.003	0.0015	0.0015	-0.0008	66
0.0007	0.0007	0.006	-0.0015	65.9
-0.0008	0.0007	0.0075	-0.0008	65.9
0	0.0007	0.0052	0	65.8
-0.0008	0	0.0067	-0.0008	65.8
0	-0.0008	0.0045	-0.0015	65.7
-0.0008	0	0.0045	0	65.7
0	0	0.003	0.0022	65.7
0	0.0007	-0.0008	0.0015	65.6
-0.0008	0.0007	0	0.0007	65.6
0	-0.0015	-0.0008	-0.0015	65.5
0	-0.0015	-0.0008	-0.0008	65.5
0	0	-0.0023	0.0007	65.4
-0.0008	-0.0008	-0.0015	0.0007	65.4
-0.0008	-0.0008	-0.0008	-0.0008	65.4
-0.0008	-0.0008	-0.0008	-0.0008	65.3
0.0015	-0.0008	-0.0008	0.0007	65.3
0.0015	0	0	0.0007	65.2
-0.0008	0.0007	0	0.0007	65.2
0	0.0015	-0.0015	0.0007	65.2
-0.0008	0.0015	0.0007	0.0022	65.1
0	0.0015	0.0007	0.003	65.1
0.0015	0.0007	-0.0008	0.0007	65
0.0007	-0.0008	0	0.0007	64.9
-0.0015	0.0015	0	0.0015	64.9
-0.0015	0.0007	-0.0008	0.0022	64.9
0	-0.0008	-0.0008	0.0007	64.8
0	0.0007	-0.0015	-0.0015	64.8
0.0007	0.0007	-0.0015	0.0007	64.8
0.0015	0.0007	0.0015	0	64.7
0.0015	0.0015	-0.0008	-0.0008	64.7
0.0022	0.0007	-0.0008	0	64.6
0.0022	0.0007	-0.0008	0.0015	64.6
0.0015	0.0015	-0.0023	0.0022	64.5
0.0015	0	-0.0015	-0.0008	64.4
0.0007	-0.0008	0.0015	-0.0008	64.4
0.0007	-0.0015	0.0015	-0.0023	64.3
0.0007	0.0007	0.0007	-0.0046	64.3
0.0007	0	0.0045	-0.003	64.3
0	-0.0015	0.0075	-0.003	64.2
0.0007	0	0.0052	-0.003	64.2
0.0007	-0.0008	0.0052	-0.0038	64.1
-0.0008	-0.0008	0.0045	-0.003	64.1
0	-0.0008	0.0007	-0.003	64
0	0.0015	-0.0023	-0.0038	64
-0.0008	0.0007	-0.0046	-0.0008	63.9
-0.0015	0.0007	-0.003	0	63.9
-0.0015	0.0022	-0.003	0	63.9
-0.0008	0.003	-0.0038	0.0015	63.8
-0.0008	0.003	-0.0053	0.0015	63.8
-0.0008	0.0022	-0.003	0	63.7
-0.0008	0.0007	-0.0008	0.0015	63.7
-0.0008	0.0007	0.0022	0.0007	63.6
-0.0008	0.0022	0.0007	0.0007	63.6
-0.0008	0.0022	-0.0008	0	63.5
-0.0015	0.0022	0.0015	-0.0015	63.5
-0.0008	0.0007	0.0007	-0.0008	63.4
-0.0008	-0.0008	0.0007	-0.0008	63.4
0	0	-0.0008	0	63.4
-0.0008	0.0007	-0.0015	-0.0015	63.3
-0.0038	-0.0008	-0.0008	-0.0015	63.3
-0.0046	-0.0015	-0.0015	0	63.2
-0.0038	-0.0008	-0.003	-0.0008	63.2
-0.003	0.0007	-0.0015	0.0007	63.1
-0.0023	0.0015	-0.003	-0.0008	63.1
-0.003	0	-0.003	0.0007	63
-0.0023	-0.0008	-0.0015	0.003	63
-0.0015	0.0007	0.0007	0.0007	63
-0.0015	-0.0008	0	-0.0008	62.9
-0.0008	-0.0015	0	0	62.8
-0.0008	-0.0015	0.0015	0.0015	62.8
-0.0008	-0.0008	0	-0.0008	62.7
0	0.0007	0	-0.0008	62.7
0.0007	0.0015	0.0015	0.0022	62.6
0.0007	0.0015	0.003	0	62.6
0	0.0022	0.003	-0.0008	62.5
0.0007	0.0015	0.0015	0	62.5
0.0022	0.0015	0.0007	0.0007	62.5
0.0052	0.0022	0.0007	-0.0015	62.4
0.0052	0.0015	0.0007	-0.0015	62.3
0.003	0.0007	0.0052	-0.0015	62.3
0.003	-0.0008	0.006	-0.0015	62.2
0.0022	0.0007	0.0022	-0.0008	62.2
0.0015	0.0007	0.003	-0.0008	62.1
0.0007	-0.0008	0.003	-0.0008	62.1
-0.0008	-0.0008	0.0022	-0.0015	62.1
0.0007	-0.0008	0.0022	-0.0015	62
0.0007	-0.0008	0.0015	0.0007	61.9
0.0007	0.0007	-0.0008	0.0015	61.9
0.0007	0.0007	0.003	0.0022	61.8
0	0	0.0037	0.0015	61.8
0.0015	0.0007	0.0015	0.003	61.7
0.0015	0.0015	0.003	0.0037	61.6
0.0015	0.0015	0.0015	0.0037	61.6
0.0022	-0.0008	0.0007	0.0045	61.6
0.0015	0.0007	-0.0015	0.0045	61.5
0.0015	0.0007	-0.0046	0.0022	61.4
0.0015	-0.0008	-0.003	0.0007	61.4
0.0007	0.0007	-0.003	0.0007	61.3
0.0015	0.0015	-0.003	0.0015	61.3
0.0037	0.0015	-0.003	0.0015	61.2
0.003	0.003	-0.0015	0.0015	61.2
0.0045	-0.0008	-0.0008	0.0007	61.1
0.003	0	0	-0.0008	61
0.0022	0.0007	0.0007	0	61
0.003	0	0	-0.0008	61
0.003	-0.0008	-0.0008	-0.0023	60.9
0.0022	-0.0015	0	-0.0038	60.8
0.0022	0.0007	-0.003	-0.0008	60.8
0.0015	0.0007	-0.0038	0.0007	60.7
-0.0008	-0.0008	-0.0053	0	60.7
0.0007	-0.0008	-0.0068	0.0007	60.6
0.0007	0.0007	-0.0068	-0.0008	60.6
-0.0008	0.0015	-0.0075	0	60.5
0	0.0007	-0.0083	-0.0015	60.5
0.0007	0.0015	0	-0.0046	60.4
0.0015	0	0.012	-0.0053	60.3
0.0015	-0.003	0.0142	-0.0068	60.3
0.0007	-0.0046	0.009	-0.0083	60.3
0	-0.0038	0.0007	-0.0075	60.2
-0.0008	-0.0008	0.0037	-0.0068	60.2
0.0007	0.0007	0.009	-0.003	60.1
0.0007	0	0.0127	-0.003	60
0	0.0015	0.0127	-0.003	59.9
0.0007	0.0007	0.0067	-0.0008	59.9
-0.0008	0.0022	0.0015	0.0007	59.9
-0.0015	0.003	-0.0008	0.0015	59.8
-0.0008	-0.0008	-0.0008	0.003	59.8
-0.0008	-0.0008	-0.0023	0.003	59.7
-0.0008	-0.0015	-0.003	0.003	59.7
-0.003	-0.0008	-0.0023	0.0015	59.6
-0.0023	-0.0008	-0.0046	0.0015	59.6
-0.0023	0	-0.0075	0.0022	59.5
-0.003	0.0015	-0.0083	0.0022	59.5
-0.0038	-0.0008	-0.0053	0.0045	59.4
-0.0038	0.0007	-0.003	0.0045	59.4
-0.0015	0.0007	-0.003	0.0015	59.4
-0.0008	0.0015	-0.0023	0.0022	59.3
0.0015	0.0007	0.0007	0.0037	59.2
0.0015	-0.0015	0.0015	0.0052	59.2
0.0007	-0.0008	-0.0008	0.0045	59.1
0	-0.0008	-0.0015	0.0067	59.1
-0.0015	0.0007	-0.0015	0.0067	59
-0.003	0.0007	-0.0008	0.003	58.9
-0.0015	-0.0008	-0.0008	0.0015	58.9
0	-0.0008	-0.0008	-0.0008	58.9
-0.0008	0.0007	0.0007	-0.003	58.9
0.0007	-0.0008	-0.0008	-0.0015	58.8
0	-0.0008	0.0007	0.0022	58.7
-0.0008	0	0.0022	0.003	58.7
-0.0015	-0.0015	0.0015	0.0007	58.6
-0.003	0.0007	0	-0.0008	58.6
-0.003	0.0015	-0.0015	0	58.5
-0.0038	0	-0.0023	0	58.5
-0.0023	0.0007	-0.0015	-0.0015	58.4
0	0.0015	-0.0008	-0.0015	58.4
0.0007	0.0015	-0.0015	-0.003	58.3
-0.0015	0.0022	0	-0.0053	58.3
-0.0015	0.0015	-0.0008	-0.0068	58.2
0.0007	0.0015	-0.0068	-0.006	58.2
0.0015	0.003	-0.0113	-0.0053	58.1
0.0007	0.0007	-0.012	-0.006	58
-0.0015	-0.0008	-0.0128	-0.003	58
-0.0008	-0.0015	-0.0165	-0.0023	57.9
0.0007	-0.0008	-0.0165	-0.0046	57.9
0.0015	-0.0008	-0.0113	-0.0053	57.9
0.0015	-0.003	-0.0053	-0.0046	57.8
0.0007	-0.0023	0.0067	-0.003	57.8
-0.0008	-0.003	0.0202	-0.0023	57.7
-0.0008	-0.0008	0.024	-0.0008	57.7
0.0015	0.0015	0.0277	0.0015	57.6
0.003	0.003	0.03	0.0052	57.6
0.0022	0.003	0.0307	0.0045	57.6
0.0015	0.0037	0.0255	0.003	57.5
-0.0008	0.0037	0.0142	0.0015	57.5
-0.0023	0.0037	0.0052	0.003	57.4
-0.0038	0.0045	-0.003	0.0015	57.4
-0.0053	0.0045	-0.003	0.0007	57.3
-0.0068	0.003	-0.003	0.0007	57.3
-0.0068	0.0037	-0.0023	-0.0008	57.2
0	0.0052	-0.003	0	57.2
0.0037	0.0045	-0.003	0.0007	57.1
0.003	0.003	-0.0015	0	57.1
0.003	0.0015	-0.0038	0.0007	57
0.0015	0.0015	-0.0046	0	57
0.0015	0.0015	-0.0068	-0.0015	57
0.0015	0.0007	-0.0053	-0.0008	56.9
0.0007	-0.0008	-0.006	0.0007	56.9
0	-0.0008	-0.0068	-0.0008	56.9
0	0.0007	-0.0046	-0.0008	56.8
0.0015	-0.0015	-0.003	0.0022	56.8
-0.0008	-0.0015	-0.0038	0.003	56.7
0.0007	-0.0015	-0.0046	0.0022	56.7
0.0007	-0.0015	-0.003	0.0007	56.7
0.0007	-0.0008	-0.0046	-0.0008	56.7
0.0015	-0.0008	-0.0038	0.0007	56.6
0.0015	0	-0.0068	0.0007	56.6
0.0022	0.0007	-0.0068	0.0015	56.5
0.0007	0.0007	-0.0053	0.0015	56.5
-0.0008	-0.0008	-0.0038	-0.0008	56.4
-0.0008	0	-0.0023	-0.0015	56.4
-0.0023	0	-0.003	-0.0023	56.4
-0.0015	-0.0023	-0.0015	-0.0046	56.3
0.0007	-0.003	0	-0.0053	56.2
0.003	-0.0015	0.0015	-0.0046	56.2
0.0045	0	0.0022	-0.0046	56.2
0.003	-0.0015	0.003	-0.0053	56.2
0.003	-0.0015	0.0052	-0.0046	56.2
0.0045	-0.0015	0.0067	-0.0038	56.1
0.003	-0.0008	0.0067	-0.003	56.1
-0.0008	0	0.0067	-0.0015	56
-0.0008	0	0.006	-0.0015	56
-0.0015	0.0007	0.0045	-0.0015	55.9
-0.0008	-0.0008	0.0015	0.0007	55.9
-0.0008	0.0015	-0.0008	0	55.9
-0.0015	0.0015	-0.003	-0.0023	55.8
-0.0023	0.0015	-0.0038	-0.0008	55.8
-0.003	0.0007	-0.0015	0.0007	55.8
-0.0008	-0.0015	0	0	55.7
-0.003	0	0.0007	0.0015	55.7
-0.0008	0.0007	0.0007	0.0037	55.7
-0.0008	0.003	0.0015	0.0037	55.6
-0.0008	0.0045	0.0015	0.003	55.6
0.0007	0.003	0.0007	0.003	55.5
-0.0008	0.0007	0.0007	0.003	55.5
-0.0008	0.0015	0	0.0052	55.4
-0.0008	0.0022	0.0015	0.0045	55.4
0	0.0015	0.0007	0.003	55.4
0.0007	0.0022	-0.0015	0.0015	55.3
0	0.0007	-0.003	0	55.3
-0.0008	0	-0.003	-0.0008	55.3
0.0007	0.0022	-0.003	0.0015	55.3
0.0015	0.0015	-0.0015	0.0007	55.2
0.0007	0.0007	-0.0015	0.0015	55.2
0	0.0015	0.0015	0.003	55.1
0.0007	-0.0008	0.003	0.003	55.1
0	-0.0008	0.0015	0.003	55.1
-0.0008	-0.0008	0.0015	0.0022	55
-0.0008	0	0.0015	0.0037	55
0.0015	-0.0008	0.003	0.003	54.9
0.0015	-0.0008	0.003	0.0037	54.9
0.0007	0	0.0007	0.0045	54.9
0.0007	0	0.0007	0.0015	54.9
0.0007	-0.0008	-0.0015	0.0007	54.8
0.0015	-0.003	-0.003	-0.0008	54.8
0.0007	-0.003	-0.003	-0.0008	54.8
0.0007	-0.0008	-0.003	-0.0015	54.7
0.0007	0.0015	-0.0038	-0.0008	54.7
0.0007	0.0007	-0.003	0.0007	54.7
0.0015	0.0007	-0.003	-0.0015	54.7
0.0007	-0.0008	-0.0008	0	54.6
0.0022	0.0007	0.0007	-0.0008	54.6
0.0015	0	0.0007	-0.0008	54.6
0.0007	-0.0015	0.0007	-0.0008	54.5
0.0007	0	0.0022	-0.003	54.5
-0.0008	-0.0015	0.0045	-0.0023	54.5
0	-0.0015	0.003	-0.0046	54.5
-0.0008	-0.0008	0.003	-0.0046	54.4
-0.0023	-0.0015	0.0007	-0.0046	54.4
-0.0008	0.0007	-0.0008	-0.0046	54.4
-0.0008	0.0022	-0.0015	-0.003	54.4
0	0.003	-0.0015	-0.0023	54.4
0.0007	0.0045	-0.0023	-0.0008	54.4
-0.0015	0.0067	-0.0023	-0.0008	54.3
-0.0015	0.0067	-0.0008	-0.0015	54.3
-0.0015	0.0052	-0.0008	-0.0015	54.3
-0.0023	0.0045	0.0007	-0.0015	54.2
-0.0015	0.0052	0.0007	-0.0008	54.2
-0.0023	0.0045	0.0015	-0.0008	54.2
-0.0008	0.0015	0.003	-0.0008	54.1
0.0007	0.0007	0.0015	0.0007	54.1
0.0015	-0.0015	-0.0008	0.0007	54.1
0.0007	-0.003	0.0037	0.0007	54
-0.0008	-0.003	0.0045	0	54
-0.0015	-0.0015	0.0015	-0.0015	54
-0.0008	-0.0008	0.0037	-0.0008	54
0.0007	-0.0015	0.0007	0.0007	54
0	-0.0015	-0.0015	0	53.9
0	-0.0015	-0.0015	-0.0008	53.9
0.0007	0.0007	-0.0015	0.0015	53.9
0.0007	0	-0.003	0.0015	53.8
0.0007	0.0007	-0.0046	0.0022	53.8
0.0007	0.0015	-0.0038	0.0015	53.8
0.0007	0.0007	-0.0046	0.0007	53.7
-0.0008	0.0015	-0.0023	0	53.7
0.0007	0.0022	0	-0.0008	53.7
0.0015	0.0022	0.0015	0	53.6
0	0.0015	0.0007	0	53.6
0.0007	0.0007	0.003	0.0015	53.6
0.0007	0	0.003	0.0015	53.6
0.0015	-0.0008	0.0022	-0.0008	53.5
0.0015	-0.0008	0.0015	-0.0015	53.5
0	-0.0008	-0.0015	-0.0015	53.5
0.0007	0	-0.0008	0	53.5
0.0007	-0.0008	-0.0015	-0.0008	53.5
0	-0.0008	-0.003	-0.0008	53.4
-0.0008	0.0015	-0.0015	-0.0008	53.4
-0.0015	0.0015	-0.0015	0.0007	53.4
-0.0015	0.0015	-0.0015	0.003	53.4
-0.0015	0.0015	-0.0038	0.0022	53.3
0.0007	0.0022	-0.0008	0.0007	53.3
0	0.0015	0.0007	0	53.3
0	-0.0008	0.0007	-0.0008	53.3
0.0007	0.0007	0.0007	0	53.2
0.0015	0.0007	0	0.0007	53.2
0.0007	-0.0015	0.0015	0.0007	53.2
0	0.0007	0.003	0.0007	53.2
0.0007	0.0007	0.0022	0.0015	53.1
0	0.0015	0.0007	0.0007	53.1
-0.0008	0.0007	-0.0008	-0.0008	53.1
0	-0.0008	-0.003	0.0007	53.1
0.0015	0.0015	-0.0053	0.0007	53.1
0.0015	0.0007	-0.0038	0	53.1
0.0007	0	0.0007	-0.0008	53
0.0015	-0.0008	0.003	0.0007	53
0	-0.0015	0.0015	0.0007	53
-0.0008	-0.0015	0.0015	-0.0008	53
-0.0008	-0.0015	0.0007	-0.0008	53
0	-0.0023	0.0022	-0.0008	52.9
0.0007	-0.0015	0.0082	0	52.9
-0.0015	-0.0023	0.009	0.0007	52.9
-0.0008	-0.0023	0.0045	0.0007	52.9
0.0007	-0.0015	-0.0015	0.0022	52.8
0	-0.0015	-0.003	0.0015	52.8
0.0007	-0.0015	0.0007	0	52.8
-0.0008	-0.0015	0.0015	-0.0008	52.8
-0.0008	0	0.003	0.0007	52.8
0	-0.0008	0.0052	0.0007	52.7
-0.0008	0	0.0045	-0.0008	52.7
0.0007	0.0015	0.0007	0.0015	52.7
0.0015	0.0022	-0.0046	0.0022	52.7
-0.0008	0.0015	-0.003	0.0015	52.7
0	-0.0015	-0.0015	0.0015	52.6
0	-0.0015	-0.0015	-0.0015	52.6
-0.0008	-0.003	-0.0008	-0.0053	52.6
-0.0015	-0.003	-0.0015	-0.0053	52.6
-0.0023	-0.0015	-0.0008	-0.0046	52.6
-0.0023	-0.003	0.003	-0.0046	52.6
-0.0015	-0.0046	0.0037	-0.0038	52.6
-0.0008	-0.003	0.0045	-0.0046	52.6
0.0007	-0.0023	0.003	-0.0046	52.5
0	-0.0015	0.0007	-0.0053	52.5
0	-0.0008	-0.0008	-0.0053	52.5
0.0015	0.0007	-0.0023	-0.003	52.4
0.0022	0	-0.0046	-0.0015	52.4
0.0015	-0.0008	-0.0053	-0.0008	52.4
0.0015	-0.0008	-0.0023	-0.0023	52.4
0.0015	-0.0015	0.0007	-0.003	52.4
0.003	0	0	-0.0015	52.4
0.003	0	0.0007	-0.0038	52.4
0.0015	0	0.003	-0.003	52.4
0.0007	0.0022	0.003	0.0007	52.4
-0.0008	0.003	0.0015	0.0015	52.3
-0.0023	0.003	0.0007	0.003	52.3
-0.0023	0.0015	0.0015	0.0037	52.3
-0.0015	0.0015	0.0007	0.0052	52.3
-0.0015	0.0015	-0.0008	0.0052	52.3
0	0.0015	-0.006	0.003	52.3
0	0.003	-0.0128	0.003	52.2
0.0007	0.0022	-0.0165	0.0015	52.2
0.0015	0.0007	-0.0195	0.0007	52.2
0.0015	-0.0008	-0.0203	0	52.2
0.003	-0.0015	-0.0165	-0.0008	52.2
0.0015	0.0007	-0.0083	-0.0023	52.2
0.0015	0.0015	-0.0015	-0.0008	52.2
0.003	0.0007	0.0022	0	52.2
0.0045	0.0022	0.0097	-0.0008	52.2
0.003	0.003	0.0225	0.0007	52.2
0.0037	0.003	0.033	0.003	52.2
0.0007	0.0015	0.033	0.0037	52.2
0	0.003	0.0255	0.003	52.2
-0.0008	0.0037	0.0195	0.003	52.2
-0.003	0.003	0.0105	0.0037	52.2
-0.0046	0.003	0.0067	0.003	52.1
-0.0046	0.0037	0.0075	0.0007	52.1
-0.0053	0.0015	0.0082	0.0015	52.1
-0.0098	-0.0015	0.0052	-0.0008	52.1
-0.0091	-0.003	0.003	-0.0023	52.1
-0.0008	-0.0038	0.0007	-0.0015	52.1
0.003	-0.003	-0.0015	-0.0023	52.1
0.0022	-0.0038	-0.003	-0.003	52.1
0.0045	-0.0046	-0.0053	-0.003	52.1
0.0045	-0.0023	-0.0038	-0.0038	52.1
0.0052	0.0007	-0.003	-0.0015	52
0.006	0.0052	-0.003	-0.0008	52
0.0037	0.0067	-0.0023	-0.0015	52
0.0037	0.0052	-0.0038	0.0007	52
0.003	0.003	-0.0068	0.0007	52
0.0022	0.003	-0.0053	0.0015	52
0.0015	0.0015	-0.0091	-0.0008	52
-0.0008	0.0007	-0.0181	-0.0008	52
-0.0015	0.0015	-0.024	0.0007	52
-0.003	0.0015	-0.0338	-0.0008	52
-0.0046	0.0015	-0.0428	-0.0008	52
-0.0046	0.0015	-0.042	-0.0023	52
-0.0023	0.0007	-0.042	-0.003	52
-0.0008	-0.0008	-0.0383	-0.003	52
0	-0.0008	-0.0256	-0.003	52
0.0015	-0.0015	-0.006	-0.0038	52
0.0045	-0.0023	0.021	-0.003	52
0.0067	0.0007	0.048	-0.0008	52
0.0067	0.0037	0.0705	0	52
0.0052	0.0045	0.078	0.0015	52
0.003	0.0052	0.0667	0.0022	52
0.003	0.0052	0.0555	0.0022	52
0.0015	0.0045	0.039	0.0022	52
-0.0015	0.0037	0.015	0.0022	52
-0.0015	0.003	0.0037	0.0022	52
-0.0015	0.0015	-0.0023	0.0015	52
-0.0023	0.0015	-0.0068	0.003	52
-0.0023	-0.0008	-0.0098	0.003	52
-0.0023	0.0007	-0.0135	0.003	52
-0.003	0.003	-0.012	0.003	52
-0.0046	0.0045	-0.0143	0.003	52
-0.0053	0.0045	-0.0165	0.003	52
-0.0068	0.0045	-0.015	0.003	52
-0.0075	0.0045	-0.0165	0.003	52
-0.0068	0.0015	-0.0203	0.0052	52
-0.006	0.0007	-0.027	0.006	52
-0.0053	-0.0015	-0.0323	0.0052	52
-0.003	-0.0038	-0.0315	0.0045	52
-0.0015	-0.003	-0.027	0.0022	52
0.0007	-0.0008	-0.0256	0	52
0.0052	-0.0023	-0.0165	-0.0015	52
0.006	-0.003	0.0015	-0.0008	52
0.0045	-0.003	0.021	-0.0015	52
0.0052	-0.0015	0.0277	-0.0008	52
0.0052	0.0015	0.027	-0.0008	52.1
0.0052	0.0007	0.0247	-0.0015	52.1
0.0075	0.0007	0.0255	-0.0015	52.1
0.0067	0.0022	0.0217	-0.0015	52.1
0.0082	0.0037	0.0195	-0.0023	52.1
0.0075	0.0045	0.0195	-0.003	52.1
0.0067	0.0052	0.0082	-0.0008	52.1
0.0075	0.003	0.0015	0.0007	52.1
0.003	0.003	-0.0015	0.0007	52.1
0.003	0.003	-0.0015	0.0015	52.1
0.0052	0.0022	-0.0015	0.0007	52.1
0.0052	0.0022	-0.003	-0.0015	52.1
-0.0008	-0.0008	-0.0038	-0.0008	52.1
-0.0128	-0.0008	-0.0053	-0.0008	52.2
-0.0173	-0.0015	-0.0053	-0.0008	52.2
-0.0098	-0.0015	-0.0105	-0.003	52.2
-0.0046	-0.003	-0.0105	-0.0038	52.2
-0.003	-0.0038	-0.0105	-0.0038	52.2
0	-0.0015	-0.0091	-0.0053	52.2
0	0.0007	-0.0068	-0.0068	52.2
0.0007	0	-0.0053	-0.0053	52.2
0.0022	-0.0008	-0.0008	-0.0046	52.2
0.003	-0.0015	0.0007	-0.0053	52.2
0.003	-0.0008	0.0015	-0.006	52.2
0.0007	0	-0.0008	-0.006	52.2
-0.0023	-0.0008	-0.0015	-0.0046	52.2
-0.0053	0.0007	-0.0015	-0.0015	52.2
-0.0068	0.0007	-0.0015	-0.0015	52.2
-0.0091	-0.0008	0	-0.0008	52.2
-0.0143	0	0.003	0	52.2
-0.0143	0	0.003	-0.0008	52.2
-0.003	0	0.0015	0	52.2
0.0045	0	-0.0008	0.0007	52.2
0.003	-0.0008	-0.0015	0.0007	52.2
0.0045	-0.0008	-0.003	0.0007	52.2
0.0037	-0.0015	-0.0053	0.0015	52.2
0.0022	-0.0008	-0.0053	0.0015	52.2
0.0037	0.0007	-0.006	0.0015	52.2
0.0015	0.0007	-0.0053	0.0015	52.2
0.0015	-0.0008	-0.0008	0	52.2
0.003	0	0	0.0015	52.2
0.003	0	0.0007	0.0007	52.2
0.0045	0.0007	0.0007	0	52.2
0.003	0.0007	0.0007	0.0015	52.2
0.0022	0.0007	0.0045	0.0007	52.2
0.0015	0.0007	0.0015	0.0007	52.2
0.0015	0.0007	0.003	0.0015	52.2
0.0007	0	0.003	0.003	52.2
0.0007	-0.0008	0.003	0.0015	52.2
0.0015	0.0015	0.0045	0.0022	52.2
0.0015	0.0007	0.0015	0.0022	52.2
0.0007	0.0007	0.0015	0.003	52.3
0.0007	0	0.0022	0.003	52.3
0.0015	0.0007	0.0007	0.0015	52.3
0.0007	0.0007	0.003	0	52.3
0.0007	-0.0008	0.003	0	52.3
-0.0008	-0.0015	0.003	0.0007	52.3
-0.003	-0.0023	0.0067	0.0007	52.3
-0.0015	0.0007	0.0052	-0.0008	52.3
0	0.0007	0.0052	-0.0008	52.3
-0.0008	-0.0008	0.006	-0.0008	52.3
-0.0008	0.0007	0.0037	-0.0023	52.3
0.0007	0.0022	0.0045	-0.0046	52.3
0.0007	0.0015	0.0022	-0.003	52.3
0.0007	0.0015	0.0015	-0.0015	52.3
0.0015	0.003	0.0007	-0.0015	52.3
0.0007	0.0022	0	-0.003	52.3
-0.0008	0.0015	-0.0008	-0.0008	52.3
0.0015	0.0015	-0.003	0.0007	52.3
0	0.0022	-0.003	0	52.3
-0.0023	0.0007	-0.0038	0.0015	52.3
-0.0015	0	-0.0038	-0.0008	52.3
-0.0008	0.0015	-0.0038	-0.0008	52.3
0.0007	0.0007	-0.0023	0.0007	52.3
0.0007	0.0015	0.0007	0.0007	52.3
0.0007	0.0015	0.0022	-0.0008	52.3
0.0015	0.0015	0	0.0007	52.2
0.0007	0.0007	-0.0008	0.0022	52.2
0	0.0015	0	0.003	52.2
0	0.0015	-0.0008	0.003	52.2
0.0007	0.0007	0	0.0015	52.2
0	0.0007	0	0.0007	52.2
0	0.0007	-0.0015	0.0007	52.2
0	-0.0008	-0.003	0.0007	52.2
0.0007	-0.0015	-0.0038	0.0007	52.2
-0.0008	-0.0015	-0.0008	0	52.2
-0.003	-0.0008	-0.0015	0.0007	52.2
-0.003	-0.0008	-0.0068	0.0015	52.2
-0.003	0.0015	-0.0083	0.0015	52.2
-0.003	0.003	-0.0091	0.0022	52.2
-0.003	-0.0008	-0.0128	0.003	52.2
-0.003	0	-0.0135	0.0037	52.2
-0.0023	0.0007	-0.0158	0.0045	52.2
-0.0015	0.0007	-0.0181	0.0022	52.2
-0.0008	0.0015	-0.0143	0.0022	52.2
0.0015	0	-0.003	0	52.2
0.0045	-0.0008	0.0157	-0.0008	52.2
0.0037	0	0.0292	0.0007	52.2
0.003	-0.0008	0.036	0.0007	52.2
0.003	-0.0015	0.0345	0.0022	52.2
0	-0.0008	0.0232	0.0015	52.2
-0.0008	-0.0008	0.0187	0.0007	52.2
-0.0008	0	0.0142	0.0037	52.2
-0.0008	0.0007	0.0052	0.0015	52.2
0.0015	0.0007	-0.0008	0.0007	52.2
-0.0008	0.0015	-0.0008	-0.0008	52.2
0	0.0037	-0.0015	-0.0008	52.2
0.0015	0.003	-0.0015	-0.0008	52.2
0.0007	0.0022	-0.0015	0.0007	52.2
0.0007	0.0015	-0.0046	0.0007	52.2
0.0007	0	-0.0053	0.0007	52.2
-0.0008	0.0007	-0.0053	-0.0015	52.2
0.0007	0.0007	-0.0068	0.0007	52.2
0.0015	-0.0008	-0.006	0.0007	52.2
0	-0.0008	-0.0053	-0.0008	52.2
0.0007	-0.0008	-0.0053	0	52.2
0.0015	-0.0008	-0.0053	-0.0008	52.1
0.0015	-0.0015	-0.0053	-0.0015	52.1
0	-0.0015	-0.0053	-0.0008	52.1
-0.0008	-0.0015	-0.0053	-0.003	52.1
0	-0.0008	-0.0046	-0.0008	52.1
0	0.0015	-0.0038	0.0007	52.1
-0.0008	0.0015	-0.003	-0.0015	52.1
-0.0008	0.0007	-0.0008	-0.003	52.1
-0.0015	0.0007	0	-0.0046	52.1
0.0007	-0.0008	0	-0.0023	52.1
0.0007	-0.0023	0.0007	-0.0015	52.1
0.0007	-0.0008	0.0015	-0.0008	52.1
-0.0023	-0.0008	0.0015	-0.0008	52.1
0	-0.0015	0.0007	-0.0015	52.1
0.0015	-0.0023	0.0007	-0.0015	52.1
-0.0008	-0.0008	0	-0.0008	52.1
0.0015	-0.0008	0	0	52.1
0.0007	-0.0015	0	0	52
0.0007	0	-0.003	-0.0008	52
0	-0.0008	-0.0015	-0.0015	52
-0.0008	-0.0008	0	-0.0008	52
0	-0.0008	-0.0008	0.0015	52
-0.0008	0.0007	0.0015	0.0007	52
-0.0023	-0.0008	0.0015	0	52
-0.003	-0.0023	0.0007	-0.0008	52
-0.0023	-0.0008	0.0007	0.0007	52
-0.0008	-0.0015	0.0015	0.0007	52
-0.0008	-0.0015	0.0015	0	52
-0.0008	-0.0008	0.0015	0.0007	52
0	-0.0008	0.003	-0.0008	52
0.0015	0.0007	0.0022	-0.0015	51.9
0.0022	0.0007	0.003	-0.0015	51.9
0.0022	0.0007	0.003	-0.003	51.9
0.0015	0	0.0022	-0.0015	51.9
0.0007	0	0.0015	0.0007	51.9
0.0022	-0.0008	0.0015	0.0007	51.9
0.0015	-0.0008	-0.0008	-0.0015	51.9
0.0007	0.0007	-0.0015	-0.0008	51.9
0.0015	-0.0008	-0.0015	0.0015	51.9
0.0015	-0.0015	-0.0015	0.0015	51.9
0.0007	-0.0008	0.0007	0.0007	51.8
0.0007	-0.0008	0	0	51.8
-0.0008	-0.0008	0.0007	-0.0008	51.8
0	0.0007	0.0015	-0.0008	51.8
0.0007	0.0015	0.0015	-0.0015	51.8
0	0.0015	0.0007	-0.0008	51.8
0	0.0015	0.0007	-0.0008	51.8
0.0015	0.0007	0.0015	-0.0008	51.8
0.0007	0.0007	-0.0008	0	51.8
0.0007	0.003	-0.0015	0	51.8
0.0015	0.0022	-0.003	-0.0008	51.8
0.0007	0.0007	-0.0038	-0.0015	51.8
0.0007	0.0007	-0.0053	-0.0008	51.8
0.0015	-0.0015	-0.0046	-0.0015	51.8
0.0015	-0.0008	-0.003	0.0007	51.8
0	0.0007	-0.0015	0	51.8
-0.0015	0.0007	-0.003	-0.0015	51.8
-0.0023	0.0022	-0.003	-0.0008	51.8
-0.0015	0.0007	-0.003	0	51.8
0	0.0007	-0.0038	-0.0008	51.8
0.0015	-0.0008	-0.003	-0.003	51.8
0.003	-0.0008	-0.0008	-0.0008	51.8
0.0037	-0.0023	-0.0008	-0.0015	51.8
0.003	-0.003	-0.006	-0.0046	51.8
0.0015	-0.003	-0.0105	-0.0015	51.8
0	-0.0038	-0.0128	-0.0015	51.8
0.003	-0.0008	-0.0038	0	51.8
0.0045	-0.0008	0.006	0.0015	51.8
0.003	-0.0008	0.0127	0.0015	51.8
0.003	0.0007	0.0217	0.003	51.8
0.0015	0.003	0.0195	0.003	51.8
-0.0008	0.0045	0.012	0.0015	51.8
-0.0008	0.0052	0.006	0.0015	51.8
-0.0008	0.0022	0.0052	0.0015	51.8
-0.003	0.0015	0.0045	0.0007	51.8
-0.0068	0.0052	-0.0008	0.0015	51.8
-0.0091	0.003	-0.0046	0.0015	51.8
-0.012	0.003	-0.0068	0	51.8
-0.0143	0.0022	-0.0068	-0.0008	51.8
-0.0068	0.0007	-0.0015	-0.0015	51.8
0.0022	-0.0008	0.0082	-0.0015	51.7
0.0037	-0.0015	0.0127	-0.003	51.7
0.003	-0.0023	0.0127	-0.003	51.7
0.003	-0.0015	0.0097	-0.0008	51.7
0.0015	0	0.0045	0	51.7
0.0022	-0.0008	0.003	0	51.7
0.0015	0.0007	-0.0008	-0.0015	51.7
0.0015	0.0007	-0.0038	-0.0008	51.7
0.0015	0.0015	-0.0038	-0.0008	51.7
0.0007	0.003	-0.003	0.0007	51.7
0.0015	0.0022	-0.003	0.0015	51.7
0.0007	0.0037	-0.003	0.0007	51.7
0	0.0022	-0.0046	0.0007	51.7
0.0007	0.003	-0.0023	0.0015	51.7
0.0015	0.0015	-0.0023	0.0007	51.7
0.0007	0.0007	-0.003	0.0007	51.7
0.0007	0.0007	-0.003	0.0022	51.7
0	0.0007	-0.003	0.0015	51.7
0.0007	0.0015	-0.0008	0.0007	51.7
0.0007	0.0015	-0.0015	0	51.7
0.0022	0.003	-0.0015	-0.0008	51.7
0.0015	0.0045	-0.0038	-0.0008	51.7
-0.0008	0.0022	-0.0038	0.0007	51.7
0.0007	0.0007	-0.0046	0	51.7
0.0015	0.0007	-0.0046	-0.0015	51.7
0.0007	0.0015	-0.0038	-0.0015	51.7
-0.0008	0.003	-0.0015	-0.0015	51.7
-0.0015	0.003	0.0022	0	51.7
-0.0015	0.0022	0.0015	-0.0008	51.7
-0.0008	0.0007	0.003	-0.0015	51.7
0	-0.0008	0.0015	0.0007	51.8
-0.0008	-0.0008	0.0015	-0.0015	51.8
0	-0.0008	0.0015	-0.0015	51.8
0.0007	-0.0008	0	-0.0008	51.8
0.0007	-0.0008	0.0007	-0.0015	51.8
0.0007	0.0007	0.0015	-0.0023	51.8
0.0007	-0.0008	0.003	-0.0008	51.8
-0.0008	0	0.003	0	51.8
0.0007	-0.0008	0	-0.0008	51.8
0.0022	0	-0.0023	0.0007	51.8
0	0.0007	-0.0023	0	51.8
-0.0015	0.0015	-0.0023	0.0007	51.8
-0.0008	0.0007	-0.0008	-0.0008	51.8
-0.0008	0	-0.0008	-0.0023	51.8
0	0	0.0015	0.0007	51.8
0.0007	-0.0023	0.0022	0.0007	51.8
0.0015	-0.0008	0.0015	0.0015	51.8
0.0007	0	0.0015	0	51.8
-0.0015	-0.0015	0.0007	-0.0008	51.8
-0.0008	0	0.0022	0.0007	51.8
0.0007	0.0007	0.0015	0	51.8
0.0015	0.0015	0.0015	-0.0008	51.8
0.0015	0.0015	0	-0.0008	51.8
0	0.003	-0.003	0.0007	51.8
0.0007	0.0015	-0.0023	0.0007	51.8
0	0.0022	-0.0008	0	51.8
0	0.0045	-0.0015	-0.0015	51.8
-0.0008	0.0022	-0.0015	-0.003	51.8
-0.0008	0.0007	0.0007	-0.003	51.8
0.0007	0	-0.0015	-0.0015	51.8
0	-0.0008	-0.0015	0	51.8
-0.0008	0.0007	0.0015	0	51.8
0	0.0022	0.0015	0.0007	51.8
0.0007	0.0015	0.0022	0.0015	51.8
0.0007	0	0.0022	0.0022	51.8
0.0007	0	0.003	0.0022	51.8
0.0007	0	0.0022	0	51.8
-0.0008	0	0.0007	0.0015	51.8
0.0007	-0.0008	0.0007	0.0007	51.8
0	-0.0023	-0.0008	0	51.8
0.0007	-0.0015	-0.0015	-0.0008	51.8
0.0015	0.0015	-0.0015	-0.0008	51.8
-0.0008	0	-0.0015	0	51.8
-0.0008	-0.0008	-0.0015	0.0007	51.8
0.0007	0.0007	-0.0015	0.0022	51.8
-0.0008	-0.0008	0	0.0015	51.8
0.0007	0.0007	0.0007	0.0007	51.8
0	0.0007	-0.0008	0.0007	51.8
0.0007	-0.0008	0	0.0007	51.8
-0.0008	0.0007	-0.0015	0.0007	51.8
-0.0015	0.0015	-0.0015	0.003	51.8
-0.0015	0.0015	-0.0015	0.0015	51.8
-0.0015	0.0007	0.0007	0	51.8
-0.0015	-0.0008	-0.0008	0.0007	51.8
-0.0008	0	-0.0046	0.0015	51.8
0.0007	0.0007	-0.0053	0.0007	51.8
0.0015	0	-0.0068	-0.0008	51.8
0.0015	0	-0.0105	-0.0015	51.8
0.0007	-0.0008	-0.0128	-0.0015	51.8
0	-0.0015	-0.0098	-0.003	51.8
-0.0008	-0.0015	-0.0053	-0.0008	51.8
0.0007	-0.0008	-0.0053	-0.0015	51.8
0	0	-0.006	-0.003	51.8
0.0007	0	-0.0046	-0.003	51.8
-0.0008	-0.0015	-0.0008	-0.0038	51.8
0	-0.003	0.0015	-0.0023	51.8
0.0015	-0.003	0.0045	-0.0015	51.8
0	-0.0023	0.0127	-0.0008	51.8
0.0007	-0.0008	0.024	0.0007	51.8
0.0015	-0.0015	0.0367	0.0022	51.8
0.0007	-0.0015	0.0382	0.0015	51.8
0.0007	0.0007	0.0292	0.0015	51.8
0.0007	0.0007	0.0127	0.0015	51.8
0.003	0.003	0.0052	0.003	51.8
0.0045	0.0037	0.0022	0.0045	51.8
0.0045	0.0052	-0.0023	0.0022	51.8
0.003	0.0052	-0.0053	0.0015	51.8
0.0007	0.003	-0.012	0.0015	51.8
-0.0015	0.003	-0.0083	0.0015	51.8
-0.0008	0.0015	-0.0053	0	51.8
0	-0.0015	-0.0053	-0.0015	51.8
0	-0.0015	-0.0046	-0.0015	51.8
0	-0.0008	-0.0053	-0.0015	51.8
0.003	-0.0008	-0.0015	-0.0008	51.8
0.0045	-0.0008	0.0022	-0.0015	51.8
0.0015	0	0.0045	-0.0008	51.8
0	0	0.009	-0.0008	51.8
-0.0023	0.0022	0.021	0	51.8
-0.0038	0.0067	0.0307	-0.0008	51.8
-0.0091	0.0067	0.0315	-0.0023	51.8
-0.0128	0.0045	0.0187	-0.0015	51.8
-0.0038	0.0037	0.0052	-0.0015	51.8
0.0067	0.003	-0.003	-0.0015	51.8
0.006	0.0045	-0.0068	-0.0023	51.8
0.0067	0.0052	-0.0083	-0.0023	51.8
0.006	0.0022	-0.0105	-0.0008	51.8
0.003	0.0007	-0.0083	-0.0008	51.8
0.0022	-0.0015	-0.0091	0	51.8
0	-0.0023	-0.0075	-0.0008	51.8
-0.0008	-0.0015	-0.0083	-0.0008	51.8
-0.0015	-0.0015	-0.0068	-0.0008	51.9
-0.0023	-0.0023	-0.0053	-0.0015	51.9
0	-0.003	-0.0091	-0.0008	51.9
-0.0008	-0.0023	-0.0083	-0.0008	51.9
-0.0015	-0.0015	-0.0068	0.0007	51.9
-0.0008	-0.0015	-0.0068	0.0015	51.9
-0.0023	-0.0015	-0.0091	0.0022	51.9
-0.0015	-0.0008	-0.0105	0.0007	51.9
0.0007	-0.0008	-0.0105	-0.0008	51.9
-0.0008	-0.0008	-0.0091	0.0007	51.9
-0.0008	0	-0.0091	0.0015	51.9
0.0007	0.0015	-0.0075	0.003	51.9
0.0015	0.0015	-0.0068	0.003	51.9
0.0015	-0.0008	-0.0053	0.0007	51.9
0.0007	-0.0008	-0.0038	0.0015	51.9
-0.0008	-0.0008	-0.0038	0.0015	51.9
-0.0015	-0.0015	0	0.0022	51.9
0	-0.0015	0.0067	0.0015	51.9
-0.0015	-0.0008	0.0082	0.003	51.9
-0.0023	0	-0.0015	0.0045	51.9
-0.0015	0.0007	-0.012	0.0045	52
-0.0023	0	-0.0195	0.003	52
-0.0015	0.0007	-0.0195	0.0015	52
-0.0008	0.0007	-0.021	0.0007	52
-0.0015	0.0022	-0.0225	0.0007	52
-0.003	0.0015	-0.0203	0.0007	52
-0.0038	0	-0.0158	-0.0008	52
-0.0023	-0.0015	-0.0083	-0.0023	52
-0.0015	0	-0.003	-0.0008	52
-0.0008	0.0007	0	-0.0008	52
-0.0023	0.0015	0	-0.0008	52
-0.0008	0.0007	-0.0008	-0.0008	52
0.0052	0.0015	0.0052	0.0007	52
0.0097	0.0007	0.0195	-0.003	52
0.0075	-0.0038	0.0405	-0.0053	52
0.006	-0.0008	0.0712	-0.0023	52
0.009	0.0022	0.0862	-0.0015	52
0.0082	0.0022	0.0735	-0.0008	52
0.0082	0.003	0.0562	0.0007	52
0.009	0.0015	0.0345	0.0007	52
0.0097	0.003	0.0157	0	52.1
0.0105	0.0037	-0.003	-0.0008	52.1
0.0052	0.0037	-0.0188	0.0007	52.1
0.003	0.0022	-0.0293	0.0007	52.1
0	0.0007	-0.0375	0.0015	52.1
-0.0113	0.0007	-0.0368	0.0015	52.1
-0.0256	-0.0008	-0.0315	0.0007	52.1
-0.0256	-0.0015	-0.0233	0.0007	52.1
-0.0181	-0.003	-0.015	-0.0008	52.1
-0.0091	-0.0046	-0.0023	-0.0008	52.1
-0.0038	-0.0053	0.009	-0.0015	52.1
-0.003	-0.0046	0.0172	0	52.1
0.0022	-0.0046	0.0202	0.0007	52.1
0.0045	-0.003	0.0045	0.0007	52.1
0.0037	-0.0008	-0.0165	0.0007	52.1
0.003	-0.0015	-0.0278	-0.0015	52.1
0.0015	-0.0053	-0.033	-0.0015	52.1
0	-0.0053	-0.03	-0.0015	52.1
-0.0053	0.0015	-0.0233	-0.0015	52.1
-0.0091	0.0045	-0.0128	-0.0015	52.1
-0.0158	-0.0008	-0.0015	-0.0023	52.1
-0.0165	0	0.0135	-0.0008	52.1
-0.0181	0.006	0.0232	0.0007	52.1
-0.0128	0.0105	0.024	0.0015	52.1
0.0075	0.009	0.0187	0.0007	52.1
0.0202	0.0067	0.0112	-0.0015	52.2
0.0202	0.0097	0.012	-0.003	52.2
0.0307	0.0105	0.0105	-0.0046	52.2
0.0382	0.0082	0.0075	-0.0046	52.2
0.0465	0.0067	0.0052	-0.0008	52.2
0.054	0.0052	0.0007	-0.0015	52.2
0.0502	0.0007	-0.0046	-0.003	52.2
0.0202	-0.0038	-0.006	-0.003	52.2
-0.0428	-0.0046	-0.006	-0.0023	52.2
-0.063	-0.0038	-0.0068	-0.0015	52.2
-0.0293	-0.0015	-0.003	-0.0023	52.2
-0.0181	-0.0038	-0.003	-0.0023	52.2
-0.0165	-0.0046	-0.0068	-0.0015	52.2
-0.0105	-0.003	-0.0128	-0.0008	52.2
-0.0105	-0.0015	-0.0165	-0.0008	52.2
-0.0075	-0.0015	-0.0165	0	52.2
-0.0068	-0.0008	-0.0105	0.0007	52.2
-0.0046	0.0007	-0.0015	0.003	52.2
-0.0015	-0.0015	0.0015	0.0022	52.2
-0.0008	-0.0008	-0.003	0.0007	52.2
-0.0015	-0.0015	-0.0046	0.0007	52.2
-0.0068	-0.0015	-0.0038	0.0007	52.2
-0.0098	-0.0008	-0.0053	0.0037	52.2
-0.0046	-0.0008	-0.0008	0.0045	52.2
0.0022	-0.0008	0.0007	0.0022	52.2
0.0045	-0.0008	0.006	0.0015	52.2
0.0015	0.0007	0.0075	0.0015	52.2
0.0007	0.0007	-0.0015	0.0007	52.2
0.0007	0.0007	-0.0068	-0.0008	52.2
0	0.0007	-0.006	0.0007	52.2
0.0015	0.0015	-0.0053	0.0015	52.2
0.003	0.0022	0.0007	0.0015	52.2
0.0045	0.0022	0.006	0.003	52.2
0.003	0.0015	0.012	0.0022	52.2
0.0015	0.0015	0.012	0.0015	52.2
0.0007	0.0015	0.003	0.003	52.1
-0.0008	0	-0.0075	0.0007	52.1
-0.0008	-0.003	-0.0158	0	52.1
-0.0015	-0.0023	-0.0165	0.0015	52.1
-0.0008	-0.003	-0.0135	0.0007	52.1
0.0007	-0.0015	-0.0046	-0.0008	52.1
0.0037	-0.0008	0.0052	0.0007	52.1
0.0052	-0.0008	0.009	-0.0015	52.1
0.0052	0	0.0037	-0.0023	52.1
0.0082	0.0007	0.0037	0	52.1
0.009	0.0037	0.0082	-0.0008	52
0.0082	0.003	0.0105	-0.0008	52
0.0082	0.0015	0.0067	-0.0008	52
0.0067	0.0022	0.0075	-0.0015	52
0.0075	0.003	0.0105	-0.0015	52
0.0045	0.0045	0.009	-0.0008	52
0.003	0.0045	0.0082	-0.0008	52
0.0037	0.0015	0.0082	-0.0008	52
0.003	-0.0023	0.0127	-0.0008	51.9
0	-0.0046	0.0105	-0.0015	51.9
-0.003	-0.0053	0.0045	-0.003	51.9
-0.0053	-0.0046	0.0007	-0.003	51.9
-0.0091	0	-0.003	-0.0008	51.9
-0.0143	0.0007	-0.0046	-0.0008	51.8
-0.0135	0.003	-0.0083	-0.0008	51.8
-0.0046	0.0015	-0.0105	0	51.8
0.0007	0	-0.0128	0.0007	51.8
-0.0015	0.0007	-0.0143	0.0022	51.8
-0.0053	-0.0015	-0.0128	0.0015	51.8
-0.0068	-0.0023	-0.0105	-0.0008	51.7
-0.0046	-0.0015	-0.0143	-0.0008	51.7
-0.003	-0.0015	-0.0233	-0.0008	51.7
-0.0008	-0.0008	-0.027	-0.0008	51.7
0.0015	-0.0008	-0.0218	-0.0023	51.7
0.003	0.0007	-0.0068	-0.0015	51.7
0.0045	0.0015	0.0165	-0.0008	51.6
0.0015	0.0007	0.0367	0	51.6
0.0045	0.0022	0.0382	0.0007	51.6
0.0052	0.0037	0.0315	-0.0015	51.6
0.006	0.003	0.0247	0.0007	51.5
0.0082	0.003	0.018	-0.0008	51.5
0.0045	0.0052	0.012	-0.0008	51.5
0.0015	0.0045	0.0067	0.0007	51.5
0.0007	0.0037	0.0015	-0.0008	51.5
0	0.0037	-0.0075	0.0007	51.4
0	0.0007	-0.015	0.0007	51.4
0	-0.0008	-0.0158	0.0022	51.4
0.0015	-0.0008	-0.0098	0.0015	51.3
0.003	-0.003	-0.006	0	51.3
0.0015	-0.0023	-0.0053	0.0015	51.3
0.0015	0.0015	-0.0046	0.0022	51.3
-0.0015	0.0007	-0.003	0.0015	51.3
-0.003	0.0007	0.003	0	51.3
0	0.0015	0.0105	0	51.2
-0.0015	0.0007	0.0135	-0.0008	51.2
-0.0008	0.0015	0.0202	-0.0023	51.2
0.0007	0.0075	0.0202	-0.0015	51.1
0.0022	0.012	0.012	-0.0008	51.1
0.003	0.0067	0.0067	-0.0015	51.1
0.0007	0.0022	-0.0008	-0.0023	51
0.0045	0.0037	0.0015	-0.0015	51
0.006	0.0052	0.0045	-0.0008	51
0.0067	0.003	-0.0015	0.0007	50.9
0	0	-0.012	-0.0008	50.9
-0.0165	-0.0038	-0.0248	-0.0015	50.9
-0.0248	-0.0075	-0.0315	-0.0023	50.8
-0.0143	-0.0075	-0.0338	-0.0023	50.8
-0.0083	-0.0068	-0.027	-0.003	50.8
-0.0075	-0.0083	-0.0128	-0.0053	50.8
-0.0008	-0.0075	0.0157	-0.0053	50.8
-0.0008	-0.0053	0.0465	-0.003	50.7
0.003	-0.0046	0.0555	-0.0015	50.7
0.006	-0.0023	0.0555	0	50.7
0.0052	0.0007	0.0697	0.0007	50.6
0.009	0.0045	0.0592	0.003	50.6
0.0075	0.009	0.0187	0.0037	50.5
0.0075	0.009	-0.0046	0.003	50.5
0.009	0.0067	-0.0105	0.003	50.5
0.0112	0.0052	-0.0128	0.0022	50.4
0.009	0.0067	-0.0105	0.003	50.4
0.0082	0.0052	-0.0128	0.003	50.4
0.006	0.003	-0.0165	0.0007	50.4
0.0052	0.0015	-0.0181	0.0007	50.3
0.0037	-0.0008	-0.0181	-0.0008	50.3
-0.0008	-0.0008	-0.0225	0.0007	50.2
-0.0068	-0.0023	-0.0233	0.0015	50.2
-0.0091	-0.003	-0.0203	0	50.2
-0.0105	-0.0038	-0.0173	0	50.1
-0.0143	-0.0053	-0.0218	-0.0008	50.1
-0.0158	-0.003	-0.0285	0.0007	50.1
-0.012	-0.003	-0.0308	0	50
-0.0053	-0.003	-0.0293	0.0007	50
-0.0015	-0.0023	-0.027	0.0015	49.9
0.0007	-0.0008	-0.0263	0.003	49.9
0.0037	-0.0015	-0.021	0.003	49.9
0.003	0	-0.0091	0.003	49.8
0.0037	0.003	-0.0105	0.003	49.8
0.009	0.0022	-0.0195	0.0015	49.8
0.0157	0.0037	-0.0203	0.0015	49.7
0.0255	0.0075	-0.0181	0	49.7
0.0345	0.0067	-0.0143	-0.0038	49.6
0.042	0.0022	-0.0068	-0.0023	49.6
0.0442	0.003	-0.0023	-0.0008	49.5
0.0097	0.0015	-0.0008	0.0007	49.5
-0.0533	0.0007	0.0067	0.003	49.5
-0.054	0.0007	0.021	0.003	49.4
-0.0158	-0.003	0.03	0.0015	49.4
-0.0128	-0.0015	0.0292	0.003	49.4
-0.0128	0.0007	0.0277	0.003	49.3
-0.0098	-0.0023	0.03	0.0015	49.3
-0.0128	-0.0128	0.0285	0.0007	49.2
-0.0083	-0.0225	0.024	-0.0015	49.2
-0.0075	-0.012	0.0157	-0.0015	49.1
-0.006	0.0052	0.0097	0.0007	49.1
-0.0068	0.0082	0.0105	-0.0008	49
-0.0008	0.003	0.009	-0.0008	49
0.003	0.003	0.0052	0.0015	49
0.0015	0.0022	0.0022	0.0015	48.9
0.0022	0.0015	-0.0008	0.0015	48.9
0.0007	0.003	-0.0015	0	48.8
0.0015	0.003	-0.0023	-0.0008	48.8
-0.0008	0.003	-0.0046	-0.0008	48.7
0.0007	0.0015	-0.003	-0.0008	48.7
0.0015	0.0007	-0.003	0.0007	48.6
0.0015	0.0015	-0.0046	0.0007	48.6
0.0022	0	-0.0091	0.0007	48.6
0.0015	0	-0.0128	0.0007	48.5
0.0015	0.0007	-0.0158	0	48.5
-0.0008	-0.0008	-0.0203	0.0007	48.4
-0.0015	-0.0015	-0.0195	-0.0008	48.4
-0.0015	-0.003	-0.0158	-0.0038	48.3
-0.0023	-0.0046	-0.0083	-0.0046	48.3
-0.0023	-0.0023	-0.0023	-0.0015	48.2
-0.003	0.0015	-0.003	-0.0023	48.2
-0.003	0.006	-0.003	-0.0023	48.1
0	0.0097	-0.0015	-0.003	48.1
0.0007	0.0105	0.0007	-0.0023	48
0.003	0.0127	0.009	0	48
0.0045	0.0217	0.0195	0.0007	47.9
0.0067	0.0217	0.033	-0.0008	47.9
0.0105	0.0157	0.03	0	47.8
0.009	0.009	0.0232	-0.0008	47.8
0.009	0.0045	0.024	-0.0008	47.7
0.012	0.0015	0.0172	-0.0023	47.7
0.0157	-0.0105	0.0142	-0.0008	47.6
0.0225	-0.0323	0.012	0	47.6
0.027	-0.0458	0.0142	-0.0038	47.5
0.0315	-0.0293	0.0195	-0.0046	47.5
0.0315	-0.0083	0.0082	-0.0053	47.4
0.018	-0.0015	0.0067	-0.0053	47.4
-0.0015	0.003	0.0045	-0.0046	47.3
-0.0008	0.0037	0.0045	-0.003	47.3
-0.0046	0.0022	0.0015	0	47.2
-0.0308	0.0022	-0.0068	0.0007	47.2
-0.0465	0.0015	-0.0105	0.003	47.1
-0.0338	0.0022	-0.0143	-0.0008	47
-0.0158	0.003	-0.0143	0	47
-0.012	0.003	-0.0158	0.0007	46.9
-0.0091	0.0045	-0.015	-0.0015	46.9
-0.0091	0.0045	-0.0165	0.0007	46.8
-0.0083	0.0037	-0.0165	-0.0008	46.8
-0.0046	0.0045	-0.0181	0	46.7
-0.0053	0.0045	-0.0195	0.0015	46.6
-0.0038	0.0045	-0.0158	0.0015	46.6
-0.003	0.0015	-0.0158	-0.0008	46.5
-0.0008	0	-0.0105	-0.003	46.4
0.0007	0	-0.0046	-0.0015	46.4
0.0015	-0.0008	0.003	0	46.3
0.0037	-0.0008	0.012	0.0007	46.3
0.0052	-0.0015	0.018	0.003	46.2
0.0045	-0.0015	0.0142	0.0022	46.1
0.0045	-0.0015	0.0142	0.0007	46.1
0.006	0	0.0187	0.0015	46
0.0067	0.0015	0.0142	0.0022	46
0.009	0.0022	0.009	0.003	45.9
0.0082	0.003	0.0022	0	45.9
0.0067	0.006	-0.0015	-0.0008	45.8
0.0045	0.0067	-0.0015	0	45.7
0.003	0.003	-0.0008	0.0007	45.7
0.0015	0.003	-0.0046	0.0015	45.6
0.0007	0.003	-0.0046	0.0007	45.5
-0.0008	0.0007	-0.0015	0.0007	45.5
-0.003	-0.0015	-0.003	-0.0008	45.4
-0.0015	-0.0015	-0.0053	-0.0015	45.4
-0.0008	-0.0015	-0.0053	0.0007	45.3
-0.0008	-0.0038	-0.0083	0.0015	45.2
-0.0015	-0.0038	-0.0158	0.0015	45.2
0	-0.003	-0.0181	0.0007	45.1
0.0037	-0.0038	-0.0128	-0.0008	45
0.0022	-0.0015	-0.0046	-0.0008	45
0.0015	-0.0015	0.0015	-0.0008	44.9
0.0007	-0.0008	0.0037	0.0015	44.9
0.0015	0	0.003	0.0007	44.8
0.0007	0	0.009	0.0022	44.7
-0.0015	-0.0008	0.0165	0.0015	44.7
-0.0046	0.0007	0.018	0	44.6
-0.0053	0.003	0.0082	0.0015	44.5
-0.006	0.0045	0.003	0.0007	44.5
-0.0091	0.0045	0.0112	0.0007	44.4
-0.012	0.003	0.0157	0.0037	44.4
-0.0158	0.0022	0.018	0.0037	44.3
-0.0091	0.0015	0.0187	0.003	44.2
0.003	0.0022	0.0127	0.0045	44.2
0.006	0.0015	0.0037	0.0045	44.1
0.0082	0.003	-0.0038	0.0022	44.1
0.009	0.0045	-0.0105	0	44
0.006	0.003	-0.0143	-0.0008	43.9
0.0045	0.003	-0.015	-0.0015	43.9
0.0015	0.0022	-0.0173	-0.0023	43.8
0.0015	-0.0008	-0.0158	-0.0015	43.7
0.0037	0.0015	-0.0143	-0.003	43.6
0.0015	0.0052	-0.006	-0.0038	43.6
0.0015	0.0052	0.0052	-0.006	43.6
0.0015	0.0037	0.012	-0.0075	43.5
0	0.0015	0.0127	-0.0046	43.4
-0.0008	-0.0023	0.009	-0.0015	43.4
-0.0015	-0.003	0.003	-0.0015	43.3
-0.0008	-0.0038	0.0007	0.0007	43.2
-0.0015	-0.0015	-0.0015	0.0015	43.1
-0.006	-0.0008	-0.003	0.0015	43.1
-0.0068	-0.003	0.0015	0.003	43
-0.003	-0.0023	-0.0015	0.0022	43
-0.0015	0.0015	-0.0105	0.0022	42.9
-0.0008	0.0045	-0.0195	0.0015	42.8
0.0015	0.003	-0.0195	0	42.8
0.0082	0.0052	-0.0128	0.0007	42.7
0.015	0.006	-0.0068	-0.003	42.7
0.0157	0.003	0.0007	-0.0046	42.6
0.0232	0.0037	0.009	-0.0015	42.5
0.0352	0.0022	0.0285	0.0007	42.4
0.048	0.0015	0.0382	0.0037	42.3
0.054	0.0015	0.0345	0.003	42.3
0.0217	-0.003	0.027	0.0022	42.3
-0.0458	-0.015	0.0045	0.0007	42.2
-0.0585	-0.0165	0.0007	0	42.2
-0.0173	-0.0053	0.0037	-0.0008	42.1
-0.0091	-0.0046	0.0015	-0.0008	42
-0.0075	-0.0046	0.0037	-0.0015	42
-0.0083	-0.003	-0.003	-0.0015	41.9
-0.0075	-0.0015	-0.0075	0.0007	41.8
0.0015	0	-0.0128	0.0007	41.8
-0.0135	0.003	-0.0143	0	41.8
-0.0285	0.0052	-0.0158	-0.0008	41.7
-0.0293	0.0052	-0.015	-0.0015	41.6
-0.024	0.0067	-0.0091	0	41.6
-0.0263	0.0045	-0.0068	0.0007	41.5
-0.0293	0.003	-0.0015	0.0007	41.4
-0.0188	0.0045	0.003	0.0015	41.4
0.003	0.003	0.0037	0.0015	41.4
0.0082	0.0007	0.0015	0.0022	41.3
0.0052	-0.0008	0.0022	0.0015	41.2
0.0127	0.0015	0.0015	0.0007	41.2
0.006	0.0052	0.0037	0.0007	41.1
0.0075	0.006	-0.0053	0.0007	41
0.0052	0.006	-0.0105	0.0015	41
0.0045	0.0067	-0.0158	0.0007	40.9
0.006	0.0037	-0.0278	0.0015	40.9
0.0015	0	-0.0346	0.0007	40.8
-0.0008	-0.0008	-0.033	-0.0008	40.8
-0.0015	0.003	-0.0233	-0.0015	40.7
0	0.003	-0.0181	-0.0008	40.6
0.0015	0.0022	-0.0046	-0.0015	40.6
0.0075	0.0015	0.003	-0.0023	40.5
0.012	0.0037	0.009	-0.0008	40.5
0.0142	0.006	0.024	0	40.4
0.0157	0.006	0.0442	-0.0008	40.3
0.0135	0.0052	0.0652	0	40.3
0.009	0.0037	0.0607	0.0015	40.2
0.003	0.0022	0.0405	0.0015	40.2
0	-0.012	0.018	0	40.1
-0.0008	-0.0218	0.003	-0.0008	40
0.0015	-0.0091	0	-0.0015	40
0.012	0.003	-0.0015	-0.0008	40
0.0217	0.003	-0.0038	0.0007	39.9
0.0195	0	-0.0098	0	39.8
0.0127	-0.0023	-0.0158	-0.0008	39.8
0.006	-0.0038	-0.021	-0.0023	39.7
-0.0023	-0.0053	-0.0173	-0.0015	39.7
-0.0038	-0.0075	-0.0046	-0.0008	39.6
-0.0053	-0.0038	0.012	-0.0023	39.6
-0.003	-0.0008	0.0165	-0.0015	39.5
-0.003	0.0045	0.0127	-0.0008	39.5
-0.0015	0.009	0.009	-0.0008	39.4
-0.003	0.0045	-0.0046	-0.0015	39.3
-0.0046	0.0022	-0.0098	-0.003	39.3
-0.0038	0	-0.015	-0.003	39.2
-0.0053	0	-0.0203	-0.003	39.2
-0.0038	0	-0.0233	-0.0023	39.1
-0.0038	0.0022	-0.024	-0.0015	39.1
-0.0008	0.0097	-0.0195	0	39
-0.0015	0.0127	-0.0165	0	38.9
-0.003	0.0142	-0.0068	-0.0008	38.9
-0.0015	0.0165	0	0.0015	38.9
-0.003	0.018	0.006	0.0015	38.8
0	0.015	0.0165	0.0007	38.7
0.0007	0.0097	0.0142	0.0022	38.7
-0.003	0.0045	0.0075	0.0007	38.6
-0.003	-0.0053	-0.0015	0	38.6
-0.0046	-0.0233	-0.0165	0.0007	38.5
-0.0046	-0.0465	-0.0278	0.0007	38.5
-0.0068	-0.0563	-0.0443	0	38.4
-0.0075	-0.0315	-0.0495	0	38.3
-0.0038	-0.0015	-0.0436	-0.0015	38.3
-0.0008	0.0045	-0.0465	-0.0023	38.2
0.0007	0.0052	-0.0368	-0.0008	38.2
0.0037	0.0067	-0.0046	0	38.1
0.009	0.0052	0.0427	0.0015	38.1
0.015	0.0082	0.0742	0.0022	38
0.018	0.009	0.0855	0.0022	37.9
0.0165	0.0082	0.1027	0.0022	37.9
0.018	0.009	0.0952	0.0015	37.8
0.018	0.0052	0.054	0	37.8
0.0217	0.0045	0.0307	-0.0015	37.8
0.027	0.0037	0.0112	0.0007	37.7
0.0315	-0.0008	0.0007	0.0015	37.7
0.0412	-0.003	0.0037	0.0007	37.6
0.0255	-0.0038	-0.003	0.0007	37.5
-0.0405	-0.0023	-0.006	-0.0008	37.5
-0.09	-0.0053	-0.0143	0	37.4
-0.0578	-0.0053	-0.0188	-0.0008	37.4
-0.0413	-0.0038	-0.0203	-0.003	37.3
-0.0405	-0.0038	-0.0218	-0.0046	37.3
-0.0128	-0.003	-0.0263	-0.0053	37.3
-0.0128	-0.0023	-0.0278	-0.0046	37.2
-0.0091	-0.0015	-0.0218	-0.0015	37.2
-0.006	0.0045	-0.0143	0.0015	37.1
-0.0083	0.009	0.0015	0.0022	37
-0.003	0.0045	0.0015	0.0022	37
-0.0075	0.003	-0.0098	0.0022	36.9
-0.0083	0.0045	-0.0135	0.0037	36.9
-0.006	0.0075	-0.006	0.003	36.8
0.003	0.0112	-0.012	0.0015	36.8
0.0082	0.009	-0.0263	0.0022	36.8
0.0097	0.0082	-0.0256	0.0015	36.7
0.0097	0.0045	-0.0181	0.0007	36.6
-0.0008	0.0015	-0.0113	-0.0023	36.6
-0.0053	-0.0008	-0.0143	-0.0038	36.5
0.0037	0.0007	0.0037	-0.0023	36.5
0.009	0.0022	0.0367	-0.003	36.4
0.0142	-0.0008	0.0502	-0.0038	36.4
0.0202	0	0.051	-0.0023	36.3
0.018	0.0015	0.039	-0.0008	36.3
0.0232	-0.0091	0.0045	-0.0023	36.2
0.024	-0.03	-0.0098	-0.0046	36.1
0.027	-0.0233	0.0052	-0.003	36.1
0.0255	-0.0053	0.0105	-0.0038	36
0.006	-0.0083	0.0067	-0.0038	36
-0.0098	-0.0068	-0.0015	-0.003	36
-0.0023	-0.0038	-0.0015	-0.0015	35.9
0.0172	-0.006	-0.0046	-0.0008	35.8
0.0015	-0.0053	-0.0135	-0.003	35.7
-0.0315	-0.0015	-0.0195	-0.0038	35.7
-0.0278	0.0015	-0.0256	-0.0015	35.7
-0.0105	-0.0008	-0.0285	0.0015	35.6
-0.0083	-0.0008	-0.027	0.003	35.6
-0.006	-0.0015	-0.0203	0.0015	35.5
-0.0053	-0.0008	-0.0173	0.0007	35.5
-0.0068	-0.0015	-0.0143	-0.0008	35.4
-0.0068	-0.0015	-0.0113	0.0007	35.4
-0.0046	0.0015	-0.0091	0.0007	35.3
-0.0008	-0.0008	-0.0105	0.0015	35.3
0.0007	0.0022	-0.0015	0.0007	35.2
0.0067	0.0022	0.0202	-0.0008	35.2
0.012	0.0007	0.0217	0	35.1
0.0142	0.0015	0	-0.0008	35.1
0.0165	0.0007	-0.0105	-0.0008	35
0.0142	-0.0023	-0.0195	-0.0015	35
0.0127	-0.0023	-0.0195	0.0007	34.9
0.0157	0	-0.0083	0.0007	34.9
0.0112	0	0.0045	-0.0008	34.8
0.0097	0.006	0.0157	-0.0008	34.7
0.0127	0.012	0.027	-0.003	34.7
0.0097	0.0127	0.0465	-0.003	34.7
0.0022	0.012	0.039	0.0007	34.6
-0.0053	0.0097	0.0277	-0.0008	34.6
-0.0143	0.0052	0.0315	-0.003	34.6
-0.0181	0.0022	0.021	-0.0008	34.5
-0.0181	0.0015	0.009	0	34.5
-0.0263	-0.0008	0.0015	0.0007	34.4
-0.0315	0	0	0.0015	34.4
-0.0158	-0.0008	-0.0046	0	34.3
-0.0143	-0.003	-0.0105	0.0015	34.2
-0.027	-0.0046	-0.0128	0.003	34.2
-0.0203	-0.006	-0.0143	0.0037	34.1
-0.0083	-0.0053	-0.0083	0.003	34.1
0.0007	-0.0038	-0.003	0.0007	34.1
-0.003	-0.0046	-0.003	-0.0008	34
-0.0008	-0.0053	-0.0083	0.0007	34
0.0015	-0.003	-0.012	0.003	33.9
0.0045	-0.0008	-0.015	0.0037	33.9
0.0082	0.003	-0.0173	0.0045	33.8
0.0045	0.0022	-0.024	0.0045	33.8
0.0052	-0.0008	-0.0278	0.003	33.7
0.0015	0	-0.024	0.0007	33.7
0.0045	0.003	-0.0173	0.0007	33.7
0.0007	0.009	-0.003	-0.0008	33.6
-0.0038	0.0127	0.012	0	33.6
0	0.0157	0.0292	0.0015	33.5
0.0045	0.018	0.0405	0.0015	33.5
0.0067	0.0195	0.0382	0.003	33.4
0.0052	0.0172	0.027	0.0045	33.3
0.0067	0.0135	0.009	0.003	33.3
0.0067	0.0075	-0.0015	0.0015	33.3
0.0105	-0.0091	-0.0091	0.0015	33.2
0.0127	-0.0315	-0.0068	0.0007	33.2
0.0157	-0.054	-0.0068	0.0015	33.1
0.024	-0.042	-0.0091	0.0015	33.1
0.0292	-0.0091	-0.0075	0.0015	33
0.0307	-0.0008	-0.0068	0.0015	33
0.0367	-0.0008	-0.0053	0.0015	32.9
0.0277	0.0015	-0.0015	0.0037	32.8
-0.0181	0.0015	0.0052	0.0022	32.8
-0.0563	0.0007	-0.012	0.0007	32.8
-0.0285	-0.0015	-0.0308	-0.003	32.8
-0.0075	-0.003	-0.0248	-0.0046	32.7
-0.0195	0	-0.0158	-0.0023	32.6
-0.0046	0.0015	0.0082	-0.003	32.6
-0.0046	0.0015	0.0307	-0.0015	32.5
-0.0038	0.0037	0.0457	-0.0008	32.5
0.0015	0.0045	0.0495	0	32.4
0.0007	0.0052	0.0427	0.003	32.4
0.0067	0.0045	0.0292	0.0022	32.4
0.003	0.0067	0.003	0.0015	32.3
0.0045	0.0142	-0.012	0.0015	32.3
0.003	0.0165	-0.015	0.0015	32.2
0.003	0.0105	-0.0158	0.0007	32.1
0.0067	0.0082	-0.0105	0.0007	32.1
0.0045	0.0067	-0.0053	0.0022	32
-0.0083	0.0052	-0.0068	0.0022	32
-0.0256	0.0045	-0.0083	0.0007	31.9
-0.0248	0.003	-0.0068	-0.0008	31.9
-0.0091	0.0045	-0.0128	-0.0015	31.9
-0.003	0.0015	-0.0143	-0.0008	31.8
0.0015	-0.003	-0.0158	-0.003	31.8
0.006	-0.0008	-0.0143	-0.0046	31.7
0.0067	0.003	-0.0091	-0.003	31.7
0.0105	0.0052	-0.003	-0.003	31.7
0.009	0.0067	0.0007	-0.003	31.6
0.0067	0.0082	-0.0068	-0.0038	31.6
0.0015	0.0052	-0.0113	-0.0053	31.5
0.0007	0.0052	-0.024	-0.0053	31.5
0.0022	0.0067	-0.0256	-0.0068	31.5
-0.003	0.0045	-0.0091	-0.006	31.4
-0.0158	0.0052	-0.0165	-0.0046	31.4
-0.0165	0.003	-0.0195	-0.0046	31.3
0.0015	-0.0008	-0.0015	-0.0015	31.3
-0.0008	-0.0008	0.021	0.0015	31.3
-0.0008	0.003	0.0585	0.0037	31.2
0.0082	0.0097	0.0817	0.0052	31.2
0.0045	0.0082	0.063	0.0045	31.1
0.0067	0.003	0.0472	0.0015	31
0.0067	0.0022	0.0397	-0.0015	31
0.0075	0.0007	0.0172	-0.0015	31
0.009	0.003	0.0075	-0.0015	31
0.0067	0.0015	-0.0015	-0.003	31
0.0037	-0.0008	-0.0075	-0.0023	30.9
0.0007	-0.0015	-0.015	-0.0008	30.9
0.0022	-0.0091	-0.0218	-0.0008	30.8
0.0007	-0.0218	-0.0203	-0.0015	30.8
0.0015	-0.0285	-0.024	-0.0046	30.8
0	-0.0165	-0.0218	-0.003	30.7
-0.0008	-0.0165	-0.0195	-0.0015	30.7
-0.0008	-0.0308	-0.015	-0.003	30.6
-0.0046	-0.0181	-0.0225	-0.0038	30.6
-0.0068	0.0015	-0.0353	-0.003	30.6
-0.0068	0.0052	-0.0346	-0.0046	30.6
-0.0015	0.0067	-0.0383	-0.003	30.5
0.003	0.0052	-0.024	-0.0015	30.5
0.0007	0.0045	0.0045	-0.0008	30.5
0.0007	0.003	0.027	0.0022	30.4
0.0082	0.0045	0.0412	0.0022	30.3
0.012	0.0037	0.0495	0.003	30.3
0.012	0.003	0.0435	0.0015	30.3
0.0067	0.0045	0.0135	0	30.3
0.0067	0.0037	-0.0023	0.0007	30.2
0.015	0.0037	-0.0083	0	30.2
0.0157	0.0007	-0.0128	-0.0015	30.2
0.0105	0.006	-0.0105	-0.0023	30.1
0.0015	0.0067	-0.0075	-0.0015	30.1
-0.0075	0.0007	-0.0038	0.0022	30.1
-0.0181	-0.0008	-0.003	0.003	30
-0.0293	-0.003	-0.0008	0.003	30
-0.0405	-0.0015	0.0105	0.003	30
-0.0293	0.0007	0.0082	0.0015	29.9
-0.0053	-0.0015	-0.0075	0.0007	29.9
-0.0023	-0.0038	-0.0075	0.0022	29.9
0	-0.003	-0.006	0.0007	29.8
0.0015	-0.0008	-0.0091	-0.0008	29.8
-0.0008	-0.0015	-0.0053	-0.0008	29.7
0.003	0.0007	-0.0091	0.0007	29.7
0	0.0067	-0.0068	0.0015	29.7
0.0007	0.006	-0.0015	0.0015	29.7
0.0045	0.0045	0.0022	0.003	29.6
0.0045	0.0052	0.012	0.0007	29.6
0.0052	0.0075	-0.0008	0.0015	29.6
0.0067	0.0082	-0.0091	0.0007	29.5
0.012	0.006	-0.0105	-0.0015	29.5
0.0097	0.003	-0.0181	-0.0015	29.4
0.0067	0.0015	-0.015	-0.0015	29.4
0.0075	0.0045	-0.006	-0.0008	29.4
0.006	0.003	0.0225	0	29.3
0.0022	0	0.0465	-0.0023	29.3
0.0037	0.0007	0.0337	-0.0008	29.2
0.0255	0.0052	0.0165	-0.0015	29.2
0.0465	0.015	0.018	-0.0015	29.2
0.0262	0.0172	0	0.0007	29.2
-0.0383	0.018	-0.0158	0.0007	29.1
-0.0713	0.021	-0.0068	0	29.1
-0.0285	0.0165	-0.0135	-0.003	29.1
-0.0105	0.012	-0.0083	-0.0046	29
-0.0083	0.0082	-0.0023	-0.0015	28.9
0.0082	-0.0038	0.0007	-0.0023	28.9
0.0067	-0.0225	0.012	-0.0008	28.9
0.0067	-0.045	0.0262	0.0007	28.9
-0.0008	-0.0503	0.0412	0.0007	28.9
-0.0068	-0.0256	0.027	-0.0008	28.8
-0.0105	-0.0046	0.0082	-0.0015	28.8
-0.0068	-0.0015	-0.0008	-0.0008	28.8
-0.006	0.003	-0.0053	-0.0008	28.8
-0.027	0.0052	-0.0053	-0.0008	28.8
-0.0233	0.003	-0.0105	-0.0015	28.8
0.0045	0.0045	-0.0203	-0.0008	28.8
0.012	0.0015	-0.0263	0.003	28.7
0.0112	0.003	-0.0353	0.0015	28.7
0.0142	0.003	-0.0495	0.003	28.7
0.009	0.0052	-0.0383	0.003	28.6
0.0142	0.0067	-0.0375	0.0015	28.6
0.015	0.009	-0.0315	0.0015	28.6
0.0112	0.0105	-0.0098	0	28.6
-0.012	0.0105	0.0172	0.0037	28.5
-0.024	0.0105	0.0457	0.0082	28.5
-0.0023	0.0067	0.0517	0.0052	28.5
0.0045	0.0007	0.0495	0.0015	28.5
0.0007	-0.0075	0.0195	0.0015	28.4
0.009	-0.0218	-0.003	-0.0015	28.4
0.0165	-0.0353	0.0052	-0.0053	28.3
0.015	-0.0218	0.012	-0.006	28.3
-0.0015	0.0007	0.0345	-0.003	28.3
-0.0068	-0.0008	0.0517	-0.0015	28.3
0.0127	0.0007	0.0457	0	28.3
0.0195	0.0045	0.0292	0.0007	28.2
0.0082	0.003	0.012	0.0015	28.2
0.0075	0.0037	-0.0068	0.003	28.2
-0.0053	0.0022	-0.0263	0.0037	28.1
-0.0158	0.0052	-0.0293	0.003	28.1
-0.0098	0.0052	-0.0233	0.003	28
-0.0053	0.0007	-0.0195	0.0022	28
0.0007	0.0022	-0.0158	0.003	28
-0.0015	0.0052	-0.0135	0.0015	27.9
-0.0008	0.0045	-0.0113	0.0007	27.9
0.0015	0.0052	-0.0128	0.0015	27.9
-0.0023	0.0037	-0.0135	0.0015	27.9
-0.0008	0.0015	-0.0143	-0.0008	27.9
-0.003	0.0015	-0.0195	0.0007	27.8
-0.0046	-0.003	-0.024	0.0015	27.8
-0.0008	-0.0015	-0.03	0.0045	27.7
0.0015	-0.0008	-0.0278	0.003	27.7
-0.0008	-0.006	-0.021	0.0015	27.7
-0.003	-0.0083	-0.0165	0.0007	27.6
-0.0068	-0.0046	-0.0135	0	27.6
-0.0098	0.003	-0.0083	-0.0008	27.5
-0.0091	0.0082	-0.0008	-0.0015	27.5
-0.0068	0.0067	-0.0008	0.0007	27.5
-0.0068	0.0052	0.0045	0.0015	27.4
0.0007	0.0082	0.0127	0	27.4
0.0082	0.009	0.0157	-0.0008	27.4
0.0165	0.012	0.0262	-0.003	27.4
0.0232	0.0127	0.0262	-0.0008	27.3
0.0255	0.0097	0.0232	-0.0015	27.3
0.033	-0.006	0.0217	-0.006	27.3
0.0457	-0.024	0.0217	-0.006	27.2
0.0645	-0.0113	0.0292	-0.0068	27.2
0.0847	0.012	0.0157	-0.0068	27.2
0.1012	0.0105	0.006	-0.0068	27.1
0.099	0.0067	0.009	-0.0046	27.1
0.018	0.0052	0.0045	-0.0015	27
-0.1478	0.0015	-0.003	-0.0008	27
-0.2115	0.0007	-0.0091	-0.0023	27
-0.1245	-0.0008	-0.012	0	27
-0.0691	0	-0.0143	0.003	26.9
-0.0383	-0.0015	-0.0195	0.0015	26.9
-0.0165	-0.003	-0.0203	0.0015	26.9
-0.0165	-0.003	-0.0158	0.0037	26.8
-0.0075	-0.0038	-0.0158	0.0037	26.8
-0.0083	-0.003	-0.012	0.0015	26.7
-0.0068	-0.0046	-0.0181	0	26.7
-0.0075	-0.0053	-0.0368	0	26.7
-0.0053	-0.006	-0.0413	0.0015	26.6
-0.0008	-0.0068	-0.0405	-0.0015	26.6
0.0007	-0.0068	-0.0458	-0.0023	26.6
0.0037	-0.0038	-0.0293	-0.0008	26.5
0.0082	-0.0008	0.003	0	26.5
0.0225	0.0022	0.0382	0.0045	26.5
0.0277	0.0067	0.0735	0.006	26.5
0.0262	0.0067	0.0892	0.0037	26.4
0.0232	0.0067	0.0802	0.003	26.4
0.0232	0.0075	0.0502	0.003	26.4
0.0202	0.006	0.027	0.0045	26.3
0.015	0.012	0.0195	0.0015	26.3
0.0075	0.0157	0.0142	0	26.2
0.003	0.0172	0.0127	-0.0015	26.2
0.0045	0.018	0.0052	-0.0023	26.2
0.0067	0.015	0.0015	-0.0023	26.1
0.012	0.0082	-0.0008	-0.003	26.1
0.015	0.0045	-0.003	-0.0015	26.1
0.0105	-0.003	-0.0046	-0.0008	26.1
0.009	-0.0218	-0.006	-0.0008	26
0.0105	-0.0436	0.0007	-0.0008	26
0.0067	-0.0578	-0.0083	0.0007	25.9
-0.0046	-0.039	-0.0218	0.0007	25.9
-0.0143	-0.0091	-0.0218	-0.0008	25.8
-0.0195	-0.006	-0.0181	-0.0008	25.8
-0.0105	-0.0075	-0.0158	-0.0008	25.8
0.006	-0.0008	-0.0195	0	25.8
0.0022	0.0045	-0.0143	0.0007	25.7
0.0007	0.012	-0.0135	0.0007	25.7
0.0045	0.0127	-0.0091	-0.0015	25.7
0.0052	0.0097	0.003	-0.0015	25.6
0.0127	0.0082	-0.0053	0.0015	25.6
0.0232	0.0105	-0.0046	0.0037	25.6
0.033	0.012	0.0052	0.003	25.6
0.0292	0.009	0.0045	0.0015	25.6
0.0067	0.0045	0.0015	-0.0008	25.5
-0.0113	-0.0068	0.0022	-0.0023	25.5
0.0052	-0.0128	0.0112	-0.0015	25.5
0.0112	-0.003	0.0105	0	25.4
-0.024	0.0075	0.0015	0.0015	25.4
-0.0578	0.009	-0.0091	0.003	25.4
-0.0458	0.009	-0.0113	0.0015	25.3
-0.003	0.0082	-0.0046	0.0007	25.3
-0.0135	0.0075	-0.0098	-0.0015	25.2
-0.0383	0.0037	-0.0053	-0.0008	25.2
-0.0346	0.0007	0.0015	0.0007	25.2
-0.0203	-0.003	0.0052	0.0007	25.2
-0.0165	-0.0015	0.0045	0.0007	25.2
-0.0083	0.0015	0.003	-0.003	25.2
0.015	0.0007	0.0127	-0.003	25.1
0.0082	0.0022	0.0067	-0.0015	25.1
0.0082	0.0067	-0.0091	0.0007	25.1
0.003	0.009	-0.0181	0.003	25.1
0.0007	0.0052	-0.0285	0.0015	25
-0.003	0	-0.0248	0.0015	25
-0.0068	0.0015	-0.0165	0.0007	25
0.0037	0.003	-0.0083	-0.0015	24.9
0.003	0.003	0.0112	-0.0015	24.9
0.0082	0.0015	0.0105	-0.0008	24.9
0.0045	0.0007	0.0045	0	24.8
0.0082	0	0.0165	0	24.8
0.0142	-0.0008	0.039	-0.0015	24.8
0.0165	-0.0015	0.0525	-0.0015	24.8
0.0165	-0.0008	0.0307	-0.0008	24.7
0.0097	-0.0008	0.0067	0.0007	24.7
0.0127	-0.0046	0.0052	0.0015	24.7
0.0165	-0.0046	-0.0046	0.0022	24.7
0.0232	-0.0046	-0.0173	0.0007	24.7
0.0292	0.0007	-0.0233	-0.0008	24.6
0.0405	0.003	-0.0233	-0.0008	24.6
0.0442	0.0045	-0.0105	-0.0015	24.6
0.0015	0.0052	0.0052	-0.0015	24.5
-0.0825	0.003	0.0082	-0.0008	24.5
-0.0803	0.0082	0.003	-0.0015	24.5
-0.012	0.0082	0.003	-0.003	24.4
-0.0015	0.0015	0.0105	-0.003	24.4
0.0135	-0.003	0.0112	0	24.4
0.0232	-0.0046	0.0007	-0.0008	24.4
0.0165	-0.0068	-0.0068	-0.0008	24.3
0.012	-0.0053	-0.012	0.0007	24.3
-0.0135	-0.0023	-0.0128	-0.0008	24.3
-0.024	-0.0015	-0.0105	0.0007	24.3
-0.0181	-0.0015	-0.0083	0.003	24.3
0.0067	0	0.0007	0.0022	24.2
0.0127	0.0105	0.0067	0.0007	24.2
0.0075	0.0187	0.012	-0.0008	24.1
-0.006	0.0135	0.0067	-0.0015	24.1
-0.0263	0.0037	-0.0128	-0.0015	24.1
-0.0181	-0.0008	-0.0173	-0.003	24
-0.0105	-0.003	-0.0233	-0.006	24
-0.0015	-0.0053	-0.03	-0.0053	23.9
0.0067	-0.0098	-0.0181	-0.0046	23.9
0.0067	-0.0091	0.0082	-0.0046	23.9
0.0105	-0.0053	0.045	-0.0053	23.8
0.0105	-0.0046	0.0495	-0.0046	23.8
0.0127	-0.0015	0.0352	-0.0038	23.8
0.0127	-0.0008	0.0405	-0.006	23.8
0.0112	-0.0015	0.0352	-0.0068	23.7
0.0082	-0.0008	0.012	-0.0068	23.7
0.003	0	-0.0053	-0.0068	23.6
0.003	0.0022	-0.0128	-0.0038	23.6
0.0015	0.003	-0.0195	-0.0015	23.6
0.0007	-0.0008	-0.0256	-0.0008	23.5
-0.0038	-0.0015	-0.0315	-0.0008	23.4
-0.0098	-0.0008	-0.0338	0.0007	23.4
-0.0105	-0.0015	-0.0256	0.003	23.4
-0.0068	0.0022	-0.0098	0.003	23.4
-0.0015	0.0015	0.0075	0.003	23.4
0.003	-0.0008	0.0262	0.0045	23.3
0.0067	0.0015	0.0165	0.006	23.3
0.003	0.0015	0.0015	0.0067	23.3
0.0015	0.003	-0.0008	0.006	23.2
0.0037	0.003	-0.012	0.0052	23.2
0.0067	0.0082	-0.0091	0.0067	23.2
0.0127	0.0217	-0.0083	0.0067	23.1
-0.0015	0.027	-0.0083	0.003	23.1
-0.0181	0.024	0.0015	0.0022	23.1
-0.0083	0.0217	0.0165	0.003	23
0.009	0.0135	0.0277	0.0037	23
0.0142	0.0082	0.0127	0.0037	23
-0.0015	0.0022	-0.0038	0.0007	22.9
-0.0143	-0.0158	-0.0091	-0.0023	22.9
-0.003	-0.042	-0.0188	-0.0015	22.9
0.0022	-0.0615	-0.012	-0.0008	22.8
-0.0068	-0.06	-0.0068	-0.0008	22.8
-0.0008	-0.0361	-0.0091	0	22.8
0.0015	-0.0128	-0.0128	0.0015	22.8
0	0.0105	-0.0203	0.0045	22.7
0.0037	0.018	-0.0285	0.0037	22.7
0.0015	0.0082	-0.0181	0.0015	22.7
-0.003	0.0037	-0.003	-0.0015	22.6
-0.0053	-0.0015	-0.0165	-0.0038	22.6
-0.0015	-0.0015	-0.0158	0.0015	22.6
0.0015	-0.0015	0.0105	0.003	22.5
0.009	-0.0068	0.0337	0.0037	22.5
0.0225	-0.0158	0.051	0.0052	22.5
0.0292	-0.0158	0.057	0.0045	22.5
0.0352	0.0067	0.0307	0.0037	22.5
0.039	0.018	0.021	0.0015	22.4
0.039	0.0127	0.0165	-0.0015	22.4
0.0397	0.0142	0.0015	-0.0008	22.4
0.0517	0.0127	0.0045	0.0007	22.3
0.0645	0.0082	0.0075	0.0007	22.3
0.0315	0.0045	0.0127	-0.0008	22.2
-0.0428	-0.0023	0	-0.003	22.2
-0.0908	0	-0.0068	-0.0068	22.2
-0.09	0.0082	-0.0053	-0.0053	22.2
-0.0953	0.015	-0.0105	-0.0046	22.2
-0.12	0.015	-0.012	-0.0068	22.1
-0.1013	0.0127	-0.0181	-0.0068	22.1
-0.0728	0.012	-0.0188	-0.0053	22.1
-0.0728	0.0082	-0.0293	-0.0038	22
-0.0518	0.0075	-0.0368	-0.0023	22
-0.0113	0.0022	-0.0308	-0.0008	22
0.006	-0.0046	-0.0203	0.0015	22
0.0315	-0.0195	-0.0128	0.0022	22
0.0472	-0.0398	-0.0158	0.003	21.9
0.0442	-0.033	-0.0068	0.003	21.9
0.0517	-0.003	0.003	0.0015	21.9
0.0577	0.009	0.0082	0.0007	21.8
0.0442	0.0067	0.0352	0.0007	21.8
-0.0188	0.0082	0.0607	0.0007	21.8
-0.039	0.0097	0.0615	0.0015	21.8
0.0217	0.0105	0.036	-0.0008	21.7
0.0577	0.012	0.0105	-0.0023	21.7
0.042	0.009	-0.006	-0.003	21.7
0.0292	0.0105	-0.0098	-0.0015	21.6
0.0345	0.0097	0.0022	-0.003	21.6
0.0352	0.006	0.0045	-0.003	21.6
0.0307	0.0052	0.0127	0.0007	21.5
0.0157	0.0052	0.015	0.0022	21.5
-0.0008	0.006	0.0067	0.0007	21.5
-0.0158	0.0067	-0.003	0.0007	21.5
-0.0203	0.0052	-0.0105	0.0015	21.4
-0.0068	-0.0008	-0.0143	0.003	21.4
0.0045	-0.0083	-0.0195	0.0015	21.4
0.0082	-0.0105	-0.0203	0.0022	21.4
0.003	-0.012	-0.024	0.0022	21.3
-0.003	-0.012	-0.0346	0.0015	21.3
-0.0068	-0.0091	-0.0495	0.003	21.3
-0.0083	-0.0105	-0.0533	0.003	21.2
-0.012	-0.0135	-0.0405	-0.0015	21.2
-0.0143	-0.0135	-0.0128	-0.003	21.2
-0.0075	-0.0135	0.0105	-0.0008	21.1
-0.0023	-0.012	0.0247	0.0015	21.1
0.003	-0.0083	0.0292	0.0022	21.1
0.009	-0.006	0.0382	0.0007	21.1
0.0165	0.0015	0.0562	0.0015	21
0.018	0.0075	0.0352	0.003	21
0.0075	0.0082	0.006	0.0015	21
0.0022	0.0067	0.0097	0.0022	20.9
0.0022	0.0067	0.0157	0.0007	20.9
-0.0053	0.003	0.0142	0.0007	20.9
-0.0203	0.0015	0.0022	0.0007	20.8
-0.0263	0.003	-0.006	0.0007	20.8
-0.015	0.0052	-0.0158	0.003	20.8
0.0007	0.0135	-0.0278	0.0007	20.8
0.006	0.0127	-0.027	-0.0008	20.7
0.009	0.0157	-0.024	-0.0008	20.7
0.012	0.0292	-0.0158	0	20.7
0.0127	0.0315	-0.0053	-0.0008	20.7
0.012	0.0232	-0.0015	-0.0023	20.6
0.0105	0.0112	-0.003	0.003	20.6
0.0105	0	0.0007	0.0022	20.5
0.0007	-0.0165	0.0097	-0.0008	20.5
-0.0173	-0.0383	0.0165	-0.0008	20.5
-0.0165	-0.0436	0.006	-0.0015	20.5
-0.012	-0.0488	-0.0256	0	20.5
-0.0091	-0.0563	-0.0256	-0.0023	20.4
0.0007	-0.0315	-0.0113	-0.0053	20.4
0.0052	-0.003	-0.0068	-0.0053	20.4
0.0127	0.0045	0.009	-0.0023	20.3
0.012	0.0082	0.0075	0	20.3
-0.0053	0.0082	0.009	0.0007	20.3
-0.033	0.009	0.0195	0.0007	20.2
-0.0323	0.0082	-0.003	-0.0008	20.2
-0.0165	0.0105	-0.0353	-0.0008	20.2
-0.0293	0.0157	-0.0315	-0.0038	20.2
-0.0368	0.009	-0.0105	-0.0046	20.2
-0.0465	0.0045	0.0015	-0.0046	20.1
-0.0315	0.0067	0.0105	-0.0046	20.1
-0.0068	0.0105	0.039	-0.0015	20.1
0.015	0.012	0.0727	-0.0008	20.1
0.0277	0.009	0.039	-0.003	20
0.0135	0.0052	0.0052	-0.0068	20
0.0292	0	0.0067	-0.0053	20
0.0412	-0.003	0.0195	-0.0046	19.9
0.054	0.009	0.0405	-0.0046	19.9
0.0607	0.021	0.0352	-0.0046	19.9
0.054	0.0195	0.039	-0.0015	19.8
0.0532	0.0142	0.0382	-0.0015	19.8
0.0367	0.0067	0.0307	-0.0008	19.8
0.0172	0.0045	0.027	0.0015	19.8
0.0045	0.0037	0.0097	0.0015	19.8
-0.0173	-0.0015	-0.0015	0.003	19.7
-0.057	-0.0015	-0.0165	0.0045	19.7
-0.0615	-0.0023	-0.03	0.0052	19.7
-0.0203	-0.0023	-0.0383	0.0045	19.7
-0.0015	-0.0038	-0.0465	0.0045	19.6
-0.003	-0.0053	-0.048	0.0045	19.6
0.003	-0.0046	-0.048	0.0052	19.6
-0.0053	-0.0023	-0.0405	0.0045	19.5
-0.012	-0.0008	-0.0225	-0.0008	19.5
-0.0225	-0.0015	-0.0128	-0.0053	19.4
-0.0323	0.0007	-0.0165	-0.0053	19.4
-0.03	0.0105	-0.0181	-0.0046	19.4
-0.0405	0.0157	-0.0105	-0.0038	19.4
-0.0458	0.0195	0.0105	-0.0008	19.4
-0.0143	0.0202	0.0277	0	19.3
0.0255	0.0127	0.027	0.0045	19.3
0.0315	0.012	0.0255	0.0052	19.3
0.0457	0.0037	0.018	0.003	19.3
0.0502	-0.0083	-0.0075	0.003	19.3
0.0472	-0.0308	-0.0143	-0.0008	19.2
0.0622	-0.0518	-0.0046	-0.0023	19.2
0.0337	-0.0361	0.0015	-0.0008	19.2
-0.0105	-0.0053	0.009	0.0007	19.1
-0.0706	0.003	0.0015	0	19.1
-0.108	0.0007	-0.006	-0.0008	19.1
-0.042	-0.0008	-0.0091	0.0022	19
0.0052	-0.003	-0.0098	0.0045	19
-0.0046	-0.0015	-0.0091	0.0067	19
0.0045	-0.0023	-0.0105	0.009	19
-0.0008	-0.0015	-0.0068	0.012	18.9
-0.0023	-0.0008	-0.0068	0.015	18.9
-0.0008	-0.0038	-0.012	0.0165	18.9
-0.0023	-0.0046	-0.0105	0.0142	18.9
0.003	-0.0053	-0.0091	0.0142	18.8
-0.0008	-0.0053	-0.0188	0.0135	18.8
0.0007	-0.006	-0.0278	0.0105	18.8
0.003	0.0007	-0.0165	0.0067	18.7
0.0112	0.015	-0.0046	0.0045	18.7
0.0187	0.0255	0.0007	0.0015	18.7
0.0247	0.0315	0.012	0.0007	18.6
0.0352	0.0367	0.009	0.0007	18.6
0.039	0.033	0	-0.0023	18.6
0.012	0.0292	0.0097	-0.0015	18.6
-0.0353	0.0277	0.0187	-0.0053	18.5
-0.0443	0.0082	0.0255	-0.0098	18.5
-0.0113	-0.0203	0.021	-0.0105	18.5
0.0195	-0.054	0.0202	-0.0083	18.4
0.0367	-0.0675	0.0322	-0.0091	18.4
0.0232	-0.0691	0.0277	-0.0128	18.4
-0.012	-0.0548	0.0112	-0.0143	18.3
-0.0181	-0.0128	0.0045	-0.012	18.3
-0.0023	0.0045	0.0037	-0.0091	18.3
-0.0218	0.003	-0.0046	-0.0068	18.3
-0.0248	0.0105	-0.0053	-0.003	18.2
0.0082	0.0105	-0.0143	-0.003	18.2
-0.0008	0.0112	-0.0225	-0.0046	18.2
-0.0068	0.0082	-0.0278	-0.0046	18.1
0.009	0.003	-0.0353	-0.0053	18.1
0.0112	0.0037	-0.039	-0.006	18.1
0.0052	0.0037	-0.042	-0.0068	18
0.0015	0.0045	-0.024	-0.0053	18
-0.0008	0.0045	0.0052	-0.003	18
0.003	0.009	0.0255	-0.0008	18
0.003	0.0105	0.0307	0.0022	18
-0.0046	0.012	0.0225	0.0037	17.9
0.0022	0.018	0.027	0.0045	17.9
0.0105	0.0232	0.0502	0.0015	17.9
0.0097	0.0277	0.0382	-0.0015	17.8
0.0045	0.024	0.018	-0.003	17.8
0.0052	0.018	0.018	-0.0038	17.7
0.015	0.0157	0.0157	-0.0046	17.7
0.0195	0.0045	0.0082	-0.0046	17.7
0.0105	-0.0068	0.0022	-0.0038	17.7
0.0015	-0.0038	-0.0008	-0.0046	17.6
-0.0023	-0.0046	-0.0053	-0.003	17.6
-0.003	-0.0068	-0.0091	-0.0008	17.6
0.0045	-0.006	-0.0113	-0.0008	17.5
0.0067	-0.0068	-0.0091	-0.0008	17.5
0.0105	-0.0068	-0.0075	-0.0008	17.5
0.0142	-0.0053	0.0067	-0.0008	17.5
0.0105	-0.0053	0.0045	0.0007	17.5
0.0022	-0.006	-0.0113	0	17.4
-0.0105	-0.006	-0.0165	-0.0015	17.4
-0.0203	-0.0053	-0.0256	-0.0015	17.4
-0.0225	-0.0075	-0.0315	-0.0008	17.3
-0.0203	-0.0091	-0.0398	-0.0015	17.3
-0.0181	-0.0113	-0.0368	-0.0046	17.3
-0.0128	-0.0143	-0.0225	-0.0053	17.2
-0.0143	-0.0158	-0.0068	-0.003	17.2
-0.0098	-0.012	0.0052	0	17.1
0.0015	-0.0008	0.0037	0.003	17.1
0.0105	0.009	0.0157	0.0045	17.1
0.012	0.0142	0.0285	0.006	17.1
0.0165	0.015	0.024	0.0045	17
0.0225	0.012	0.0007	0.0022	17
0.0187	0.0052	-0.0233	0.0007	17
0.015	-0.0046	-0.0278	-0.003	17
0.0195	-0.0128	-0.0105	-0.0075	17
0.0202	-0.0256	0.0202	-0.0083	16.9
0.0007	-0.0353	0.0382	-0.0068	16.9
-0.0188	-0.021	0.0442	-0.006	16.9
-0.0361	-0.003	0.0345	-0.0068	16.8
-0.0533	0.003	0.039	-0.0046	16.8
-0.0623	0.009	0.039	-0.0046	16.8
-0.042	0.0135	0.0142	-0.0046	16.7
0.0195	0.0127	-0.0008	-0.0053	16.7
0.0457	0.0097	-0.0083	-0.0015	16.7
0.0465	0.009	-0.0015	-0.0008	16.6
0.048	0.0105	-0.0008	0.0007	16.6
0.024	0.0105	-0.0128	0.0015	16.6
-0.042	0.0097	-0.0218	0.0022	16.6
-0.084	0.0067	-0.0293	0.003	16.6
-0.0428	0.003	-0.021	0.0015	16.5
-0.0158	0.0037	-0.021	0	16.5
0.0007	0.0082	-0.0256	0.0007	16.5
0.0105	0.0247	-0.024	0.003	16.4
0.012	0.0427	-0.0203	0.0045	16.4
0.0097	0.0405	-0.0113	0.006	16.4
-0.006	0.0277	-0.003	0.006	16.4
-0.0173	0.0187	0.0045	0.0052	16.3
-0.006	0.0082	0.0045	0.006	16.3
0.0195	-0.0015	0.0045	0.0067	16.3
0.0187	-0.012	0.018	0.0075	16.2
0.0142	-0.039	0.0135	0.0052	16.2
-0.0008	-0.0615	0.003	0.0015	16.2
-0.0113	-0.039	-0.0068	0.0007	16.2
-0.0083	-0.0008	-0.0128	0.0022	16.2
0.003	0.0075	0.018	0.0037	16.1
0.018	-0.0023	0.027	0.006	16.1
0.039	-0.0158	0.0112	0.0052	16
0.0555	-0.033	0.0142	0.0015	16
0.0502	-0.027	0.0157	0.0007	16
0.0652	0.0142	0.0247	0.0007	16
0.0607	0.0337	0.0307	-0.0015	15.9
0.0007	0.027	0.0217	-0.0046	15.9
-0.108	0.0225	0.0082	-0.0046	15.9
-0.1365	0.0112	0.0022	-0.0015	15.8
-0.0683	0.006	-0.0008	-0.0015	15.8
-0.0443	0.0015	-0.0091	-0.0023	15.8
-0.0278	0	-0.0083	-0.0023	15.7
-0.0053	0.0015	0.0007	-0.0023	15.7
-0.003	0.0015	-0.0046	-0.0008	15.7
-0.0098	0.003	-0.006	0.0007	15.7
-0.0053	0.0022	0.0045	0	15.7
0.0007	0.0052	0.012	0.0007	15.6
0.0082	0.0127	0.0112	0.0007	15.6
0.0487	0.0195	0.0052	0.0015	15.6
0.078	0.0165	0.0082	0.0015	15.5
0.0615	0.003	0.0045	-0.0015	15.5
0.033	-0.0046	-0.0098	-0.0046	15.4
0.0195	-0.0008	-0.0181	-0.003	15.4
0.003	0.0045	-0.027	-0.0015	15.4
-0.0105	0.0015	-0.0293	-0.0008	15.4
-0.0105	-0.0053	-0.0248	-0.0023	15.4
-0.0068	-0.0098	-0.0293	-0.0128	15.3
0.003	-0.0105	-0.0308	-0.0256	15.3
0.0127	-0.0143	-0.0361	-0.027	15.3
0.0172	-0.015	-0.033	-0.0203	15.3
0.0142	-0.0098	-0.0165	-0.0128	15.3
0.021	-0.0083	-0.0046	-0.0068	15.2
0.0255	-0.0068	0.009	-0.0083	15.2
0.021	-0.0015	0.0142	-0.0098	15.2
0.018	0.0045	0.0232	-0.0068	15.2
0.0015	0.0052	0.0292	-0.0015	15.1
-0.0173	0.009	0.0247	0.003	15.1
-0.0346	0.0142	0.0202	0.0067	15.1
-0.0315	0.012	0.024	0.0082	15.1
-0.0091	0.0105	0.0097	0.009	15
-0.0083	0.0112	-0.0068	0.0105	15
-0.0046	0.0097	0.0015	0.012	14.9
-0.0008	0.0067	0.003	0.012	14.9
0.0037	0.0015	0.0052	0.0127	14.9
0.0165	0	0.0127	0.0127	14.9
-0.033	-0.0015	0.0097	0.012	14.8
-0.0608	-0.003	0.003	0.0105	14.8
-0.0143	-0.0008	0.0075	0.012	14.8
-0.0038	-0.0038	0.0075	0.0105	14.8
-0.0091	-0.0075	-0.0105	0.0097	14.8
-0.0098	-0.0091	-0.0165	0.0075	14.7
-0.0188	-0.012	-0.0075	0.0045	14.7
-0.012	-0.0105	0.0007	0.0045	14.7
-0.0053	-0.0083	0.0052	0.0037	14.6
0.0097	-0.0083	0.0112	0.0045	14.6
0.0195	-0.0068	0.0217	0.0037	14.6
0.0322	0.003	0.012	0.0015	14.5
0.0405	0.0202	-0.003	0.0015	14.5
0.0217	0.0315	-0.0173	-0.0008	14.5
0.018	0.024	-0.027	-0.0015	14.4
0.0225	0.018	-0.0173	0.0015	14.4
0.0127	0.0165	-0.0015	-0.0008	14.4
-0.006	0.0082	0.0022	-0.0015	14.4
-0.003	0.0045	-0.0083	0.0007	14.4
0.006	-0.012	0.0082	0.0007	14.3
-0.0158	-0.0443	0.024	-0.0008	14.3
-0.0585	-0.0623	0.0045	0	14.3
-0.0473	-0.0315	-0.0075	0.0015	14.2
0.018	-0.0008	-0.0128	0.003	14.2
0.0007	-0.0091	-0.0158	0.0015	14.2
-0.0046	-0.0068	-0.0105	-0.0008	14.1
0.0375	-0.003	-0.0083	-0.0015	14.1
0.006	0.0045	-0.0135	-0.003	14.1
-0.0368	0.018	-0.0195	-0.003	14
-0.0368	0.0195	-0.0256	-0.0008	14
-0.006	0.024	-0.0233	0.0007	14
0	0.0262	-0.012	0.0007	13.9
0.0007	0.012	-0.0195	0.0015	13.9
-0.0068	0.009	-0.0338	0.0037	13.9
-0.0225	0.0195	-0.03	0.003	13.9
-0.0053	-0.0023	-0.012	-0.003	13.9
-0.003	-0.0263	0.0285	-0.006	13.8
0.0067	-0.0165	0.042	-0.0046	13.8
0.0285	-0.0008	0.0217	-0.0008	13.8
0.0442	0.0052	0.0427	0.0045	13.8
0.057	-0.0083	0.051	0.0015	13.7
0.0622	-0.039	0.0172	-0.003	13.7
0.0592	-0.0533	0.0255	-0.0083	13.7
0.0697	-0.0181	0.0457	-0.0068	13.7
0.0975	0.0202	0.06	-0.003	13.6
0.0757	0.0157	0.0637	-0.0053	13.6
-0.0046	0.0045	0.0442	-0.0053	13.6
-0.1163	-0.0091	0.0255	-0.006	13.6
-0.186	-0.0181	-0.0015	-0.0046	13.6
-0.1268	-0.0008	-0.0158	-0.0008	13.5
-0.0346	0.0172	-0.024	0.0015	13.5
-0.012	0.0202	-0.0278	0.003	13.5
-0.0008	0.0157	-0.0278	0.0015	13.5
-0.0046	0.0127	-0.039	0.0015	13.5
-0.0248	0.009	-0.048	0	13.5
-0.03	0.0052	-0.054	0	13.4
-0.0293	0.0015	-0.0495	0.0007	13.4
-0.0188	0	-0.0225	0.0022	13.4
-0.0046	0.0052	0.003	0.0045	13.4
0.0157	0.012	0.0255	0.003	13.3
0.0157	0.009	0.0352	0.0007	13.3
0.006	0.0022	0.0127	0.0022	13.3
0.0022	-0.0008	-0.0091	0.0045	13.3
-0.0015	-0.003	-0.033	0.003	13.2
0.009	-0.0008	-0.0285	0.0007	13.2
0.009	0.0015	-0.0053	-0.003	13.2
-0.0038	0.0015	0.021	-0.0046	13.1
0.0127	0.0082	0.0337	-0.0023	13.1
0.0465	0.018	0.048	-0.0008	13.1
0.042	0.0292	0.0592	-0.0015	13.1
-0.0105	0.0352	0.021	-0.0015	13
-0.0368	0.0382	-0.0046	0.0045	13
-0.003	0.0345	-0.024	0.0067	13
0.0127	0.0157	-0.0315	0.003	13
0.0442	-0.0023	-0.0181	0	13
0.0982	-0.0015	0.0015	-0.0008	13
0.072	-0.0008	0.015	0	12.9
0.012	-0.0046	0.0045	-0.0008	12.9
-0.0046	-0.0128	-0.0128	-0.003	12.9
0	-0.0158	-0.0285	-0.003	12.8
-0.006	-0.0143	-0.0278	-0.003	12.8
0.0105	-0.0135	-0.0218	-0.0015	12.8
0.003	-0.006	-0.0128	-0.0023	12.8
-0.015	0.0015	-0.0075	-0.0038	12.8
-0.012	0.0195	-0.0091	-0.0008	12.7
-0.0188	0.0412	-0.0068	0	12.7
0.0052	0.036	0.0007	-0.003	12.7
0.009	0.018	0.0127	-0.0015	12.7
0.0097	0.0097	0.012	-0.0008	12.6
0.0232	-0.0075	0.0097	0.003	12.6
0.0195	-0.0293	0.012	0.0037	12.6
0.0217	-0.063	0.0015	0.0045	12.6
0.0322	-0.0803	-0.012	0.003	12.6
0.045	-0.06	-0.0308	0.0007	12.6
0.0427	-0.0218	-0.033	0.0007	12.5
0.0285	0.0165	-0.012	-0.0015	12.5
-0.0068	0.0292	-0.003	-0.0038	12.4
-0.096	0.0337	0.0037	-0.003	12.4
-0.1913	0.0255	0.0142	-0.003	12.4
-0.1478	0.0135	0.0135	-0.0023	12.4
0.0052	0.0067	0.0105	-0.0015	12.4
0.0337	-0.0173	0.018	-0.0023	12.3
0.024	-0.0443	0.0225	-0.0053	12.3
0.0375	-0.075	0.0082	-0.0053	12.3
0.0195	-0.0758	0.0037	-0.0053	12.3
0.0232	-0.039	0.009	-0.0053	12.2
-0.0278	0	0.0195	-0.0023	12.2
-0.066	0.0127	0.024	-0.0046	12.2
-0.0623	0.0105	0.0142	-0.0053	12.2
-0.0615	0.015	0.009	-0.0046	12.1
-0.0533	0.0142	0.003	-0.0015	12.1
-0.0203	0.0142	0.0022	0.0015	12.1
0.0112	0.0142	-0.0053	0.003	12.1
0.0045	0.0157	-0.0113	0.0052	12.1
-0.0015	0.0142	-0.003	0.0082	12.1
-0.0091	0.012	0.003	0.0075	12
0.0037	0.0157	-0.0091	0.006	12
0.0217	0.0157	-0.0293	0.006	12
0.027	0.018	-0.0233	0.0052	12
0.0345	0.0217	-0.0128	0.0037	11.9
0.0352	0.0375	0.0045	0.0007	11.9
0.0487	0.0495	0.012	-0.003	11.9
0.0742	0.042	0.018	-0.003	11.8
0.1027	0.0352	0.033	0.0022	11.8
0.1155	0.0247	0.0367	0.0037	11.8
0.0967	0.0067	0.0375	0.0007	11.7
-0.0368	-0.0128	0.0082	-0.0008	11.7
-0.1396	-0.0353	-0.0105	-0.0023	11.7
-0.0615	-0.0525	-0.015	-0.0008	11.7
-0.0218	-0.0405	-0.0225	0.0015	11.7
-0.0165	-0.0113	-0.024	0.003	11.6
0	-0.0083	-0.0353	0.0037	11.6
-0.012	-0.0083	-0.033	0.0015	11.6
-0.0083	-0.0015	-0.0278	0.0045	11.5
-0.0128	-0.0053	-0.0165	0.0052	11.5
-0.0046	-0.0008	-0.0053	0.0037	11.5
-0.0046	0.0015	-0.0015	0.0037	11.4
-0.003	0.0052	0.009	0.003	11.4
0.0022	0.0045	0.0187	0.0015	11.4
0.0127	0.0052	0.018	0.003	11.4
0.027	0.0142	0.024	0.0022	11.3
0.018	0.0105	0.03	0	11.3
0.021	0.0075	0.0142	-0.0015	11.3
0.0187	0.009	-0.0023	-0.0015	11.3
0.0045	0.009	-0.0008	-0.0015	11.3
0.012	0.0082	-0.006	-0.0053	11.2
0.0097	0.003	-0.0091	-0.0038	11.2
-0.0308	-0.0015	0.0015	-0.0015	11.2
-0.0623	0	-0.0015	-0.0015	11.2
-0.0346	-0.0008	-0.0008	0.0007	11.2
0.0082	-0.0053	-0.0023	-0.0023	11.2
0.009	-0.0068	-0.006	-0.0046	11.2
0.012	-0.0068	-0.0195	-0.0083	11.2
0.012	-0.012	-0.0293	-0.0091	11.1
0	-0.0165	-0.021	-0.0083	11.1
-0.0128	-0.015	-0.0165	-0.0053	11.1
-0.0203	-0.012	-0.0015	0.0015	11
-0.012	-0.0083	0.009	0.0052	11
-0.0008	0	0.0045	0.0067	11
0.0142	0.0105	0.0097	0.0082	11
0.009	0.0165	0.0127	0.006	11
0.003	0.0142	0.0142	0.0045	10.9
0.003	0.0142	0.0165	0.003	10.9
0.0075	0.0127	0.0067	0.0022	10.9
0.0412	0.0067	0.0052	0.0015	10.9
0.0727	-0.0015	0.0097	0	10.8
0.0562	-0.0195	0.0067	0.0015	10.8
0.0165	-0.027	-0.0015	0.006	10.8
-0.0091	-0.0091	0.0022	0.006	10.8
-0.0338	0	0	0.0037	10.7
-0.0473	0.0135	-0.003	0.006	10.7
-0.0346	0.0322	0.024	0.006	10.7
-0.0053	0.0232	0.0352	0.0052	10.7
-0.012	0.0165	0.021	0.0075	10.7
-0.0225	0.0232	0	0.0075	10.7
-0.0203	0.0262	-0.0083	0.0045	10.6
-0.0091	0.0127	-0.0075	-0.0015	10.6
0.024	-0.0105	-0.0135	-0.0075	10.6
0.0232	-0.039	-0.0158	-0.0098	10.6
0.0187	-0.0443	-0.0128	-0.0068	10.6
0.003	-0.0195	-0.0038	-0.003	10.5
-0.0293	-0.0278	-0.0053	-0.003	10.5
-0.0443	-0.0353	-0.0068	-0.006	10.5
-0.0346	-0.0368	-0.0053	-0.0091	10.5
0.036	-0.0413	-0.0023	-0.0083	10.5
0.0817	-0.0143	0.0037	-0.0015	10.4
0.051	0.0015	0.0067	0.0007	10.4
-0.0181	0.0015	0.0105	-0.0015	10.4
-0.0878	0.003	0.009	-0.0015	10.4
-0.0428	0.006	0.0015	-0.0015	10.4
0.0075	0.0105	-0.0046	0.0007	10.3
0.0067	0.0232	-0.0068	0.0015	10.3
0.0247	0.042	-0.012	0	10.3
-0.0068	0.0495	-0.021	0.003	10.3
-0.0315	0.0487	-0.0233	0.0015	10.3
-0.012	0.0367	-0.0091	-0.0015	10.3
0.009	0.0225	0.0052	-0.0023	10.2
-0.0023	0.0052	0.0082	-0.0046	10.2
0.0045	-0.0128	0.0082	-0.0023	10.2
0.0352	-0.0046	0.0045	-0.0015	10.2
0.0157	0.036	0.006	-0.003	10.2
0.0015	0.0712	0.0067	-0.0015	10.2
0.0412	0.0652	0.0075	0.0015	10.2
0.072	0.045	0.021	0.003	10.2
0.033	0.0157	0.027	0.003	10.1
-0.033	-0.0225	0.0157	0.003	10.1
-0.0458	-0.0691	0.006	0.0015	10.1
-0.0315	-0.1313	0	-0.0015	10.1
-0.0181	-0.1403	-0.0008	-0.003	10.1
-0.0113	-0.063	-0.003	-0.0015	10
-0.045	0	-0.0075	-0.0008	10
-0.0361	-0.0068	-0.0015	-0.0023	10
-0.0008	0.0007	-0.003	-0.0015	10
-0.003	0.0082	-0.0135	-0.0015	10
0.0022	0.0075	-0.0195	-0.0008	10
0.0052	0.0127	-0.0181	0.0007	9.9
0.0067	0.0067	-0.0165	-0.0008	9.9
0.0097	0.0112	-0.0158	-0.0023	9.9
0.0007	0.0082	-0.0195	-0.0008	9.9
-0.0083	0.0105	-0.0203	0.0007	9.9
-0.0098	0.0082	-0.0218	-0.0008	9.9
-0.006	0.0052	-0.0278	0	9.9
0.003	0.0037	-0.027	0.0022	9.8
0.0082	0.003	-0.0173	0	9.8
0.0142	0.009	-0.0068	0.0007	9.8
0.0225	-0.0046	0.0022	0	9.8
0.0292	-0.0181	0.0127	-0.0008	9.7
0.0345	-0.0075	0.024	0.0015	9.7
0.0277	0.0157	0.0382	0.0045	9.7
0.0202	0.0105	0.0375	0.0015	9.7
0.0135	-0.0008	0.0315	0.0007	9.7
-0.0083	0.0105	0.0427	0.003	9.6
-0.0128	0.0165	0.0352	0	9.6
0.009	0.0217	0.018	-0.0015	9.6
0.0157	0.024	0.0157	-0.0015	9.6
0.0255	0.009	0.009	-0.0023	9.5
-0.0143	0.003	0.006	-0.0023	9.5
-0.1021	0.0105	0	-0.003	9.5
-0.0945	0.0022	-0.0083	-0.0008	9.5
-0.0368	-0.0083	-0.0075	0.0015	9.4
-0.0046	-0.0015	-0.0053	0.003	9.4
0.0255	0.006	-0.0143	0.006	9.4
0.0495	0.0067	-0.0278	0.006	9.4
0.0517	-0.0105	-0.0128	-0.0008	9.4
0.0555	-0.0383	-0.0008	-0.0083	9.4
0.0307	-0.0308	0.0195	-0.0091	9.3
-0.0698	0.009	0.0255	-0.0053	9.3
-0.0721	0.0127	0.018	-0.0053	9.3
0.0442	0.0045	0.0157	-0.0083	9.3
0.0375	0.0015	0.0052	-0.0098	9.2
0.018	-0.006	-0.0023	-0.0075	9.2
0.003	0	-0.0053	-0.0046	9.2
-0.0068	-0.0023	0.0015	-0.003	9.2
0.0367	0.0015	0	0.0007	9.2
0.012	0.003	-0.0015	0.0007	9.1
0.021	0.0022	-0.0068	-0.0015	9.1
0.0112	0.006	-0.0083	0.0007	9
0.003	0.0045	-0.0083	0.0015	9
0.0015	0.0082	-0.015	0.003	9
-0.0181	0.0052	-0.0158	0.003	9
-0.0218	0.0052	-0.0181	-0.0015	9
-0.0668	0.0052	-0.0195	-0.0083	9
-0.0825	0.003	-0.0225	-0.0128	9
-0.0315	0.0007	-0.0195	-0.0068	9
0.0045	-0.0046	-0.0158	-0.0053	8.9
-0.0113	-0.0015	-0.0256	-0.0038	8.9
0.0007	0.0052	-0.0233	0.003	8.9
-0.0091	0.0105	0.006	0.0037	8.9
-0.0105	0.0075	0.0225	0.0045	8.9
-0.0038	0.0015	0.03	-0.0008	8.8
-0.0075	-0.0046	0.027	-0.0008	8.8
0.0105	-0.0046	-0.0015	-0.0008	8.8
0.0165	-0.0105	-0.0075	-0.003	8.8
0.0442	-0.0233	-0.0075	0	8.7
0.0525	-0.0181	0.006	0	8.7
0.0615	0.0015	0.0285	0.0045	8.7
0.0495	0.0045	0.0292	0.006	8.6
0.0142	-0.0053	0.0232	0.003	8.6
-0.0038	-0.0053	0.0082	0.0015	8.6
-0.0046	-0.0008	-0.0046	0.0037	8.6
-0.0008	0.0157	-0.0203	0.0105	8.6
-0.0278	0.0367	-0.0278	0.0202	8.6
-0.0023	0.0442	-0.0278	0.0315	8.6
0.0112	0.0495	-0.0285	0.0382	8.6
-0.0053	0.0435	-0.0256	0.0405	8.6
0.0112	0.0075	-0.0165	0.0352	8.5
-0.0173	-0.0233	-0.006	0.0285	8.5
-0.0728	-0.063	-0.0083	0.0277	8.5
-0.0728	-0.1013	-0.0091	0.0232	8.5
-0.0308	-0.0871	-0.0015	0.0187	8.5
-0.027	-0.0428	0.0097	0.012	8.5
-0.012	-0.012	0.018	0.0052	8.5
-0.003	0.003	0.0112	0.0022	8.5
-0.0113	0.018	-0.0068	0.0015	8.5
0.003	0.0195	-0.0098	0.0037	8.5
0.0232	0.0307	-0.0195	0	8.4
0.0187	0.066	-0.0188	-0.003	8.4
-0.0165	0.0832	0.0165	-0.0068	8.4
-0.021	0.0592	0.0405	-0.012	8.4
0	0.0352	0.0637	-0.012	8.4
0.0465	0.024	0.084	-0.0105	8.3
0.072	-0.0008	0.078	-0.0105	8.3
0.0585	-0.0383	0.0465	-0.0135	8.3
-0.0046	-0.0615	0.0202	-0.0158	8.3
-0.0256	-0.042	-0.0038	-0.012	8.3
0.009	-0.0105	-0.0165	-0.012	8.2
0.0052	-0.0165	-0.0195	-0.012	8.2
0.0315	-0.0368	-0.024	-0.0105	8.2
0.0532	-0.0405	-0.027	-0.0098	8.2
0.0592	-0.0383	-0.015	-0.0105	8.2
0.0315	-0.0165	-0.0046	-0.0113	8.1
-0.0098	0.0045	-0.0165	-0.0113	8.1
-0.0293	0.0262	-0.0143	-0.0128	8.1
-0.0293	0.042	-0.0083	-0.0143	8.1
-0.0083	0.033	-0.0158	-0.012	8.1
-0.0075	0.0225	-0.0203	-0.0046	8.1
0.0142	0.0045	-0.015	-0.0046	8
0.0187	-0.0083	-0.006	-0.0015	8
0.0195	-0.0158	-0.003	0.0015	8
0.0105	-0.0315	-0.0023	-0.0015	8
-0.027	-0.027	-0.003	-0.003	8
-0.048	0	-0.0098	-0.0038	8
-0.0825	0.018	-0.0158	-0.0053	8
-0.057	0.012	-0.0068	-0.0083	7.9
0.0277	0.015	0.0015	-0.012	7.9
0.0405	0.015	0.006	-0.0113	7.9
0.0097	0.0112	0.0045	-0.0105	7.9
0.0157	0.012	0.0045	-0.0098	7.9
0.0007	0.006	0.0052	-0.0083	7.8
-0.015	0.0075	0.0067	-0.0053	7.8
-0.0083	0.009	0.0067	-0.0038	7.8
-0.0218	0.0082	0.003	-0.0038	7.8
-0.0135	0.003	0.0097	-0.006	7.8
-0.0023	0.0015	0.0142	-0.0038	7.7
0.003	0.0052	0.0067	0.0015	7.7
0.0067	0.0052	0.003	0.0015	7.7
0.0052	0.003	0.0045	0.0007	7.6
0.0075	0.003	0.006	-0.0008	7.6
-0.0015	0.0022	0.0052	-0.0008	7.6
-0.0105	0	-0.0053	0.0007	7.6
-0.0091	-0.0015	-0.0113	0.0015	7.6
0.0127	-0.006	-0.0098	0	7.6
0.0315	-0.0083	-0.0046	-0.0008	7.6
0.015	-0.0083	-0.0008	0.0015	7.6
0.0045	-0.0053	-0.0046	0.0052	7.6
0.003	0.0015	-0.0008	0.0037	7.5
0.0142	0.0045	0.0022	0.0015	7.5
0.0345	0.0045	-0.0008	0.0007	7.5
0.0262	0.0082	-0.0128	0.0022	7.5
0.0202	0.0112	-0.0248	0.003	7.5
-0.0046	0.0052	-0.0195	0	7.4
-0.0683	0.0082	-0.0128	-0.0008	7.4
-0.0803	0.0195	-0.0203	-0.0015	7.4
-0.0225	0.0142	-0.024	-0.0015	7.4
0.0082	0.0082	-0.006	-0.0038	7.4
0.0052	0.0082	0.0127	-0.003	7.3
-0.0075	0.0015	0.0195	-0.0015	7.3
-0.0263	-0.003	0.0232	-0.0038	7.3
-0.0361	-0.0203	0.0195	-0.0023	7.3
-0.039	-0.0405	0.021	-0.003	7.3
-0.0256	-0.0256	0.0255	-0.0015	7.3
-0.0105	-0.0008	0.0255	0.0015	7.2
0.0045	-0.003	0.0217	-0.0015	7.2
0.0097	-0.0008	0.015	-0.0015	7.2
0.0427	0.0165	0.0165	0.0007	7.2
0.0862	0.027	0.0315	0.0007	7.2
0.0622	0.0262	0.03	0.0007	7.2
0.0112	0.0165	0.0022	0.0015	7.2
0.0105	0.006	0.0007	0.0045	7.2
0.024	-0.0046	-0.0105	0.003	7.2
-0.0135	-0.0181	-0.0158	0.0022	7.2
-0.021	-0.0503	-0.0113	-0.0023	7.1
-0.0218	-0.0525	-0.0165	-0.006	7.1
-0.0083	-0.0083	-0.0181	-0.003	7.1
-0.0113	0.0067	-0.0353	-0.0015	7.1
-0.0428	0.0015	-0.033	0	7.1
-0.0436	0.0052	-0.0285	0.0007	7
-0.03	0.0082	-0.0165	0.0015	7
-0.003	0.0127	0.0052	0.0015	7
-0.0015	0.0075	0.012	0	7
0.0052	0.0045	0.012	0.0022	7
0.0135	0.0067	0.0135	0.0067	7
0.0277	0.003	0.009	0.006	7
0.051	-0.0105	0.0127	0.0037	7
0.0502	-0.0346	0.0195	0.0045	6.9
0.0457	-0.0195	0.0097	0.0067	6.9
0.0255	0.027	-0.012	0.0082	6.9
0.012	0.0352	-0.0353	0.009	6.9
0.0097	0.0307	-0.0346	0.0045	6.9
0.018	0.024	-0.0225	0.0015	6.8
0.0315	0.003	0	0.0015	6.8
0.03	-0.0188	0.0157	-0.0008	6.8
0.003	-0.0413	0.0157	0	6.8
-0.0878	-0.0278	0.0157	0.0007	6.8
-0.0893	0.012	0.0022	0.0007	6.8
0.012	0.0465	-0.0083	0.0015	6.7
-0.0278	0.0645	-0.0091	0.0015	6.7
-0.0353	0.0577	-0.0046	0.0007	6.7
-0.0256	0.0202	-0.0023	0.0015	6.7
-0.0225	-0.0105	-0.0105	0.0052	6.7
0.0255	-0.0346	-0.0113	0.0067	6.7
0.0277	-0.0518	-0.0083	0.003	6.7
0.06	-0.0675	0.0007	-0.0015	6.7
0.03	-0.078	0.0112	-0.0015	6.7
-0.0083	-0.0233	0.0112	-0.0008	6.7
-0.0653	0.0045	0.0165	-0.0015	6.7
-0.0848	-0.0105	0.027	-0.0015	6.6
0.0052	-0.0046	0.0375	-0.003	6.6
0.0622	-0.0046	0.0345	-0.003	6.6
0.0525	0.0007	0.0142	-0.0015	6.6
0.0202	0.0082	-0.0008	-0.0015	6.6
-0.003	0.0075	-0.0098	-0.0015	6.6
-0.0225	0.0127	-0.0181	-0.0008	6.6
0.0015	0.012	-0.0233	-0.0015	6.6
0.0127	0.0127	-0.0203	-0.0015	6.5
0.024	0.0217	-0.0075	0	6.5
0.0105	0.027	0.0277	0.003	6.5
-0.0046	0.0255	0.0307	0.003	6.5
0.0397	0.0232	0.0037	0	6.5
0.0247	0.0202	-0.012	-0.003	6.5
0.0067	0.0135	-0.0256	-0.0015	6.5
0.0277	0.0022	-0.0195	-0.003	6.4
0.0472	-0.0083	0.0067	-0.0046	6.4
0.0345	-0.0068	0.0352	-0.003	6.4
-0.0135	-0.0046	0.027	-0.0023	6.4
-0.1193	-0.003	0.0007	-0.0015	6.4
-0.1403	-0.0038	-0.0173	-0.0023	6.4
-0.0383	-0.003	-0.0338	-0.003	6.4
-0.0285	-0.0023	-0.0383	-0.0008	6.3
-0.0038	-0.0046	-0.039	0.0007	6.3
0.0022	-0.0008	-0.0263	-0.0008	6.3
-0.012	0.0135	-0.0165	-0.0008	6.3
0.0052	0.036	-0.0105	0.0022	6.3
-0.0091	0.039	-0.0105	0.0037	6.3
0.0067	0.027	-0.0143	0.0045	6.3
-0.0015	0.0202	-0.0098	0.0052	6.3
0.003	0.003	-0.0091	0.0045	6.2
0.009	-0.024	0	0.0052	6.2
0.0097	-0.054	0.0112	0.0007	6.2
0.0157	-0.0675	0.0217	-0.0038	6.2
0.0105	-0.042	0.0202	-0.0053	6.2
0.0142	-0.0143	0.0045	-0.0075	6.2
0.0067	-0.0173	-0.0023	-0.0083	6.2
-0.003	-0.0165	-0.0015	-0.0068	6.2
-0.0158	0.0127	-0.0046	-0.006	6.2
-0.0023	0.0345	0.003	-0.0053	6.1
0.024	0.0307	0.0127	-0.0053	6.1
0.0405	0.0217	0.0202	-0.0038	6.1
0.0405	0.006	0.0285	-0.0015	6.1
0.0277	-0.0098	0.0307	-0.0015	6.1
-0.0015	-0.0315	0.0345	-0.0015	6.1
-0.0195	-0.0548	0.024	-0.0015	6
0.0082	-0.0293	0.024	0.0022	6
0.009	0.0112	0.0232	0.0052	6
0	0.012	0.003	0.003	6
-0.0046	0.0037	-0.003	0.003	6
-0.0068	0	0.0067	0.0007	5.9
0.0007	-0.0053	0.0247	0	5.9
-0.0038	-0.0105	0.024	0.003	5.9
-0.0015	-0.0188	-0.0158	0.0037	5.9
0.0045	0.0082	-0.0645	0.0015	5.9
0.0165	0.0555	-0.0653	-0.0015	5.9
0.0075	0.0562	-0.027	0.0007	5.9
-0.0165	0.0382	0.0022	0.0037	5.9
-0.0038	0.0202	0.0277	0.0015	5.9
0.0045	-0.012	0.027	0.0007	5.9
-0.0083	-0.0248	0.0225	0.0015	5.8
0.0045	-0.048	0.0142	0	5.8
0.0157	-0.0593	-0.0053	-0.0015	5.8
0.0315	-0.0218	-0.0053	-0.0015	5.8
0.0615	0.0067	-0.0008	-0.0008	5.8
0.0555	0.012	0.021	0.003	5.8
-0.0075	0.0135	0.0345	0.0045	5.8
-0.099	0.009	0.018	0.0015	5.8
-0.1006	0.009	-0.0015	-0.0008	5.8
-0.0113	0.0142	-0.0165	0	5.8
-0.0181	0.021	-0.0181	0.003	5.7
-0.0533	0.0157	0.0075	0.0037	5.7
-0.0278	0.0082	0.0277	0.0022	5.7
0.009	0.009	0.0127	0.0015	5.7
0.0427	0.0067	-0.0008	0.0015	5.7
0.0277	0.0112	-0.021	0.0007	5.7
0.018	0.0172	-0.0511	-0.0015	5.7
0.0045	0.0127	-0.081	-0.0008	5.7
-0.0143	-0.0008	-0.0893	0.0015	5.7
0.012	-0.0008	-0.0585	0.0015	5.7
0.0315	0.003	-0.0315	0.0007	5.7
0.033	-0.0046	-0.0083	0.0007	5.7
0.0255	-0.0046	0.0067	-0.0008	5.7
0.0052	-0.0046	0.0052	-0.0008	5.7
0.0015	0.0105	-0.0225	0.0015	5.7
0.045	0.027	-0.0361	0.0045	5.7
0.0585	0.0157	-0.0015	0.003	5.7
0.0067	0.0037	0.018	0.0015	5.6
0.0022	-0.0008	0.0555	0.003	5.6
-0.0181	-0.0218	0.0705	0.0015	5.6
-0.1455	-0.0413	0.06	0.0007	5.6
-0.186	-0.0346	0.0577	-0.0008	5.6
-0.0495	0.0277	0.039	0.0015	5.6
0.015	0.0907	0.039	0.0052	5.6
0.0202	0.0667	0.0225	0.0037	5.6
0.0517	0.0457	0.0142	0.0037	5.6
0.027	0.0142	0.0105	0.0015	5.6
0.042	-0.0368	0.0037	-0.0068	5.6
0.045	-0.0758	0.0105	-0.0091	5.5
0.048	-0.1125	0.0112	-0.0068	5.5
0.045	-0.0721	0.0082	-0.006	5.5
-0.012	-0.0195	-0.003	-0.003	5.5
-0.045	-0.012	-0.0053	-0.0015	5.5
-0.033	0.0067	-0.0068	-0.0008	5.5
-0.0518	0.0337	-0.0203	0.0015	5.5
-0.066	0.0345	-0.0353	0.0007	5.5
0.0045	0.0217	-0.0308	0.0007	5.5
0.0142	0.0045	-0.0353	0.0015	5.5
0.0157	-0.0113	-0.0518	0.0007	5.4
0.0217	-0.027	-0.048	0.0015	5.4
0.0217	-0.0488	-0.0278	0.0015	5.4
0.0367	-0.0323	0	0.0007	5.4
0.003	0.024	0.0165	0.0037	5.4
-0.0503	0.063	0.0187	0.0045	5.4
-0.0555	0.0675	0.009	0.0037	5.4
0.006	0.0465	0.0007	0.0015	5.4
0.003	0.021	0.0052	0.0015	5.4
0.0045	-0.0046	-0.0023	0.0045	5.4
0.0292	-0.039	-0.0135	0.0007	5.4
0.0157	-0.0728	-0.0053	-0.0046	5.4
0.018	-0.0728	0.0022	-0.0068	5.4
-0.0015	-0.0165	0.0157	-0.0053	5.4
-0.006	0.0127	0.0225	-0.0068	5.4
0.0067	0.0022	0.027	-0.0068	5.4
0.012	0.0082	0.0255	-0.003	5.4
0.018	0.006	0.012	-0.003	5.3
0.0165	0.0082	0.0307	-0.0023	5.3
0.0337	0.0142	0.0442	-0.0008	5.3
0.0367	0.018	0.033	-0.0023	5.3
0.0082	0.0225	0.0315	-0.0023	5.3
0.015	0.024	0.0315	-0.0008	5.3
0.0045	0.0307	0.0352	0.0015	5.3
-0.024	0.0195	0.0457	-0.0008	5.3
0.0135	0.006	0.003	-0.0053	5.3
0.0172	0.0082	-0.0256	-0.0038	5.3
0.0127	0.0105	-0.0135	-0.003	5.3
0.0097	-0.0015	-0.0181	-0.003	5.3
-0.0436	-0.0181	-0.0405	-0.003	5.3
-0.0691	-0.0143	-0.0615	-0.0023	5.3
-0.0308	-0.0075	-0.0653	-0.0008	5.2
0.0157	-0.0195	-0.0668	-0.0008	5.2
-0.0015	-0.0353	-0.0563	-0.0008	5.2
0.0075	-0.0293	-0.0458	-0.0015	5.2
0.0142	-0.0075	-0.0458	-0.003	5.2
0.012	0.0007	-0.0473	-0.0015	5.2
0.027	0.0022	-0.0278	0.0007	5.1
0.0127	0.0097	-0.0053	0.003	5.1
-0.003	0.0067	0.0082	0.0015	5.1
-0.0173	-0.0053	0.0127	0.0007	5.1
-0.015	-0.0091	0.0067	0.0007	5.1
-0.0218	0.0007	0.0195	0.0007	5
-0.0203	0.0067	0.0187	0.0007	5
-0.015	0.009	0.0142	-0.0015	5
-0.0068	0.0097	0.0112	-0.0023	5
0.0165	0.0097	0.0052	-0.0015	5
0.0165	0.012	0.009	-0.0008	5
-0.012	0.0067	0.0082	-0.0008	5
-0.0233	0.003	0.0015	-0.0046	5
-0.003	0.0015	-0.0068	-0.003	5
0.0022	-0.0015	-0.0278	-0.0023	5
0.0105	-0.0015	-0.0225	-0.0008	5
0.0105	0.0007	0.009	0.0007	5
-0.0188	0.0015	0.0262	-0.0008	5
-0.0443	0	0.0532	-0.0023	5
-0.048	-0.0008	0.0652	-0.0046	5
0.009	-0.0008	0.0697	-0.0046	5
0.06	0.003	0.0742	-0.003	5
0.0615	0.012	0.0607	-0.0008	4.9
0.0285	0.0135	0.0382	-0.0008	4.9
-0.0038	0.0015	0.0202	0.0007	4.9
-0.0075	0.0067	0.003	0.0015	4.9
0.003	0.024	-0.0158	0.0015	4.9
0.0277	0.0277	-0.0323	0.0022	4.9
0.042	0.0172	-0.0436	0.0015	4.9
0.039	0.0015	-0.0278	0.0045	4.9
0.0097	-0.0181	-0.0113	0.0067	4.9
0.0015	-0.0195	0.0052	0.0105	4.9
-0.006	0.0105	0.0112	0.009	4.9
-0.0091	0.0225	-0.015	0.0015	4.9
0.0097	0.0015	-0.0323	-0.003	4.9
0.0082	-0.0023	-0.0383	-0.0046	4.9
-0.0046	-0.0091	-0.0203	-0.0008	4.9
-0.0353	-0.0405	0.0007	0.0015	4.9
-0.024	-0.0698	0.0052	0.0015	4.8
-0.0053	-0.0548	0.0052	0.003	4.8
-0.0233	0.0097	0.0052	0.003	4.8
-0.0008	0.054	0.0075	0.003	4.8
0.012	0.0465	0	0.0015	4.8
0.0337	0.03	0	0.003	4.8
0.0352	0.0045	-0.0046	0.0045	4.8
-0.0091	-0.027	-0.0046	0.0045	4.7
-0.054	-0.0413	-0.006	0.003	4.7
-0.1673	-0.0203	-0.0113	-0.0015	4.7
-0.1133	0.0412	-0.0128	-0.0015	4.7
0.0232	0.0547	-0.0135	0.0007	4.7
-0.0068	0.0307	-0.0098	0.0015	4.7
0.0097	0.012	-0.012	0.003	4.7
0.0127	-0.0293	-0.0083	0.0015	4.7
0.0007	-0.0675	-0.003	-0.0015	4.7
0.012	-0.081	0.0015	-0.0053	4.7
0.003	-0.0315	0.0037	-0.0046	4.7
0.0127	0.0052	0.0022	-0.0023	4.7
-0.006	-0.003	0.0045	-0.003	4.7
0.0075	0.0067	0.0105	-0.0008	4.7
0.0165	0.0022	0.0195	0.0015	4.7
0.0165	-0.0143	0.0202	0.0007	4.7
0.018	-0.0233	-0.003	0.0015	4.7
0.0255	-0.0105	-0.0413	0.003	4.7
0.0427	0.0045	-0.0428	0.0022	4.7
0.0345	0.0142	-0.0233	0.0015	4.7
0.0225	0.0352	0.0052	0.0022	4.6
0.0195	0.0382	0.0255	0	4.6
0.054	0.0427	0.0225	-0.0008	4.6
0.0712	0.0277	0.0322	-0.0008	4.6
0.0442	0.0195	0.036	-0.0023	4.6
0.012	0.0307	0.0277	0.0007	4.6
-0.0218	0.0172	0.0015	0.0015	4.6
-0.048	0.0007	-0.042	0.003	4.6
-0.0555	-0.0091	-0.048	0.0015	4.6
-0.0293	-0.0091	-0.0278	-0.0008	4.6
-0.0068	-0.0023	-0.0181	0.0007	4.6
-0.0075	0.0015	0.0067	0	4.6
-0.0075	-0.0008	0.0165	-0.003	4.6
0.021	-0.0015	0.0225	-0.0068	4.5
0.063	0.006	0.0435	-0.0068	4.5
0.0555	0.0015	0.0495	-0.0038	4.5
0.033	-0.0046	0.033	-0.0015	4.5
0.0127	-0.0075	0.009	0	4.5
-0.0405	-0.0038	0.0097	-0.0008	4.5
-0.1065	0.0037	0.0142	0.0007	4.5
-0.1388	0.0157	0.0067	0.0037	4.5
-0.0721	0.0165	-0.0105	0.0015	4.5
-0.0181	0.0015	-0.012	-0.0008	4.5
-0.045	-0.0046	-0.0203	-0.0008	4.5
-0.0353	-0.0068	-0.048	0.003	4.5
-0.0368	-0.0128	-0.0548	0.0045	4.5
-0.03	-0.0323	-0.0398	0.0007	4.5
-0.0181	-0.042	-0.0181	-0.0008	4.5
-0.0256	-0.0203	-0.0203	-0.0023	4.5
-0.0038	0.0142	-0.0195	-0.0015	4.5
0.0127	0.0337	-0.0233	-0.0008	4.5
0.0345	0.024	-0.0203	-0.0015	4.5
0.063	0.0082	0.0015	-0.0046	4.5
0.1042	-0.0008	0.0217	-0.0053	4.5
0.1215	-0.0105	0.0487	-0.0053	4.5
0.0577	-0.0308	0.0607	-0.0053	4.4
-0.0375	-0.021	0.0577	-0.0046	4.4
-0.0338	0.0037	0.0442	-0.0053	4.4
0.0195	0.0105	0.0315	-0.003	4.4
0.009	0.0292	0.0195	-0.0015	4.4
0.033	0.0315	0.0157	0.0007	4.4
0.0352	0.018	0.0105	0.003	4.4
0.0292	0.0097	-0.0008	0.0015	4.4
0.0345	0.0007	-0.003	-0.0015	4.4
0.0172	0.0067	-0.012	-0.0023	4.4
0.0232	-0.0083	-0.015	-0.0023	4.4
0.0105	-0.0143	-0.0143	0.0022	4.4
0.027	0.0097	-0.0135	0.0022	4.4
0.0015	-0.0143	-0.0113	-0.0008	4.4
-0.0375	-0.0398	-0.0105	0	4.4
-0.0143	-0.0555	0.0022	-0.0015	4.4
-0.0046	-0.057	0.0157	-0.0015	4.4
0.0045	-0.0075	0.0097	0.003	4.4
0.0165	0.009	-0.0091	0.0045	4.4
0.0007	0.0052	-0.0233	0.003	4.4
-0.063	0.009	-0.027	0.0052	4.3
-0.1095	0.0045	-0.0308	0.0045	4.3
-0.0608	-0.0015	-0.027	0.0045	4.3
-0.0098	-0.012	-0.0256	0.0045	4.3
-0.0218	-0.0083	-0.0473	0.003	4.3
-0.0053	0.012	-0.0615	0.0022	4.3
0.0142	0.0217	-0.0375	0	4.3
0.0277	0.0165	-0.0075	-0.0008	4.3
0.0232	0.0187	0.0165	-0.0008	4.3
-0.0038	0.0195	0.0457	-0.0015	4.3
0.003	0.0165	0.0532	-0.0046	4.3
0.0127	0.0142	0.0427	-0.0046	4.3
0.006	0.0097	0.033	-0.0038	4.3
-0.0143	0.0007	0.0352	-0.003	4.3
-0.0128	-0.003	0.0405	-0.0008	4.3
-0.0053	-0.0046	0.033	-0.0008	4.2
0	-0.0083	0.015	-0.0008	4.2
0.0037	-0.0098	0.0067	0.0007	4.2
-0.0023	-0.0158	0.0007	0.003	4.2
-0.006	-0.0143	-0.0338	0.0052	4.2
-0.0091	0.009	-0.054	0.0052	4.2
-0.0015	0.0457	-0.0638	0.0052	4.2
0.0075	0.048	-0.0653	0.0067	4.2
0.0247	0.0255	-0.0458	0.0067	4.2
0.048	0.0082	-0.0218	0.003	4.2
0.0487	-0.0256	0.0112	0.0007	4.1
0.0082	-0.0555	0.0307	-0.0008	4.1
-0.0383	-0.0645	0.042	-0.0015	4.1
-0.0203	-0.0188	0.0472	-0.0046	4.1
0.0285	0.0135	0.0405	-0.0053	4.1
0.0307	-0.0053	0.0315	-0.003	4.1
0.024	0.0075	0.033	-0.0015	4.1
0.0067	0.006	0.0285	-0.0008	4.1
-0.0346	-0.0038	0.0157	0.0045	4.1
-0.0346	0.0007	0.0082	0.0045	4.1
-0.0195	0.0007	0.003	0.0022	4.1
-0.0173	0.0067	-0.012	0.0022	4.1
-0.0105	0.012	-0.0225	0.0022	4.1
-0.0165	0.0352	-0.0188	0.0037	4.1
-0.0315	0.0652	-0.0203	0.003	4.1
-0.0128	0.0547	-0.0091	-0.0008	4.1
0.0187	0.024	0	0.0007	4.1
0.0285	0.0082	0.009	0.0037	4.1
0.0307	-0.0158	0.0367	0.0045	4.1
0.0457	-0.0443	0.0412	0.0045	4.1
0.0675	-0.0691	0.0495	0.0007	4.1
0.0495	-0.033	0.063	0.0015	4.1
-0.0405	0.0157	0.024	0.0007	4.1
-0.0893	-0.003	-0.0188	-0.003	4.1
-0.0068	-0.0181	-0.0368	-0.0023	4.1
0.0225	-0.0315	-0.0555	-0.0008	4.1
0.009	-0.0293	-0.0585	-0.0053	4.1
0.0195	-0.0083	-0.0405	-0.0068	4.1
0.0067	-0.0015	-0.0195	-0.0038	4.1
-0.0023	0.018	-0.0495	-0.0046	4.1
-0.0548	0.0382	-0.0765	-0.003	4.2
-0.0615	0.0382	-0.06	0.0007	4.2
-0.027	0.024	-0.0548	0.0007	4.2
0.0195	0.0082	-0.0368	0.0007	4.2
0.0165	-0.0173	-0.0181	0	4.2
-0.039	-0.0383	0.0052	0.0007	4.2
-0.129	-0.0495	0.0337	-0.0015	4.2
-0.1253	-0.0308	0.0427	-0.003	4.2
0.0052	0.0052	0.048	-0.0008	4.2
0.0127	0.0187	0.03	-0.0015	4.2
0.0937	0.033	0.0232	-0.0015	4.2
0.09	0.0292	0.0255	0.0015	4.2
0.0045	0.0082	0.0157	0.003	4.2
0.0232	-0.0113	0.009	0.0015	4.2
-0.0053	-0.0428	-0.0068	-0.0023	4.2
0.0307	-0.0548	-0.0091	-0.006	4.2
0.0315	-0.0143	0.009	-0.0046	4.2
0.027	0.0442	0.0165	-0.0023	4.2
0.027	0.0577	0.0105	-0.0015	4.2
0.045	0.0555	0.0067	0.0015	4.2
0.0742	0.0502	0.0015	-0.0008	4.2
0.0502	0.0127	0.0135	-0.003	4.2
0.0622	-0.021	0.0247	-0.0053	4.2
0.0367	-0.033	0.0045	-0.0068	4.2
-0.0158	-0.0218	-0.0278	-0.003	4.2
-0.0945	-0.0135	-0.0143	-0.0008	4.3
-0.1073	-0.0143	0.0307	0.0022	4.3
-0.012	-0.0015	0.0495	0.0045	4.3
-0.0008	0.0007	0.0532	0.0052	4.3
-0.0428	0.0082	0.0255	0.0045	4.3
-0.0706	0.0195	0.0067	0.0045	4.3
-0.0563	0.0255	-0.0158	0.003	4.3
-0.0113	0.0172	-0.0593	0.0007	4.3
0.021	0.018	-0.081	0.003	4.3
0.0315	0.0307	-0.063	0.0037	4.3
0.0352	0.0157	-0.024	0.003	4.3
0.0502	0.0015	0.0045	0.0015	4.3
0.0285	-0.0113	0.0247	0.0015	4.3
0.018	-0.021	0.0165	-0.0008	4.3
0.027	-0.0203	0.0187	-0.0046	4.3
0.048	-0.0165	0.0337	-0.0015	4.3
0.0487	-0.0083	0.0427	-0.0023	4.3
-0.039	-0.0053	0.042	-0.003	4.3
-0.1088	-0.0053	0.0367	-0.0008	4.3
-0.024	-0.0075	0.0285	-0.003	4.3
0.0255	-0.0038	0.0142	-0.0015	4.3
-0.0488	-0.0046	-0.0015	-0.0008	4.3
-0.021	-0.0105	-0.0165	0.0015	4.3
-0.003	-0.012	-0.0098	0.0007	4.3
-0.0165	-0.0046	-0.0075	-0.0008	4.3
0.0015	0.0067	-0.0285	-0.0008	4.3
-0.0075	0.009	-0.0353	-0.003	4.3
-0.0046	0.0112	-0.0315	-0.0023	4.3
-0.003	0.012	-0.0308	-0.003	4.3
0.0127	0.0142	-0.0165	-0.003	4.3
0.0262	0.0142	-0.0105	-0.0015	4.3
0.0255	0.0097	-0.006	-0.0015	4.3
0.0367	0.0067	-0.003	-0.0015	4.3
0.0232	-0.0068	-0.003	-0.0015	4.3
-0.0225	-0.012	0.003	-0.003	4.3
-0.0503	-0.0068	0.003	-0.003	4.2
-0.006	-0.0053	0.0105	-0.0015	4.2
0.0262	-0.006	0.0225	0	4.2
-0.0008	-0.0053	0.0135	0	4.2
-0.0248	-0.0068	0.0045	0.0015	4.2
-0.0195	-0.0068	-0.0046	0.0037	4.2
0.0097	-0.0053	-0.0181	0.003	4.2
0.0052	-0.0015	-0.015	0.0015	4.2
0.0045	0.009	-0.0091	0.0022	4.2
0.009	0.0292	-0.0053	0.0022	4.2
0.003	0.0502	0.0015	0.003	4.1
0.0112	0.0487	0.0052	0.003	4.1
0.0082	0.0727	0.0082	0.003	4.1
0.0082	0.0892	-0.0113	0.0015	4.1
0	0.0112	-0.045	-0.0008	4.1
-0.0143	-0.0525	-0.0503	0	4.1
-0.0143	-0.09	-0.0383	0.0015	4.1
0.0112	-0.12	-0.0113	0	4.1
0.0142	-0.1238	0.021	-0.0008	4.1
0.0007	-0.1065	0.0277	-0.003	4.1
0.0082	-0.0091	0.036	-0.003	4.1
0.024	0.0457	0.0382	-0.0015	4.1
0.0322	0.0367	0.042	-0.0015	4.1
0	0.03	0.0555	0.0007	4.1
0.0165	0.0067	0.0577	0	4.1
0.0142	0	0.0337	0.0007	4.1
-0.0428	-0.0105	0.0045	0.003	4.1
-0.042	-0.0135	-0.0233	0.003	4.1
-0.03	0.012	-0.0413	0.0015	4.1
-0.039	0.051	-0.0383	-0.0008	4.1
-0.0368	0.0495	-0.0278	0.0015	4.1
-0.0143	0.0217	0.0097	0.003	4.1
0.039	0.006	0.06	0.003	4.1
0.078	-0.027	0.0667	0.0015	4.1
0.048	-0.057	0.012	0	4.1
0.0465	-0.0533	-0.0315	-0.0008	4.1
0.0502	0	-0.0578	-0.0008	4.1
0.0277	0.0352	-0.0578	-0.003	4.1
-0.0128	0.0315	-0.042	-0.0075	4.1
-0.048	0.036	-0.03	-0.0068	4.1
-0.0038	0.024	-0.0053	-0.0053	4.1
-0.0165	0.009	0.0082	-0.0053	4.1
-0.0548	0.009	0.0105	-0.003	4.1
-0.0488	0.0052	-0.0105	-0.0038	4.1
-0.0615	0.0082	-0.0181	-0.0038	4.1
-0.0458	0.0052	-0.0181	-0.003	4
-0.024	-0.012	-0.0008	-0.0008	4
-0.0128	-0.0218	0.0172	0.003	4
-0.003	-0.027	0.0172	0.0045	4
-0.0015	-0.0218	0.027	0.006	4
0.015	0.003	0.0255	0.006	4
0.0285	0.012	0.0382	0.0075	4
0.0517	0.0255	0.042	0.0067	4
0.075	0.0405	0.0495	0.0045	4
0.072	0.024	0.018	0.0045	4
0.0915	0.0105	-0.0863	0.0022	4
0.1117	-0.012	-0.1335	-0.0008	4
0.0922	-0.0233	-0.1028	-0.0046	4
-0.0038	-0.0128	-0.0533	-0.003	4
-0.1598	0.0142	0.0007	-0.003	4
-0.2213	0.0442	0.0277	-0.0015	4
-0.0968	0.0472	0.0292	0.0007	4
0.0165	0.0502	0.042	-0.003	4
-0.0143	0.0375	0.0367	-0.0068	4
-0.0091	0.0142	0.0195	-0.0083	4
0.0142	-0.0083	0.0315	-0.0038	4
0.045	-0.0218	0.0585	0.003	4
0.018	-0.0195	0.0862	0.0007	4
-0.0653	-0.0256	0.0675	-0.003	4
-0.0511	-0.0465	0.0367	-0.0068	4
0.009	-0.0555	0.0225	-0.006	4
0.0562	-0.0143	0.0067	0	4
0.0367	0	0.0127	-0.0008	4
-0.0038	-0.0068	-0.0008	-0.0008	4
-0.0158	0.0007	-0.0181	0.0015	4
0.009	-0.0075	-0.0248	0.0007	4
0.0157	0	-0.0308	0.0022	4
0.009	-0.003	-0.0315	0.0037	4
0.0052	-0.0008	-0.0308	0.0045	4
0.0022	0.0052	-0.024	0.0045	4
0.0082	0.0007	-0.0195	0.0045	4
0.0007	0.009	-0.0158	0.0052	4
0.0075	0.024	-0.0105	0.0052	4
0.0052	0.0457	-0.0105	0.006	3.9
0.0052	0.0382	-0.0105	0.0045	3.9
0.0015	0.0172	-0.0075	0.003	3.9
-0.003	-0.0015	-0.0083	0.0022	3.9
-0.0038	-0.0308	-0.0083	0.0015	3.9
-0.0068	-0.0503	-0.0075	0.0007	3.9
-0.0015	-0.0615	-0.0068	-0.003	3.9
-0.0015	-0.0353	-0.0091	-0.0053	3.8
-0.0046	-0.003	-0.0075	-0.0023	3.8
-0.0113	-0.0008	-0.003	-0.0015	3.8
0.009	-0.0008	0.0022	-0.0015	3.8
0.0255	0.0015	0.0082	-0.0023	3.8
0.0142	0.0007	0.009	-0.0038	3.8
0.0217	0.0015	0.009	-0.0038	3.8
0.0307	0.0045	0.0082	-0.0023	3.8
0.015	0.006	0.0067	0	3.8
-0.006	0.0067	0.0052	-0.0008	3.8
-0.015	0.0067	0.0007	-0.0008	3.8
-0.0218	0.0052	0	0.0007	3.8
-0.012	0.0067	0.0007	0	3.8
-0.003	0.0052	-0.0008	-0.0008	3.7
0.0007	0.0052	-0.0083	-0.0008	3.7
0.012	0.0217	-0.0158	-0.0008	3.7
0.0105	0.0427	-0.021	0.0022	3.7
0.0015	0.045	-0.0233	0.0037	3.7
-0.003	0.0285	-0.0135	0.0045	3.7
-0.0053	0.0142	-0.003	0.0052	3.7
-0.0143	-0.006	0.018	0.003	3.6
-0.0195	-0.0353	0.0412	-0.0008	3.6
-0.0293	-0.03	0.0232	-0.0046	3.6
-0.0248	0.0292	-0.0091	-0.0053	3.6
0.0067	0.0427	0	-0.0023	3.6
0.0015	0.0052	0.0075	-0.0038	3.6
-0.0195	-0.021	-0.0046	-0.0046	3.6
-0.006	-0.0706	0.0015	-0.006	3.6
0.0307	-0.1013	0.003	-0.0083	3.6
0.0247	-0.06	0.0082	-0.0046	3.6
0.0255	0.0052	0.0097	-0.0015	3.6
0.0615	0.0127	0.003	-0.0015	3.6
0.06	0.0052	0.0022	0	3.6
0.0765	0.009	0.0015	0.0007	3.6
0.0675	-0.0046	0.0165	0.0007	3.6
0.0322	-0.003	0.0202	0	3.5
0.0262	-0.0015	0.009	0	3.5
-0.0015	0.0082	0.0067	0.0015	3.5
-0.0893	0.0127	0.0052	0.0015	3.5
-0.1575	0.018	-0.0008	-0.0008	3.5
-0.0945	0.0292	-0.0053	-0.0008	3.4
-0.0533	0.0285	-0.0091	0	3.4
-0.0135	0.0195	-0.0053	0	3.4
0.0157	0.003	-0.0015	0	3.4
-0.0233	0.0007	0.018	0.003	3.4
-0.012	0.0015	0.0457	0.0015	3.4
-0.0233	0.003	0.039	0.0007	3.4
-0.0098	0	-0.0053	0	3.4
0.009	0	-0.0593	0.0007	3.4
0.0015	0.0142	-0.0863	0.003	3.4
-0.006	0.021	-0.075	0.0045	3.4
-0.0023	0.0255	-0.0308	0.0045	3.4
0.0375	0.0247	0.0202	0.0045	3.4
0.0465	0.0157	0.0495	0.0022	3.4
0.0277	0.0015	0.0435	-0.0008	3.4
0.0142	-0.0203	0.0135	-0.003	3.4
-0.0053	-0.0465	0	-0.0068	3.4
-0.027	-0.0413	-0.0075	-0.0023	3.3
0	-0.0053	0.0007	0.0045	3.3
-0.0008	-0.0023	0.0232	0.003	3.3
-0.0225	-0.0008	0.0262	0	3.3
0.0052	0.0135	0.0187	-0.003	3.3
0.0315	0.027	0.0105	-0.003	3.3
0.0405	0.0255	-0.0015	0	3.3
0.03	0.0007	-0.0143	0	3.3
0.0165	-0.0195	-0.0188	0.0007	3.3
-0.0038	-0.0248	-0.0165	0.0007	3.3
-0.0158	-0.0046	-0.0181	0.0007	3.3
-0.0278	0.009	-0.0195	0.0007	3.3
0.0015	0.0225	-0.0165	-0.0046	3.3
0.0307	0.0427	-0.0105	-0.003	3.3
0.0135	0.0352	-0.0053	-0.0008	3.3
0.0052	-0.012	-0.006	-0.0008	3.3
-0.0195	-0.0615	0	0	3.3
-0.012	-0.0675	0.0015	0.0007	3.3
-0.0023	-0.042	-0.0068	0.0045	3.4
-0.0143	-0.021	-0.0105	0.0045	3.4
-0.012	-0.0083	-0.0181	0.0045	3.4
-0.0165	0.009	-0.0135	0.0037	3.4
-0.0083	-0.0015	-0.0008	0.0015	3.4
-0.0143	-0.0015	0.0127	0.0007	3.4
-0.0293	0.006	0.0322	0	3.4
-0.0143	0.003	0.0292	0.0015	3.4
0.0292	0.0142	0.0195	0.003	3.4
0.0472	0.024	0.0195	0.003	3.4
0.054	0.0345	0.0045	0.0045	3.4
0.0952	0.0292	-0.0105	0.003	3.4
0.12	0.0202	-0.0091	0.0007	3.4
0.1087	0.018	-0.0046	0.0007	3.4
0.0937	0.0217	0.006	0	3.4
0.0862	0.0105	0.0142	0.0015	3.4
0.0352	-0.0181	0.0165	0.0015	3.4
-0.0721	-0.033	0.0232	0	3.4
-0.1426	-0.03	0.0157	-0.003	3.4
-0.054	-0.0383	0.0232	-0.003	3.4
-0.039	-0.0465	0.0315	-0.0038	3.5
-0.1875	-0.006	0.0112	-0.0038	3.5
-0.186	0.006	-0.0068	0	3.5
-0.0833	0.003	-0.0158	0.0022	3.5
-0.0713	0.0157	-0.0248	0.003	3.5
-0.084	0.0097	-0.0248	0.0015	3.5
-0.0143	0.0112	-0.027	0.0007	3.5
0.0052	0.0067	-0.0315	0.0015	3.5
0.0157	0.006	-0.0278	0.0007	3.5
0.0292	0.0052	-0.0233	0.0022	3.5
0.0097	0.0022	-0.0195	0.0022	3.5
0.0255	0.0105	-0.0188	0.0015	3.5
0.0255	0.0127	-0.0091	-0.0008	3.5
0.0645	0.0067	0.0052	-0.0068	3.5
0.0495	0.0045	0.0142	-0.0075	3.5
0.015	0.0142	0.0262	-0.0046	3.5
0.0255	0.0022	0.0337	-0.0046	3.5
0.0165	-0.0105	0.0547	-0.003	3.5
-0.03	-0.0173	0.0622	-0.0023	3.5
-0.0465	-0.0075	0.021	-0.0023	3.5
0.0382	0.0352	-0.0525	-0.0015	3.5
0.0465	0.0577	-0.1088	0.0015	3.5
0.012	0.0427	-0.0871	0	3.5
-0.0143	0.0285	-0.048	-0.003	3.5
-0.033	0.0165	-0.0053	-0.0015	3.5
0.0067	-0.024	0.039	-0.003	3.4
0.0007	-0.0638	0.0517	-0.003	3.4
-0.0046	-0.0323	0.0652	-0.0015	3.4
-0.006	0.033	0.048	-0.0046	3.4
0.0352	0.0142	0.0465	-0.0046	3.4
0.1057	-0.027	0.0457	-0.0046	3.4
0.0892	-0.0503	0.0652	-0.0053	3.4
0.0457	-0.0511	0.0952	-0.003	3.4
-0.0195	-0.0428	0.0292	-0.0008	3.4
-0.045	-0.0511	-0.0105	-0.0046	3.4
-0.0128	-0.0046	-0.0346	-0.0105	3.4
-0.015	0.018	-0.06	-0.0068	3.4
-0.0143	0.0157	-0.0518	-0.0046	3.4
-0.0046	0.0277	-0.0548	-0.0046	3.4
-0.0158	0.018	-0.0308	-0.0015	3.4
-0.0113	0.0165	-0.0233	-0.0015	3.4
0.0037	0.0015	-0.0308	-0.003	3.4
0.0112	-0.0023	-0.0353	-0.0015	3.4
0.0075	0.0097	-0.0315	0.0007	3.4
-0.0105	0.0022	-0.0248	0.003	3.4
-0.0263	-0.0008	-0.0075	0.0022	3.4
-0.0143	-0.0015	0.0105	0.003	3.4
-0.0158	-0.0015	0.0067	0.0052	3.4
-0.0323	0.009	0.0067	0.0067	3.4
-0.0218	0.012	-0.0015	0.0067	3.4
-0.006	0.0142	-0.0046	0.0052	3.4
0.015	0.0202	0.003	0.0015	3.4
0.0457	0.0195	0.012	-0.0023	3.4
0.0667	0.0105	0.0225	0	3.4
0.072	0.006	0.0232	0.0022	3.4
0.0772	0.0037	0.0202	0	3.4
0.0495	0.0082	0.012	0.0015	3.4
-0.0188	0.0172	0.0067	0.003	3.4
-0.0488	0.018	0.0067	0.003	3.4
-0.0555	0.0135	0.006	0.0045	3.4
-0.0615	-0.006	0.0037	0.003	3.4
-0.0405	-0.0315	0.0045	0.0015	3.4
-0.0308	-0.0308	-0.003	0.0007	3.4
0.003	-0.0068	-0.0075	0.0007	3.4
0.036	0.0097	-0.0046	0	3.4
0.021	0.0157	0.003	-0.0008	3.3
-0.0083	0.0255	0.0067	-0.003	3.3
-0.0165	0.012	0.003	-0.0015	3.3
0.0075	-0.0053	0.003	-0.0008	3.3
0.0135	-0.0203	-0.012	-0.0015	3.3
0.0142	-0.0578	-0.0323	0	3.3
0.0135	-0.0495	-0.0383	0.0015	3.3
0.018	-0.0075	-0.027	0.0037	3.3
0.0127	-0.0038	-0.0083	0.0045	3.3
-0.0091	-0.0083	0.0037	0.003	3.3
-0.0203	-0.0008	0.0105	0.003	3.3
-0.012	0.0007	0.0105	0.0007	3.3
-0.033	0.012	0.0015	0	3.3
-0.0803	0.0315	-0.0075	0.0007	3.3
-0.0728	0.0405	-0.012	0.0015	3.3
-0.0375	0.0292	-0.0046	0.003	3.3
0.0052	0.0202	0.006	0.003	3.3
0.0472	0.0082	0.018	0	3.3
0.0615	-0.0181	0.0232	-0.003	3.3
0.0825	-0.0353	0.0292	-0.003	3.3
0.0877	-0.0263	0.0435	-0.0023	3.3
0.0577	-0.0181	0.0315	0	3.3
0.0052	-0.021	0.0202	-0.0008	3.3
-0.0233	0.0007	0.0307	-0.0008	3.3
0.003	0.0232	0.0187	0.0015	3.3
0.0127	0.024	-0.0323	0.0015	3.3
-0.0203	0.0345	-0.0803	0.003	3.3
-0.0795	0.0487	-0.0818	0.0007	3.3
-0.0878	0.027	-0.0465	0.0007	3.3
-0.0795	0.0015	0.0015	0.003	3.3
-0.0518	0.0082	0.0345	0.003	3.3
0.0727	0.0202	0.0675	0.0037	3.3
0.0675	0.0127	0.0915	0.003	3.3
-0.0038	-0.003	0.0727	0.0007	3.3
-0.0203	-0.0165	0.0457	-0.0023	3.3
-0.0308	-0.0503	0.0255	-0.0023	3.3
-0.0315	-0.0728	0.0082	-0.0015	3.3
-0.0443	-0.0593	0	-0.0008	3.3
-0.0181	-0.0165	-0.0173	0.003	3.3
-0.0105	0.0052	-0.0346	0.0037	3.3
0.0315	0.003	-0.033	0.003	3.3
0.0382	0.0097	-0.0361	0.0015	3.3
0.0105	0.0067	-0.0375	0.003	3.3
0.0097	0.0097	-0.0375	0.0037	3.3
0.0105	0.0082	-0.0308	0.0015	3.3
0.039	0.0075	-0.0181	0.003	3.3
0.0285	0.0105	-0.0143	0.003	3.3
0.0142	0.006	-0.0098	0.003	3.3
0.0082	0.0067	-0.0075	0.0015	3.3
0.0067	0.006	-0.0091	0.0015	3.3
0.0022	0.0037	-0.0143	0.0022	3.3
-0.0038	0.003	-0.0165	0.0007	3.3
-0.0015	0.0052	-0.0091	0	3.3
-0.0046	0.0052	-0.0008	0.0007	3.3
-0.0015	0.0045	0.0067	0.0015	3.3
-0.0091	0.006	0.0187	0.0022	3.3
-0.0128	0.009	0.033	-0.0008	3.3
-0.0083	0.036	0.0277	-0.0023	3.3
0.0015	0.0705	0.0157	-0.0023	3.3
0.015	0.054	0.0097	-0.003	3.3
0.0352	0.0135	0.0082	-0.0023	3.3
0.0435	-0.0195	-0.0015	-0.003	3.3
0.0105	-0.0743	-0.0135	-0.0046	3.3
-0.0158	-0.1088	-0.0008	-0.0046	3.3
-0.0046	-0.081	-0.0083	-0.0023	3.3
-0.0158	-0.0046	-0.0158	-0.0008	3.4
-0.015	0.0277	-0.0181	-0.0015	3.4
0.009	0.0232	-0.0203	-0.0068	3.4
0.0045	0.0315	-0.0053	-0.0091	3.4
0.0045	0.018	-0.0038	-0.0083	3.4
0.0015	0.003	0.009	-0.0091	3.4
0.012	-0.0165	0.0142	-0.0053	3.4
0.0217	-0.0233	0.0262	-0.0038	3.4
0.018	-0.0046	0.0532	-0.0015	3.4
0.0127	-0.0023	0.0427	0.0007	3.4
-0.0113	-0.0046	0.018	0.0015	3.4
-0.0428	0.0015	0.0045	0.0022	3.4
-0.0593	0.018	-0.0203	0.003	3.4
-0.0195	0.033	-0.0338	0.0052	3.4
0.0352	0.027	-0.0368	0.0045	3.4
0.0337	0.0142	-0.033	0.0052	3.4
0.021	-0.0015	-0.0203	0.0045	3.4
0.015	-0.0256	-0.0181	0.0007	3.4
-0.0023	-0.0428	-0.006	0.0007	3.4
-0.0353	-0.0218	0.0022	0.003	3.5
-0.0413	0.0232	0.0165	0.003	3.5
-0.0098	0.018	0.0202	0	3.5
-0.042	0.0067	0.0082	-0.0023	3.5
-0.0555	0.006	0.009	-0.0023	3.5
0.0022	-0.0008	0.0105	-0.0008	3.5
0.0345	0.0022	0.0052	0.0015	3.5
0.0277	-0.0046	0.0015	0.0015	3.5
0.0165	-0.0015	0.0045	0	3.5
0.0097	0.0045	0.0007	0.0007	3.5
0.0052	0.0045	-0.0015	-0.0015	3.5
0.0045	0.0052	-0.003	-0.0023	3.5
0.0015	0.0105	-0.0046	-0.003	3.5
0.0022	0.0165	-0.0008	-0.0015	3.6
0	0.0105	0.0015	0.0007	3.6
-0.0008	0.003	-0.0015	0	3.6
-0.0038	-0.0015	-0.0083	-0.0023	3.6
-0.0046	-0.012	-0.0083	-0.0053	3.6
-0.0015	-0.0143	-0.0083	-0.003	3.6
-0.0015	-0.0068	-0.003	-0.0008	3.6
-0.0023	-0.0075	0	-0.0023	3.6
-0.0046	-0.0053	0.0007	-0.0015	3.6
-0.0015	-0.0015	0.0052	-0.0008	3.6
0.003	-0.003	0.0037	0.0015	3.6
0.0075	0.0045	0.0067	0.0015	3.6
0.0142	0.0045	0.0105	0	3.6
0.0337	0.0052	0.0112	0.0015	3.6
0.0562	0.0067	0.0112	0.003	3.6
0.0555	0.0045	0.012	0.003	3.6
-0.0091	0.0045	0.0045	0.0007	3.6
-0.0923	-0.0015	-0.0135	-0.0008	3.6
-0.0608	-0.0015	-0.0195	0.003	3.6
0.0097	0.003	-0.0188	0.0045	3.6
0.0112	0.0225	-0.012	0.0037	3.7
0.0135	0.0495	0.0015	0.003	3.7
0.0082	0.0525	0.0157	0.0045	3.7
0.0052	0.0367	0.024	0.003	3.7
0.0105	0.0105	0.0165	0.0007	3.7
-0.0008	-0.027	0.0067	0.0007	3.7
-0.0068	-0.0653	-0.0023	-0.0015	3.7
-0.0158	-0.0893	-0.006	-0.003	3.7
-0.0308	-0.0698	-0.0053	-0.0015	3.7
-0.0728	-0.033	-0.0105	-0.003	3.7
-0.084	-0.0068	-0.0165	-0.0023	3.7
-0.0091	0.0007	-0.0225	-0.0015	3.8
0.015	0.003	-0.024	-0.0008	3.8
-0.0038	0.012	-0.0195	0	3.8
0.0022	0.0165	-0.0256	-0.0023	3.8
0.0067	0.0352	-0.03	-0.0038	3.8
0.0532	0.0405	-0.0015	-0.0038	3.8
0.057	0.0262	0.045	-0.0008	3.8
0.0562	0.012	0.0787	0.0015	3.8
0.0577	-0.003	0.078	0.0015	3.8
0.0615	-0.0105	0.0502	0.003	3.8
0.0555	-0.0278	0.0277	-0.0008	3.9
-0.0398	-0.0338	0.0052	-0.0023	3.9
-0.0743	-0.0083	-0.015	-0.003	3.9
-0.048	0.0052	-0.0278	-0.003	3.9
-0.0278	0.0037	-0.0285	-0.0015	3.9
-0.0308	0.009	-0.0195	-0.0015	3.9
-0.0046	0.0052	-0.0158	-0.003	3.9
0.0135	0.0052	-0.0195	-0.003	3.9
-0.0023	0.0045	-0.0188	-0.0038	3.9
0.0075	0.0022	-0.0218	-0.003	3.9
-0.0053	0.006	-0.015	-0.0008	3.9
0	0.003	-0.0023	-0.0008	3.9
-0.0038	0.003	-0.0046	-0.003	3.9
-0.0015	0.0015	0	-0.0053	3.9
0.0142	0.0022	0.0015	-0.0038	3.9
0.0322	0.0015	0.0037	-0.0008	3.9
0.0292	-0.0023	0.003	0	3.9
0.0015	0.0007	0.0007	-0.0008	4
0.0067	0.0052	0.0015	-0.0015	4
0.0007	0.0067	0.0007	-0.0015	4
-0.0015	0.0097	-0.0008	0.0007	4
-0.003	0.0082	-0.006	-0.0008	4
-0.0038	0.0045	0.0082	0	4
-0.0068	0.006	0.0277	0.0022	4
-0.0158	0.009	0.0157	0.003	4
-0.012	0.012	0.0015	0.0015	4
-0.003	0.012	-0.0113	-0.0008	4
0.009	0.0067	-0.024	0	4
0.0075	0	-0.0203	0.0007	4
0.0052	-0.0046	-0.0135	0.0015	4
0.003	-0.0181	0	0	4
0.0142	-0.0338	0.012	-0.0038	4
0.0262	-0.0181	0.024	-0.0046	4
0.027	-0.0008	0.0225	-0.0008	4
0.0405	-0.0015	0.0015	0.0007	4
0.0457	0.0015	-0.003	0.0007	4.1
0.009	0.0022	-0.0083	-0.0015	4.1
-0.0428	0.0015	-0.0218	-0.0015	4.1
-0.057	0.0037	-0.0181	-0.003	4.1
-0.0188	0.0082	-0.0038	-0.0046	4.1
-0.006	0.0255	0.012	-0.0015	4.1
-0.0368	0.0367	0.0217	-0.0008	4.1
-0.0293	0.0247	0.0232	-0.003	4.1
-0.0218	0.0067	0.0247	-0.003	4.1
-0.0203	-0.003	0.0142	-0.0008	4.1
-0.0091	-0.0181	0.0022	0.0007	4.2
-0.0015	-0.045	0.003	0.0007	4.2
0.006	-0.063	0	0	4.2
0.0075	-0.0233	0.0015	0.0037	4.2
0.009	0.0082	0.0315	0.0037	4.2
-0.0008	-0.0046	0.048	0.0015	4.2
-0.0083	-0.0008	0.0165	0.0007	4.2
-0.0015	-0.0046	-0.0083	-0.0015	4.3
0.009	-0.0015	-0.0278	-0.0053	4.3
0.0172	0.0045	-0.0405	-0.0083	4.3
0.0142	0.0045	-0.042	-0.0098	4.3
0.0127	0.0165	-0.0458	-0.0083	4.3
0.0172	0.018	-0.0293	-0.0091	4.3
0.0127	0.0255	-0.0143	-0.0083	4.3
0.0082	0.0195	0.0007	-0.0023	4.3
0.003	0.006	0.0067	-0.0008	4.4
-0.0105	0.003	0.0045	-0.0015	4.4
-0.0098	0	-0.0015	0.0007	4.4
-0.0023	0.0172	-0.0015	0.0045	4.4
0.006	0.057	0.0105	0.0082	4.4
0.003	0.0645	0.0165	0.009	4.4
-0.0046	0.036	0.0202	0.0105	4.4
-0.012	0.0157	0.0135	0.0112	4.5
-0.0278	-0.0218	0.0045	0.0112	4.5
-0.0218	-0.063	-0.0083	0.0067	4.5
0.0045	-0.105	-0.0128	-0.0015	4.5
0.0202	-0.1006	-0.0105	-0.003	4.5
0.0202	-0.027	-0.0128	-0.0015	4.5
0.0195	0	-0.033	0	4.5
0.0232	-0.003	-0.0511	0.003	4.5
0.033	-0.003	-0.0383	0.0067	4.6
0.0352	-0.0083	-0.024	0.0112	4.6
0.0105	0.0007	-0.0015	0.0105	4.6
-0.0218	0.0015	0.0127	0.0067	4.6
-0.0308	0.027	0.0232	0.0067	4.6
-0.048	0.0727	0.0397	0.009	4.6
-0.0465	0.0645	0.0442	0.009	4.7
0.0202	0.0412	0.048	0.0067	4.7
0.0157	0.0202	0.027	0.0045	4.7
-0.054	-0.0165	0.0225	0.003	4.7
-0.0458	-0.0615	0.024	-0.0023	4.7
-0.0068	-0.0878	0.0165	-0.0038	4.7
0.0015	-0.0323	0.015	0.0015	4.7
-0.0046	0.0105	0.018	0.0045	4.7
-0.0113	0.003	0.018	0.0052	4.7
-0.0248	0.0105	0.0052	0.0045	4.8
-0.012	0.009	0.003	0.0022	4.8
-0.0015	0.009	-0.0053	0.0015	4.8
-0.006	0.0082	-0.0046	0.0015	4.8
0.0165	0.0037	-0.0068	-0.0023	4.8
0.0577	0.0067	-0.0113	-0.0046	4.8
0.0705	0.0067	-0.0098	-0.0128	4.8
0.036	0.006	-0.0158	-0.0195	4.8
0.0165	0.003	-0.0143	-0.0203	4.8
0.0067	0.0045	-0.0165	-0.0225	4.8
0.0022	0.0045	-0.0181	-0.0203	4.9
0.006	0.0037	-0.0143	-0.0165	4.9
0.0075	0.0045	-0.012	-0.0128	4.9
0.0105	0.006	-0.0105	-0.012	4.9
0.006	0.0045	0.0007	-0.0128	4.9
0.0045	0.003	0.0232	-0.0128	4.9
-0.0046	0.0067	0.0315	-0.0075	4.9
-0.0068	0.0067	0.0255	0.003	4.9
-0.0068	0.0052	0.0105	0.0082	4.9
-0.0046	0.0075	-0.0188	0.0082	4.9
-0.0008	0.018	-0.033	0.009	4.9
-0.0038	0.0202	-0.039	0.009	4.9
-0.0143	0.0105	-0.039	0.0127	4.9
-0.0293	0.0015	-0.0285	0.0157	4.9
-0.012	-0.0083	-0.0158	0.015	4.9
-0.0008	-0.0128	-0.0038	0.0142	5
-0.0105	-0.0256	-0.0053	0.012	5
-0.0068	-0.0383	-0.0008	0.0075	5
-0.0083	-0.0203	0.0067	0.003	5
-0.012	0.0052	0.0127	0.0007	5
-0.0293	0.0052	0.0142	-0.003	5
-0.0428	0.0022	0.0187	-0.0046	5
-0.0128	0.015	0.0165	-0.0046	5
0.0195	0.0172	0.0127	-0.0053	5
0.0345	0.015	0.0195	-0.0038	5.1
0.0727	0.0105	0.0202	0.0007	5.1
0.063	0.0022	0.0202	0.003	5.1
0.0135	-0.006	0.012	0.0037	5.1
0.0052	-0.0181	0.003	0.006	5.1
-0.0053	-0.03	-0.003	0.0067	5.1
-0.0053	-0.0278	-0.0083	0.0082	5.2
-0.0038	-0.0105	-0.027	0.0105	5.2
-0.0038	-0.0053	-0.0323	0.0105	5.2
-0.0008	0.0022	-0.0181	0.009	5.2
-0.0008	0.0097	-0.012	0.0037	5.2
0.0082	0.0105	0.0127	-0.0015	5.3
0.0135	0.0165	0.0217	-0.0075	5.3
0.0165	0.015	0.0232	-0.012	5.3
0.0082	0.0157	0.0217	-0.0158	5.3
0.0052	0.012	0.021	-0.0181	5.3
-0.0046	0.0052	0.021	-0.0158	5.3
-0.0173	0.0037	0.012	-0.0173	5.3
-0.0285	0.0007	0.009	-0.0181	5.3
-0.0458	0.0007	0.0045	-0.0143	5.3
-0.0353	-0.0015	0.0045	-0.0098	5.3
-0.0098	-0.0008	0.0045	-0.0068	5.4
-0.0068	0.0007	0.0022	-0.0068	5.4
-0.0038	0	-0.0038	-0.0038	5.4
0.0007	0.0007	-0.0083	-0.0023	5.4
-0.0015	0.0007	-0.0128	-0.0008	5.4
0.0007	0	-0.0165	0.0022	5.4
-0.0015	-0.0008	-0.0173	0.003	5.4
-0.0008	0.0067	-0.0158	0.0045	5.5
-0.0023	0.0202	-0.0113	0.0067	5.5
-0.0053	0.0397	-0.0098	0.0082	5.5
-0.0083	0.0502	0.0015	0.0082	5.5
-0.0143	0.0367	0.012	0.009	5.5
-0.0128	0.0127	0.0097	0.009	5.5
-0.003	-0.0173	0.0067	0.0067	5.5
0.0105	-0.0555	-0.0008	0.0067	5.5
0.0195	-0.0758	-0.0083	0.0045	5.6
0.0315	-0.0683	-0.0105	0.0045	5.6
0.0442	-0.0368	-0.0068	0.006	5.6
0.045	-0.0068	-0.0128	0.0082	5.6
0.024	-0.0053	-0.033	0.012	5.6
0.0022	-0.0068	-0.0383	0.0135	5.6
-0.0075	-0.0046	-0.03	0.0157	5.6
