File Name: 1Nmar.log
Channel 1: 'RF', 5681 values, engineering units: mV, no filters.
Channel 2: 'BF', 5681 values, engineering units: mV, no filters.
Channel 3: 'VM', 5681 values, engineering units: mV, no filters.
Channel 4: 'ST', 5681 values, engineering units: mV, no filters.
Channel 5: 'FX', 285 values, engineering units: deg, no filters, extrapolated from 50 to 1000 samples per second.

0.0007	-0.0083	0.0045	-0.0091	57.6
-0.0008	-0.0038	0.0007	-0.0046	57.5
-0.0008	-0.0068	0.0015	-0.0023	57.3
-0.0008	-0.0053	0.0045	-0.0038	57.1
0.0007	0.0015	0.0082	-0.0075	56.9
0.003	0.0052	0.009	-0.0083	56.7
0.0015	0.003	0.0067	-0.0038	56.5
0.0015	0.0022	0.0022	-0.0023	56.3
0.0015	0.003	-0.0008	0.0015	56.1
0.0022	0.0045	-0.0008	0.0082	55.9
0.0022	0.0067	-0.0023	0.0082	55.7
0	0.006	0.0007	0.0007	55.5
0.0007	0.0045	0.0015	-0.0068	55.3
0.0022	0.0067	-0.0015	-0.0083	55.1
0.0015	0.0097	-0.0038	-0.0015	54.9
0.0045	0.0127	-0.0068	0.0067	54.7
0.003	0.0105	-0.006	0.006	54.5
0.0045	0.0007	-0.0098	-0.0015	54.3
0.003	-0.0053	-0.012	0.0022	54.1
0.0007	-0.0091	-0.0143	0.003	53.9
0.0007	-0.0105	-0.015	-0.003	53.7
-0.0008	-0.003	-0.0143	0	53.5
0	0.003	-0.0135	0.0067	53.2
0.0007	0.003	-0.0038	0.0097	53
0.0022	0	-0.0053	0.012	52.7
0.0052	-0.0008	-0.0105	0.0067	52.5
0.0052	-0.0008	-0.0165	-0.0068	52.2
0.009	0.003	-0.0225	-0.0248	52
0.0105	0.0067	-0.0225	-0.0315	51.7
0.012	0.0082	-0.0256	-0.0218	51.5
0.0105	0.009	-0.0278	-0.0068	51.2
0.0105	0.0067	-0.024	0.0082	50.9
0.0112	0.0082	-0.0181	0.0217	50.7
0.0127	0.009	-0.0181	0.0262	50.4
0.0165	0.0075	-0.0173	0.0232	50.2
0.0135	0.0052	-0.0165	0.006	49.9
0.0127	0.0052	-0.0128	-0.0263	49.7
0.009	0.009	-0.0038	-0.0608	49.5
0.0082	0.015	-0.0053	-0.0713	49.2
0.0045	0.0142	-0.0098	-0.0346	49
0.0015	0.009	-0.0128	0.0135	48.6
0.003	0.0067	-0.0135	0.057	48.4
0.0007	0.0022	-0.0105	0.0817	48.1
0.0007	-0.0023	-0.0083	0.0585	47.8
-0.003	-0.0053	-0.0053	0.0277	47.5
-0.0053	-0.0083	-0.0015	0.0045	47.2
-0.006	-0.0053	0.0007	-0.0046	46.9
-0.0053	-0.0083	0.003	0.0015	46.6
-0.0046	-0.012	0.006	-0.0015	46.3
-0.003	-0.015	-0.0038	-0.0038	45.9
0.0022	-0.0128	-0.0173	-0.0083	45.6
0.0022	-0.0068	-0.0053	-0.0053	45.4
-0.0046	-0.012	0.0195	0.0052	45
-0.0105	-0.0105	0.0262	0.0015	44.7
-0.0105	-0.0068	0.0247	-0.0053	44.4
-0.0083	-0.006	0.021	-0.0046	44.1
-0.0083	-0.003	0.0202	-0.0023	43.8
-0.0083	-0.003	0.0202	-0.0046	43.5
-0.0075	-0.0015	0.0195	-0.0075	43.2
-0.0091	-0.0008	0.0232	-0.0098	42.9
-0.0091	-0.0008	0.0255	-0.0135	42.6
-0.0083	0.0015	0.0195	-0.024	42.3
-0.0046	0.0067	0.0105	-0.0293	41.9
-0.003	0.0097	0.009	-0.0143	41.5
-0.0008	0.0075	0.0007	0	41.2
0.0007	0.0045	-0.003	0.006	40.8
-0.0046	0.006	-0.0068	0.0082	40.4
-0.012	0.0037	-0.015	0.0105	40
-0.0143	-0.0046	-0.0195	0.0067	39.7
-0.0075	-0.0113	-0.0285	-0.0075	39.3
-0.0046	-0.0105	-0.033	-0.0113	39
0	-0.0046	-0.0293	-0.0068	38.6
0.0045	0.0007	-0.024	-0.0015	38.2
0.0067	0	-0.0225	0.003	37.9
0.0052	-0.0023	-0.0233	-0.0008	37.5
0.0037	-0.0015	-0.0203	-0.0053	37.1
0.006	-0.0008	-0.0128	-0.0023	36.8
0.0075	0.0007	-0.0008	-0.0046	36.4
0.0127	0.003	0.0142	-0.0113	36
0.0127	0.0015	0.0225	-0.015	35.7
0.0127	0.0015	0.0232	-0.0143	35.3
0.0157	-0.0008	0.0187	-0.0098	35
0.0195	-0.0015	0.0187	-0.0023	34.6
0.0232	0.0007	0.024	-0.0015	34.2
0.0247	0.0067	0.0307	-0.0053	33.8
0.024	0.0067	0.03	-0.0068	33.4
0.0157	0.003	0.0142	-0.0015	33.1
0.0045	0.0037	0.0022	-0.006	32.7
-0.0023	0.0067	-0.0023	-0.0361	32.4
-0.0075	0.0082	-0.0091	-0.0691	31.9
-0.0158	0.003	-0.0128	-0.0773	31.6
-0.0195	0.0007	-0.0188	-0.054	31.2
-0.0181	0.0015	-0.021	0.0022	30.8
-0.0165	-0.003	-0.0195	0.0585	30.5
-0.0128	-0.0053	-0.0225	0.0832	30.1
-0.0075	-0.0083	-0.0181	0.0795	29.7
-0.0053	-0.012	-0.0091	0.0592	29.3
-0.0046	-0.012	0.0037	0.0262	29
-0.0038	-0.012	0.0052	-0.0083	28.6
0.003	-0.0053	-0.0105	-0.0233	28.2
0.0045	0.003	-0.0091	-0.021	27.8
-0.0015	0.003	0.0007	-0.0113	27.4
-0.0023	0.0052	0.0007	0.0045	27.1
-0.0015	0.0022	-0.0091	0.0195	26.7
0	-0.006	-0.0165	0.0202	26.3
0.0045	-0.006	-0.0143	0.0007	25.9
0.0075	-0.0046	-0.0046	-0.0143	25.6
0.0052	-0.003	0.0045	-0.012	25.2
0.0022	-0.0015	0.0105	-0.0068	24.8
0.0007	0.0007	0.0165	0.003	24.4
-0.0008	0.0037	0.0285	0.0127	24
-0.0083	-0.0015	0.0427	0.012	23.6
-0.0188	-0.003	0.0442	0.0112	23.2
-0.015	0.0007	0.0367	0.009	22.9
-0.0098	-0.0008	0.0217	0.0082	22.5
-0.0075	-0.0015	0.003	0.0015	22.1
-0.0046	-0.0046	-0.0068	-0.0008	21.7
-0.0015	-0.0075	-0.0083	0	21.3
-0.0046	-0.0091	0.0015	-0.0046	20.9
-0.0128	-0.0105	0.0127	-0.0053	20.6
-0.0038	-0.0068	0.0232	-0.006	20.1
0.012	-0.0038	0.027	-0.003	19.8
0.0172	-0.0046	0.0195	0.0007	19.4
0.0195	-0.0023	0.015	0.003	19.1
0.0202	0.003	0.009	0.003	18.7
0.0142	0.0067	0.0045	-0.0015	18.3
0.006	0.0067	0.0067	-0.0068	18
-0.0053	0.0067	0.012	-0.0128	17.6
-0.0128	0.0082	0.009	-0.0218	17.2
-0.0188	0.012	0.009	-0.0293	16.9
-0.0188	0.0135	0.0067	-0.0218	16.5
-0.0091	0.0127	0.0052	-0.006	16.2
-0.0053	0.0075	0.0037	0.0112	15.8
-0.0008	0.0022	-0.003	0.0292	15.4
0.003	-0.003	-0.0008	0.0457	15.1
0.0037	-0.0105	-0.0046	0.0495	14.7
0.0082	-0.0158	-0.0083	0.0292	14.3
0.0142	-0.024	-0.003	0.0082	13.9
0.0157	-0.0233	-0.0008	0.003	13.6
0.0105	-0.0091	-0.0015	0.0015	13.2
0.0052	-0.0023	-0.0083	-0.0008	12.8
0.0007	0.0037	-0.0075	0.0037	12.6
-0.0075	0.0082	-0.0158	0.0037	12.3
-0.0165	0.0082	-0.0233	-0.0015	12.1
-0.0143	0.0097	-0.0181	-0.0046	11.8
-0.0113	0.009	-0.0203	-0.0068	11.5
-0.012	0.0082	-0.0181	-0.0075	11.2
-0.012	0.0052	-0.0091	-0.0083	11
-0.0091	0.0007	-0.0008	-0.0105	10.7
-0.0008	-0.0008	0.0067	-0.0046	10.4
0.0142	0.0015	0.0075	-0.003	10.2
0.0285	0.0045	0.0045	-0.003	9.9
0.0352	0.0075	-0.003	0.0015	9.6
0.039	0.009	-0.0091	0.006	9.4
0.045	0.009	-0.0218	0.0082	9.1
0.0465	0.0097	-0.0465	0.0015	8.8
0.0427	0.0112	-0.0743	-0.0068	8.5
0.039	0.0082	-0.084	-0.0098	8.3
0.0315	0.0067	-0.0623	-0.0068	8
0.0067	0.003	-0.012	-0.0083	7.7
-0.0158	-0.0015	0.024	-0.021	7.4
-0.03	-0.0023	0.036	-0.0218	7.4
-0.042	-0.0068	0.0495	-0.0105	7.3
-0.0503	-0.006	0.0562	0.0052	7.2
-0.0585	-0.0068	0.0667	0.027	7.1
-0.06	-0.012	0.063	0.033	7
-0.0465	-0.012	0.054	0.021	6.9
-0.0308	-0.0098	0.039	0.0075	6.8
-0.015	-0.003	0.0202	0	6.7
-0.0091	0.0015	0.0045	0.003	6.7
-0.0091	0.0052	-0.024	0.0105	6.6
-0.0091	0.006	-0.0233	0.009	6.5
-0.0083	0.0007	-0.0083	0.0067	6.4
-0.0023	-0.003	0.0022	0.0142	6.3
-0.006	-0.006	0.009	0.0127	6.3
-0.0091	-0.0068	0.0045	0.0007	6.2
-0.003	-0.0038	0.0052	-0.0105	6.1
0.0067	-0.0068	0.0127	-0.0218	6
0.0127	-0.0128	0.0202	-0.0203	5.9
0.0142	-0.012	0.0217	-0.0195	5.8
0.0082	-0.0173	0.0157	-0.0218	5.7
-0.0091	-0.0278	0.021	-0.003	5.7
-0.021	-0.0405	0.0352	0.0172	5.7
-0.0256	-0.057	0.0405	0.0292	5.7
-0.0256	-0.063	0.0502	0.039	5.7
-0.0143	-0.0495	0.0427	0.0382	5.7
0.0007	-0.0181	-0.003	0.0217	5.7
0.0165	0.0067	-0.054	0.0052	5.7
0.009	0.006	-0.042	0.006	5.7
-0.0135	0.0045	-0.0113	0.003	5.7
-0.012	0.0255	-0.0053	-0.0053	5.7
-0.0105	0.0592	0.0105	-0.0083	5.7
-0.0053	0.075	0.0045	-0.0135	5.7
0.0157	0.054	-0.003	-0.0135	5.7
0.0427	0.0435	-0.0218	-0.0098	5.7
0.0787	0.0502	-0.0278	-0.0015	5.7
0.108	0.0585	-0.0195	0.0052	5.7
0.1065	0.06	-0.0278	0.0052	5.7
0.078	0.0315	-0.0165	-0.0023	5.7
0.0465	0.0052	-0.0165	-0.0158	5.7
0.0142	-0.0128	-0.0105	-0.027	5.7
-0.0158	-0.0263	-0.0105	-0.0308	5.7
-0.0548	-0.0278	-0.0165	-0.0263	5.8
-0.0698	-0.024	-0.0165	-0.0203	5.8
-0.0495	-0.0083	-0.0203	-0.0135	5.8
-0.0323	0.0045	-0.024	-0.0068	5.8
-0.0068	0.0165	-0.0285	-0.003	5.8
0.0045	0.009	-0.0195	-0.003	5.8
0.0135	-0.0068	-0.0143	-0.0046	5.8
0.0285	-0.0053	-0.0128	-0.003	5.8
0.0292	-0.012	-0.0023	-0.0038	5.8
0.0255	-0.0128	0.006	-0.0135	5.8
0.0232	-0.0053	0.0052	-0.0285	5.9
0.021	0	0	-0.0428	5.9
0.0202	0.0067	-0.0105	-0.0413	5.9
0.0195	0.0037	-0.027	-0.0338	5.9
0.012	0.0067	-0.045	-0.024	5.9
0.0015	0.0112	-0.0533	0.0142	5.9
-0.0075	0.0052	-0.0473	0.051	5.9
-0.0128	-0.0053	-0.0368	0.0652	6
-0.0203	-0.0165	-0.0188	0.0757	6
-0.024	-0.0203	-0.0075	0.0712	6
-0.0256	-0.027	0.0052	0.0487	6.1
-0.027	-0.0346	0.0232	0.0232	6.1
-0.0248	-0.0256	0.0307	-0.0015	6.2
-0.0315	-0.012	0.0277	-0.021	6.3
-0.0263	-0.0038	0.0217	-0.021	6.3
-0.0105	-0.0008	0.0202	-0.0075	6.3
0.0007	-0.0083	0.024	0.0067	6.4
0.009	-0.0143	0.0195	0.018	6.4
0.009	-0.0091	0.0112	0.0067	6.5
0.0135	-0.0091	0.0075	-0.0046	6.6
0.0165	-0.0068	0.0045	-0.0015	6.6
0.0097	-0.0046	0.009	-0.012	6.7
0.0007	-0.0053	0.0195	-0.024	6.7
-0.0046	-0.0038	0.0247	-0.0263	6.7
-0.0075	-0.0008	0.0217	-0.03	6.8
-0.0075	0.0015	0.0082	-0.024	6.9
-0.015	-0.0046	-0.0105	-0.0158	6.9
-0.0323	-0.0046	-0.0338	-0.0105	7
-0.0473	0.0075	-0.0465	-0.0068	7
-0.0525	0.0217	-0.0413	-0.0083	7.1
-0.039	0.0292	-0.0353	-0.0075	7.1
-0.0181	0.0232	-0.0353	-0.0068	7.1
-0.0023	0.0225	-0.0285	-0.0046	7.1
0.0202	0.0225	-0.0181	-0.0083	7.2
0.0352	0.0165	-0.0046	-0.012	7.2
0.0457	0.0082	0.0045	-0.0098	7.2
0.06	0.006	0.0105	0.0015	7.2
0.0577	0.0112	0.0217	0.0232	7.2
0.0427	0.0075	0.039	0.0277	7.3
0.0232	-0.003	0.0495	0.0105	7.3
0.0112	-0.012	0.0352	-0.0098	7.3
0.0037	-0.0128	0.0375	-0.0203	7.4
-0.0173	-0.0105	0.0465	-0.0165	7.4
-0.0293	-0.0046	0.0367	-0.0046	7.4
-0.0195	0.0022	0.0352	0.0105	7.5
-0.0015	0.006	0.0315	0.0217	7.5
0.0135	0.0022	0.033	0.0165	7.5
0.0045	-0.0068	0.0277	0.0022	7.5
-0.0046	-0.0098	0.0217	-0.0053	7.6
0.0037	-0.012	0.027	-0.012	7.6
0.0105	-0.0105	0.0195	-0.0173	7.6
0.018	-0.0068	0.012	-0.0315	7.7
0.0172	-0.003	0.0105	-0.057	7.7
0.012	0.0022	0.0157	-0.0533	7.8
0.0007	0.0015	0.0247	-0.0315	7.8
-0.0105	0.0037	0.0367	-0.021	7.9
-0.0181	0.009	0.0307	-0.003	7.9
-0.0233	0.009	0.0127	0.0352	8
-0.0203	0.0045	0.0105	0.0682	8.1
-0.0225	-0.0023	0.0142	0.0697	8.1
-0.033	-0.0091	0.0157	0.0592	8.1
-0.042	-0.0158	0.0007	0.0577	8.2
-0.042	-0.0195	-0.0105	0.0457	8.2
-0.027	-0.0203	-0.0203	0.0307	8.3
-0.0091	-0.0195	-0.0165	0.0277	8.3
0.0015	-0.0135	-0.0128	0.0142	8.4
0.0067	-0.0128	-0.0203	-0.0023	8.4
0.0052	-0.0165	-0.0218	-0.012	8.5
0.0045	-0.0165	-0.0248	-0.0188	8.5
0.003	-0.0091	-0.0225	-0.0188	8.6
-0.0015	0.0007	-0.03	-0.0143	8.8
-0.0143	0.003	-0.0233	-0.0068	8.9
-0.0165	0.0007	-0.0195	-0.0046	9
-0.0075	0.0045	-0.021	-0.0075	9.2
-0.0098	0.006	-0.0128	-0.0053	9.3
-0.024	0.0075	-0.0128	-0.0091	9.4
-0.0293	0.0105	-0.0068	-0.0128	9.6
-0.0135	0.012	-0.0015	-0.0128	9.7
-0.0091	0.0067	0.0052	-0.0128	9.9
-0.0008	0.0045	0.0142	-0.0113	10
0.024	0.0067	0.012	-0.0046	10.1
0.039	0.0082	0.0052	0.0022	10.3
0.0532	0.0105	0.0105	0.0052	10.4
0.0555	0.0082	0.006	0.0037	10.5
0.0607	0.0007	0.0015	-0.0068	10.7
0.0705	-0.0038	0.0127	-0.0181	10.8
0.0622	-0.0015	0.0135	-0.0233	10.9
0.0232	-0.0015	0.0067	-0.0203	11.1
-0.0203	-0.006	-0.0068	-0.0158	11.2
-0.0346	-0.0046	-0.0143	-0.012	11.4
-0.0293	0.0015	-0.0195	-0.0053	11.5
-0.0143	0.0105	-0.0308	-0.0053	11.7
-0.0098	0.012	-0.0398	-0.0143	11.9
-0.0015	0.0105	-0.0405	-0.024	12.1
0.0067	0.0142	-0.0315	-0.0278	12.2
-0.0023	0.0105	-0.0308	-0.012	12.4
-0.012	0.003	-0.0285	0.0082	12.6
-0.0181	-0.0008	-0.0218	0.0232	12.7
-0.0143	0.0015	-0.0128	0.0435	12.9
-0.0113	-0.0008	-0.0173	0.0405	13
-0.0091	-0.0046	-0.0195	0.0225	13.2
-0.0038	-0.0008	-0.015	0.0067	13.4
0.0015	0.0007	-0.0233	-0.0046	13.5
0.009	0.006	-0.027	-0.0046	13.7
0.009	0.0082	-0.0256	-0.0068	13.9
0.0097	0.0052	-0.0233	-0.0083	14.1
0.012	0.0052	-0.0195	-0.006	14.3
0.0127	0.0045	-0.0128	-0.0053	14.4
0.0097	0.003	-0.0075	-0.0046	14.6
0.0015	-0.0015	-0.0098	-0.0068	14.6
0.0052	-0.0015	-0.0128	-0.0091	14.7
0.0135	0.0015	-0.0113	-0.0113	14.8
0.018	0.0037	-0.0015	-0.0091	14.8
0.0217	0.0052	0.0037	-0.0083	14.9
0.018	0.0045	0.0022	-0.0158	14.9
0.015	0.0015	0	-0.021	15
0.0202	0.0015	-0.0008	-0.0158	15
0.018	0.003	-0.0008	-0.0075	15.1
0.0015	0.0022	0	0.0007	15.2
-0.0113	-0.0008	0.0022	0.018	15.2
-0.0158	-0.003	0	0.0277	15.3
-0.0195	-0.0046	0.0015	0.0217	15.3
-0.027	-0.0075	0.0097	0.012	15.4
-0.027	-0.0068	0.0195	0.0015	15.5
-0.0188	-0.0083	0.024	-0.0053	15.5
-0.0008	-0.0091	0.0225	-0.0023	15.6
0.0165	-0.0053	0.024	0	15.6
0.018	-0.0038	0.0247	0.0015	15.7
0.0202	-0.0008	0.03	0.0037	15.7
0.027	-0.0008	0.0345	0.0037	15.7
0.024	-0.0038	0.033	0.0045	15.6
0.0142	-0.0083	0.0345	0.0052	15.4
-0.0008	-0.0143	0.0345	0.0037	15.3
-0.0128	-0.0165	0.033	0.0045	15.2
-0.0143	-0.0158	0.0277	0.0067	15.1
-0.0128	-0.0143	0.0292	0.006	14.9
-0.012	-0.0128	0.0232	0.0052	14.8
-0.0113	-0.0091	0.015	0.0067	14.7
-0.012	-0.0023	0.0225	0.0082	14.6
-0.0105	0.0105	0.0225	0.009	14.4
-0.0105	0.0307	0.0195	0.0097	14.4
-0.0083	0.0382	0.0232	0.009	14.2
-0.0075	0.0225	0.0187	0.0067	14.1
-0.006	0.006	0.0165	0.0052	13.9
-0.0053	0	0.0105	0.003	13.9
-0.0068	-0.0046	0.0015	0.0015	13.7
-0.0038	-0.0046	-0.0068	0.0007	13.6
-0.003	-0.0046	-0.0113	0.0007	13.5
-0.0023	-0.0053	-0.0091	0.0015	13.3
-0.003	-0.0053	-0.0053	0.0007	13.3
-0.0068	-0.0038	-0.0015	0.0022	13.2
-0.006	-0.003	-0.0015	0.003	13.1
-0.0068	-0.0046	-0.0015	0.0045	13.1
-0.003	-0.003	-0.0008	0.0052	13
0.0015	-0.0023	-0.0053	0.0015	13
0.0052	-0.0008	-0.0113	0	12.9
0.0082	-0.0015	-0.0068	-0.0008	12.8
0.0105	-0.0046	0.0075	0.0007	12.7
0.0075	-0.006	0.0127	0.0007	12.6
0.0052	-0.0053	0.0135	-0.0008	12.6
0	-0.006	0.0157	0	12.5
-0.0068	-0.006	0.009	0.0007	12.5
-0.0046	-0.0046	0.0067	-0.0015	12.4
-0.006	-0.0053	0.0127	-0.0023	12.3
-0.0091	-0.0046	0.024	0.0007	12.2
-0.012	-0.0053	0.0262	0	12.2
-0.015	-0.0046	0.024	-0.0008	12.1
-0.015	-0.003	0.0217	-0.0015	12.1
-0.0143	-0.0046	0.0172	-0.0015	11.9
-0.0128	-0.003	0.0135	-0.003	12
-0.0128	-0.0023	0.0037	-0.0046	12
-0.0128	-0.0015	0.0022	-0.0023	12.1
-0.0083	0	0.0037	-0.0015	12.1
-0.003	-0.0008	0.003	-0.0015	12.1
0.0007	-0.0008	0.0007	-0.0023	12.2
0.0015	-0.0008	-0.0046	-0.0023	12.2
-0.0008	-0.0023	-0.0015	-0.0038	12.3
-0.0015	-0.003	0.003	-0.0053	12.3
-0.0038	-0.0008	0.009	-0.003	12.4
0	0.0022	-0.0008	-0.0053	12.4
0.006	0.0045	-0.0068	-0.006	12.5
0.0075	0.0015	0.0052	-0.003	12.5
0.0082	-0.0008	0.0105	-0.0015	12.6
0.0082	-0.0015	0.0082	-0.003	12.6
0.0097	0.0022	-0.0015	-0.003	12.6
0.0097	0.0015	-0.0046	-0.0023	12.7
0.012	0.0015	0	-0.003	12.7
0.0142	0.003	0	-0.0046	12.8
0.0075	0.0007	-0.003	-0.003	12.8
-0.0015	-0.0015	-0.0135	-0.0023	12.8
-0.0008	0	-0.0323	-0.0046	12.9
0.009	0.0022	-0.0428	-0.0053	12.9
0.021	0.0037	-0.0458	-0.0038	12.9
0.018	0.0052	-0.048	-0.0046	12.9
0.0105	0.0067	-0.0503	-0.0068	12.9
-0.0015	0.009	-0.0533	-0.0068	12.9
-0.0105	0.0082	-0.0518	-0.0038	12.9
-0.003	0.0067	-0.0465	-0.0038	13
0.003	0.009	-0.0436	-0.0046	13
0.009	0.0082	-0.039	-0.003	13
0.0105	0.0067	-0.0405	-0.0046	13
0.0052	0.0037	-0.048	-0.0075	13
0.0105	0.0045	-0.0458	-0.0068	13
0.0157	0.0052	-0.0458	-0.0046	13
0.0165	0.0037	-0.0465	-0.0046	13
0.0262	0.0045	-0.0353	-0.0046	13
0.033	0.0045	-0.024	-0.0046	13
0.0277	0.003	-0.0195	-0.0038	13.1
0.0165	0.0045	-0.0181	-0.003	13.1
0.0142	0.0075	-0.0165	-0.0053	13.1
0.0247	0.0082	-0.0173	-0.0053	13.1
0.03	0.006	-0.0225	-0.0068	13.1
0.024	0.003	-0.0278	-0.0091	13.1
0.0127	0.0015	-0.0225	-0.0038	13.1
0.0037	0.0015	-0.0135	-0.003	13.1
0.0007	0.0007	-0.0098	-0.0038	13.1
-0.0015	0.0007	-0.012	-0.0008	13.1
-0.0038	-0.0015	-0.0165	0	13.1
-0.0008	-0.0008	-0.0203	0	13.1
-0.0015	0.0007	-0.0188	0.0007	13.1
-0.0046	0.0007	-0.0165	0.0007	13.1
-0.0053	0.003	-0.0128	0.0015	13.1
-0.0046	0.0037	-0.0113	0.0022	13.1
-0.0046	0.0045	-0.0105	0.0015	13.1
-0.0023	0.0045	-0.0068	0.0015	13.1
-0.0015	0.0015	-0.0068	0.0022	13.1
-0.0015	0.0007	-0.0023	0.003	13.1
-0.0038	-0.0008	0.003	0.0037	13.1
-0.006	-0.0008	0.0067	0.0045	13.1
-0.0068	-0.0023	0.012	0.0052	13.1
-0.0068	-0.0023	0.0127	0.0067	13
-0.0083	-0.0023	0.0142	0.0052	13
-0.0091	-0.0046	0.0157	0.0037	13
-0.0105	-0.0023	0.012	0.003	13
-0.0091	-0.0008	0.012	0.0045	12.9
-0.0083	-0.0015	0.0127	0.0045	12.9
-0.0075	-0.003	0.0112	0.0045	12.9
-0.0046	-0.0038	0.0105	0.0045	12.8
0.0007	-0.0015	0.0105	0.003	12.8
0.0007	-0.0008	0.0127	0.003	12.7
-0.003	0.0007	0.0112	0.0045	12.7
0.0045	0.0022	0.0082	0.0015	12.7
0.006	0.0007	0.012	0.0015	12.6
0.0052	0.0007	0.0142	0.0015	12.6
0.0007	0.0015	0.018	0.003	12.6
-0.0038	0.0007	0.0195	0.0037	12.5
-0.0038	-0.003	0.0157	0.0007	12.5
-0.006	-0.0075	0.012	0	12.5
-0.0075	-0.0083	0.0172	0.0015	12.4
-0.0105	-0.0075	0.024	0.0022	12.4
-0.0091	-0.0068	0.0277	0.0007	12.3
-0.0068	-0.0068	0.0232	-0.0015	12.3
-0.006	-0.006	0.018	0.0007	12.3
-0.0046	-0.0068	0.0202	0.0022	12.2
-0.0023	-0.0053	0.0217	0.0015	12.2
0	-0.003	0.024	0.0037	12.1
-0.0015	-0.003	0.024	0.0045	12.1
-0.0008	-0.0023	0.0202	0.0045	12.1
0.0022	-0.0008	0.0135	0.0022	12.1
0.0045	0	0.0097	0.0015	12
0.006	0.0015	0.0082	-0.0008	12
0.003	0.0007	0.0067	-0.0023	12
-0.0046	0	0.0037	-0.0015	11.9
-0.0091	0.0007	0.0015	-0.003	11.9
-0.0075	-0.0015	-0.0015	-0.003	11.8
-0.0083	-0.0008	-0.003	-0.0023	11.8
-0.0068	0	0.0045	-0.0008	11.8
-0.0105	-0.0015	0.0075	-0.0008	11.7
-0.0128	-0.0008	0.0075	-0.0015	11.7
-0.0113	-0.0008	0.0052	-0.0008	11.7
-0.0113	-0.0008	0.0045	0.0007	11.7
-0.0046	0	0.0112	0.0015	11.7
-0.0023	-0.0008	0.0172	0.0022	11.6
-0.0008	-0.0023	0.0127	0.0015	11.6
0.0037	-0.0023	0.009	-0.0015	11.6
0.0015	-0.0015	0.0075	-0.0023	11.6
0.0037	-0.0015	0.0067	-0.0015	11.5
0.006	0	0.012	0	11.5
0.0052	-0.0015	0.0135	0	11.5
0.0022	-0.0008	0.0135	0.0007	11.5
-0.0008	0.0007	0.0142	0.0015	11.5
0	0.0007	0.0112	0.0007	11.4
-0.0008	0	0.009	0	11.4
-0.0015	-0.0015	0.0045	-0.0008	11.4
-0.0046	-0.0046	0.0037	-0.0008	11.4
-0.0038	-0.006	0.0067	-0.0015	11.3
-0.003	-0.0053	0.0052	-0.0015	11.3
-0.006	-0.0038	0.009	0	11.3
-0.0075	-0.0046	0.018	0.0022	11.2
-0.0091	-0.0038	0.0255	0.0037	11.2
-0.0091	-0.006	0.0277	0.003	11.2
-0.012	-0.0053	0.0255	0.003	11.2
-0.0105	-0.0046	0.0202	0.003	11.2
-0.0083	-0.003	0.0165	0.003	11.2
-0.0091	-0.0038	0.0202	0.0052	11.2
-0.0098	-0.006	0.0262	0.003	11.2
-0.0105	-0.0083	0.024	0.003	11.2
-0.0053	-0.0068	0.0255	0.0037	11.2
-0.0023	-0.0068	0.0285	0.003	11.2
-0.0053	-0.0068	0.027	0.003	11.2
-0.0053	-0.0068	0.0277	0.003	11.2
-0.0075	-0.006	0.021	0.0022	11.2
-0.0053	-0.003	0.015	0.0007	11.2
-0.0015	-0.0038	0.018	0	11.2
-0.0015	-0.0053	0.0157	0.0015	11.2
0.0007	-0.0015	0.0097	-0.0008	11.2
0.0015	-0.0015	0.0067	-0.0015	11.2
0.0037	0.0015	0.0022	-0.0015	11.2
0.0037	0.003	-0.0008	-0.0015	11.1
0.0022	0.0022	-0.0046	-0.0008	11.1
0.0015	0.003	-0.006	0.0007	11.1
0	-0.0008	0.0007	0.0015	11
-0.0015	-0.0015	0.0082	0.003	11
-0.0038	-0.0046	0.015	0.0045	10.9
-0.006	-0.0075	0.0232	0.0067	10.9
-0.0083	-0.0038	0.027	0.0052	10.9
-0.0046	0	0.0255	0.0037	10.8
0.0007	0.0015	0.0172	0.0037	10.8
0.0052	0.0022	0.009	0.0007	10.7
0.012	0.0045	0.0015	0	10.7
0.0135	0.0045	-0.0053	-0.003	10.7
0.0112	0.0052	-0.0181	-0.0046	10.6
0.009	0.0037	-0.0278	-0.006	10.6
0.009	0.0007	-0.0323	-0.0083	10.5
0.0082	0.003	-0.0413	-0.0098	10.5
0.0142	0.0052	-0.0465	-0.0105	10.5
0.0165	0.0075	-0.0383	-0.0075	10.4
0.0105	0.0037	-0.0248	-0.0046	10.4
0.0067	0.0007	-0.0195	-0.0023	10.3
0.0022	0.0015	-0.0143	-0.0023	10.3
0.0007	0	-0.012	-0.0038	10.3
0.003	0.0015	-0.0158	-0.003	10.2
0.0045	0.0022	-0.0195	-0.003	10.2
0.0075	0.0037	-0.0203	-0.003	10.1
0.0067	0.0045	-0.012	-0.0015	10.1
0.003	0.0015	-0.0068	-0.0015	10.1
0.0015	0.0015	-0.0053	-0.0015	10
0.003	0.0037	-0.0083	-0.0023	10
0.003	0.0052	-0.0105	-0.003	9.9
0.003	0.003	-0.0068	-0.0015	9.9
0	0.0007	-0.0046	-0.0015	9.9
-0.0008	0.0015	-0.0091	-0.0008	9.8
0.003	0.0022	-0.0143	-0.0008	9.8
0.0052	0.0045	-0.0188	-0.003	9.7
0.006	0.0045	-0.0203	-0.003	9.7
0.0052	0.0045	-0.0165	-0.0023	9.7
0.0045	0.0052	-0.0143	-0.0015	9.6
0.0022	0.003	-0.012	-0.0015	9.6
0.0007	-0.0008	-0.0143	-0.0038	9.5
0.0045	0.0015	-0.0203	-0.003	9.5
0.0067	0.003	-0.0225	-0.0023	9.4
0.0082	0.0015	-0.0165	-0.003	9.4
0.0067	0.0007	-0.0105	-0.0023	9.4
0.003	0.0007	-0.0098	-0.0023	9.4
0.0037	0.0015	-0.0105	-0.003	9.3
0.0037	0.0007	-0.0091	-0.0038	9.3
0.003	0.0007	-0.0105	-0.0046	9.2
0.0015	0.0007	-0.0158	-0.0053	9.2
0.003	0.0007	-0.0233	-0.0068	9.1
0.0082	0.003	-0.0278	-0.0068	9.1
0.0112	0.0045	-0.027	-0.006	9.1
0.0105	0.0045	-0.024	-0.0053	9
0.0052	0.0022	-0.0195	-0.0046	9
0.0037	0.0022	-0.0195	-0.003	9
0.0052	0.003	-0.0173	-0.0046	8.9
0.0052	0.0015	-0.0105	-0.0038	8.9
0.0045	0.0007	-0.0083	-0.003	8.9
0.0045	-0.0023	-0.0053	-0.0023	8.8
0.0015	-0.0038	0.0015	-0.0008	8.7
-0.003	-0.0038	0.0022	0.0007	8.7
-0.0015	-0.003	-0.0038	-0.0015	8.7
-0.0015	-0.0015	-0.0113	-0.0015	8.7
0	0.0007	-0.0091	0	8.7
-0.0015	-0.0015	0.0022	-0.0008	8.6
-0.0053	-0.0038	0.0067	-0.0008	8.6
-0.0083	-0.003	0.009	0	8.6
-0.0105	0	0.0105	0.0007	8.5
-0.0091	0.0007	0.0105	0.0007	8.5
-0.0068	-0.0008	0.0082	-0.0008	8.5
-0.0015	0.0015	0.0052	-0.0008	8.5
0.0007	-0.0008	0.0037	-0.0015	8.5
0.0015	-0.0015	0.0015	-0.0023	8.4
0.0015	-0.0008	0.0007	-0.0008	8.4
0.0022	-0.0023	0.0007	0.0007	8.4
0.0007	-0.003	0.0052	0.0007	8.3
-0.0015	-0.003	0.0022	-0.0008	8.3
-0.0015	-0.0015	-0.003	-0.0015	8.3
-0.0023	-0.0015	-0.0053	-0.003	8.3
0	-0.0023	-0.0128	-0.0053	8.2
0.0045	-0.0015	-0.0128	-0.0046	8.2
0.006	-0.0015	-0.0113	-0.0015	8.2
0.0067	0.0007	-0.012	-0.0015	8.2
0.0037	0.0007	-0.0046	-0.0015	8.2
0.0007	0	0.003	0.0007	8.2
0.0007	0	0.0067	0.0007	8.2
-0.0008	0.0007	0.0037	0	8.2
0.0007	0.0015	0.0015	-0.0008	8.1
0.0015	0.0007	0.0015	-0.0008	8.1
0.0022	0.0007	0.0007	-0.0015	8.1
0.0007	-0.0008	0.0045	0	8.1
0.0015	-0.0015	0.0082	0.003	8.1
-0.0015	-0.003	0.012	0.0037	8.1
-0.003	-0.0008	0.0082	0.0015	8.1
-0.0015	0.0015	0.0045	0.0007	8.1
-0.003	-0.0015	0.0052	0.003	8.1
-0.003	-0.003	0.0052	0.0015	8.1
-0.0046	-0.003	0.0067	0.0015	8.1
-0.0053	-0.0008	0.0015	0.0015	8.1
-0.0015	0	0.003	0	8
0.0007	-0.0015	-0.0008	0	8
0.003	-0.0015	-0.0023	0.0007	8
0.0037	-0.0023	0.0022	0.0007	8
0.0015	-0.003	0.0045	0.0022	8
-0.0015	-0.003	0.0075	0.0015	7.9
-0.0046	0.0007	0.0052	0.0007	7.9
-0.003	-0.0008	0.0045	0.003	7.9
-0.003	-0.0008	0.0067	0.0037	7.9
-0.0023	0.0007	0.0082	0.0037	7.8
-0.0023	-0.0015	0.0097	0.003	7.8
-0.0038	-0.003	0.012	0.003	7.8
-0.0068	-0.0046	0.0157	0.006	7.7
-0.0091	-0.006	0.0225	0.0067	7.7
-0.0091	-0.0023	0.015	0.0037	7.7
-0.006	-0.0008	0.0045	0.0015	7.7
-0.0046	-0.0015	0.0045	0.0007	7.6
-0.0015	0.0007	0.006	-0.0008	7.6
-0.0008	0.0015	0.0067	-0.0008	7.6
-0.0015	-0.0015	0.0052	-0.0008	7.6
0.0007	-0.0008	0.0037	0.0007	7.5
0.0007	0	0.009	0.003	7.5
-0.0015	-0.0008	0.0097	0.0037	7.5
-0.003	0.0015	0.0015	0.003	7.5
0	0.003	0.0007	0.0022	7.4
-0.0008	0.0022	0.0007	0.003	7.4
-0.0008	0.0015	-0.003	0.003	7.3
0.0015	0.003	0.0037	0.0022	7.3
0.0022	0.003	0.0045	0.0015	7.3
0.0045	0.003	-0.0008	0.0007	7.2
0.0037	0.0015	-0.0046	0.0007	7.2
0.0045	0.0007	-0.0068	-0.0008	7.2
0.003	0.0007	0.0007	0.0007	7.1
0.0007	0.0007	0.0007	-0.0008	7.1
0.0007	0.0007	-0.0008	-0.0015	7.1
0.0015	-0.0015	0.0045	-0.0008	7
0	-0.0023	0.0067	0	7
-0.0015	-0.0008	0.0052	0.0015	6.9
-0.003	-0.0015	0.0052	-0.0008	6.9
-0.0038	-0.0023	0.0105	-0.0008	6.9
-0.0038	-0.0023	0.0082	-0.0015	6.8
-0.003	-0.0023	0.0022	-0.003	6.8
0.0007	-0.0015	-0.0008	-0.0015	6.7
0.0007	-0.003	-0.003	-0.0008	6.7
-0.0008	-0.0038	-0.0015	0	6.7
0.0015	-0.0015	0	0.0007	6.7
-0.0008	-0.003	0.003	0.0015	6.6
0.0007	-0.003	0.0045	0.0015	6.6
0.0022	-0.0015	0.003	0.0007	6.6
0.0022	-0.0015	0.0045	0.0015	6.5
0	-0.0015	0.0082	0.0022	6.5
-0.0038	-0.0015	0.0045	0.0007	6.4
-0.0008	-0.0008	0	-0.0023	6.4
0.0007	-0.0015	0.0045	-0.0015	6.4
0.003	0	0.003	-0.0008	6.3
0.0037	0.0015	-0.0046	-0.0008	6.3
0.0067	0.0015	-0.0015	0.0007	6.3
0.0067	0.0007	-0.003	-0.0015	6.2
0.006	0.0015	-0.0068	-0.0008	6.2
0.003	0	-0.0015	0.0007	6.2
-0.0008	-0.0015	0	0.0007	6.1
0	0.0007	0.0007	0.0015	6.1
0	0.0015	0.0007	0.0007	6
-0.0015	-0.0015	0.006	0	6
-0.0046	-0.0015	0.0082	0	6
-0.0038	-0.0023	0.0082	0.0015	5.9
-0.003	-0.0015	0.0135	0.0037	5.9
-0.0053	-0.003	0.0195	0.0045	5.8
-0.006	-0.0053	0.0165	0.0015	5.8
-0.003	-0.003	0.0045	0.0007	5.8
-0.0015	-0.0023	0.0082	0.0007	5.8
-0.0023	-0.0053	0.0097	-0.0015	5.7
-0.0023	-0.0046	0.0067	0.0007	5.7
-0.0023	-0.0015	0.0052	0.0007	5.7
-0.003	-0.0008	-0.0008	0	5.6
-0.0015	-0.0008	-0.0015	0	5.6
-0.0008	-0.0008	-0.0023	-0.0023	5.5
0.0007	0.0007	-0.0038	-0.0015	5.5
0.0007	-0.0008	-0.006	-0.0008	5.5
0.003	0.0015	-0.006	0.0007	5.4
0.0052	0.0022	-0.0015	0.0015	5.3
0.0052	0.0007	-0.0008	0.0015	5.3
0.003	0.0007	0.0022	0.0015	5.3
0.003	0	-0.0083	-0.0015	5.3
0.0082	0.003	-0.0233	-0.0046	5.3
0.009	0.0037	-0.0143	-0.0008	5.2
0	0.0007	0.0015	0.0022	5.2
-0.0046	0.0007	0.0045	0.0022	5.2
-0.0046	-0.0023	0.012	0.0045	5.1
-0.0083	-0.0053	0.0255	0.0067	5.1
-0.012	-0.0083	0.033	0.0082	5.1
-0.0128	-0.0068	0.033	0.0067	5
-0.0091	-0.0046	0.027	0.0045	5
-0.0083	-0.006	0.0202	0.0015	5
-0.0046	-0.006	0.0127	0.0007	4.9
-0.0015	-0.003	0.0082	-0.0015	4.9
0	-0.0015	0.0067	-0.0008	4.9
0.0007	-0.0015	0.0045	-0.0008	4.9
0.0015	0.0007	0.0015	-0.003	4.8
0.0015	0.0007	0.0015	-0.0015	4.8
0.0015	0.0007	-0.003	-0.0015	4.7
0.0015	0.0037	-0.0098	-0.0053	4.7
0.003	0.0045	-0.0098	-0.0053	4.7
0.0037	0.003	-0.0083	-0.0023	4.7
0.0007	0.0007	-0.0068	-0.0015	4.7
0.0022	0.0007	-0.0105	-0.0023	4.6
0.0082	0.003	-0.0165	-0.0046	4.6
0.0105	0.0045	-0.0233	-0.0038	4.6
0.012	0.0052	-0.0218	-0.0023	4.5
0.0082	0.0045	-0.0165	-0.003	4.5
0.0052	0.0015	-0.012	-0.0015	4.5
0.0045	0.0015	-0.0113	-0.0015	4.5
0.003	0.0015	-0.0105	-0.0046	4.5
0.0037	0.003	-0.0091	-0.0046	4.4
0.003	0.0037	-0.0105	-0.0046	4.4
0.0007	0.0037	-0.0091	-0.0046	4.4
0.0015	0.0045	-0.0038	-0.003	4.3
-0.0008	0.0007	0.0015	-0.003	4.3
-0.003	0.0007	0.0022	-0.0008	4.3
-0.003	0.0022	0.0007	0.0007	4.3
-0.0038	-0.0008	0.0015	0	4.2
-0.003	-0.0015	0.0052	-0.0008	4.2
-0.0046	-0.0015	0.006	-0.0008	4.2
-0.003	-0.0023	0.0067	0.003	4.2
-0.0015	-0.0053	0.0105	0.0045	4.2
-0.0015	-0.0083	0.0112	0.0082	4.2
-0.0046	-0.0075	0.012	0.0052	4.2
-0.003	-0.0075	0.009	-0.0015	4.2
-0.0008	-0.006	0.0045	-0.0046	4.2
0.003	-0.003	-0.0023	-0.0053	4.2
0.0075	0.0022	-0.0105	-0.0075	4.2
0.009	0.0007	-0.0113	-0.0083	4.2
0.0105	-0.0008	-0.0143	-0.0091	4.2
0.012	0.0015	-0.0203	-0.0128	4.2
0.0105	0.0022	-0.0181	-0.012	4.2
0.009	0.0037	-0.0203	-0.0083	4.2
0.0082	0.003	-0.0233	-0.0068	4.2
0.009	0.0052	-0.0285	-0.0068	4.2
0.012	0.0067	-0.03	-0.0038	4.2
0.0105	0.006	-0.0256	-0.0023	4.2
0.0097	0.006	-0.0293	-0.0023	4.1
0.0097	0.0075	-0.033	-0.0015	4.1
0.0082	0.0082	-0.0278	-0.0023	4.2
0.009	0.0067	-0.027	-0.0015	4.2
0.0082	0.0052	-0.024	-0.0008	4.2
0.0082	0.0045	-0.021	-0.0015	4.2
0.0067	0.0045	-0.0218	0	4.3
0.0052	0.0052	-0.0181	0.0015	4.3
0.0045	0.0045	-0.0181	-0.0008	4.3
0.003	0.006	-0.024	-0.003	4.3
0.0052	0.006	-0.0225	-0.0046	4.4
0.0052	0.0037	-0.0181	-0.0038	4.4
0.006	0.003	-0.0165	-0.0038	4.4
0.0052	0.0022	-0.0105	-0.0023	4.4
0.0022	0.0007	0.0015	0	4.4
0.0007	-0.0015	0.0007	-0.0008	4.5
-0.0015	-0.003	0.0015	-0.0008	4.5
-0.0015	-0.0023	0.0067	0	4.5
-0.003	-0.0023	0.0052	-0.0008	4.5
-0.0015	-0.003	0.0037	-0.0008	4.5
-0.0053	-0.003	0.0097	-0.0008	4.5
-0.0053	-0.0023	0.0127	0	4.6
-0.0053	-0.003	0.0112	0.0022	4.6
-0.0083	-0.0053	0.0202	0.0015	4.6
-0.0075	-0.006	0.0202	0.0022	4.7
-0.0068	-0.0068	0.0165	0.0022	4.7
-0.0068	-0.0068	0.0217	0.003	4.7
-0.0075	-0.0046	0.0172	0.0045	4.8
-0.0083	-0.0046	0.018	0.0052	4.8
-0.0083	-0.0046	0.0202	0.0045	4.9
-0.0083	-0.003	0.0172	0.0022	4.9
-0.0083	-0.0038	0.0172	0.003	4.9
-0.0083	-0.0038	0.015	0.003	4.9
-0.0068	-0.0046	0.012	0.0015	5
-0.006	-0.0046	0.012	0.0007	5
-0.0053	-0.0038	0.0127	0.0007	5
-0.006	-0.0038	0.0097	0.0007	5.1
-0.0046	-0.0015	0.009	-0.0008	5.1
-0.003	0	0.006	-0.0008	5.1
-0.0023	0.0007	0.0045	-0.0008	5.2
0	0.0007	0.006	-0.0023	5.2
-0.0015	0	0.0075	-0.0008	5.3
-0.0046	0.0007	0.009	-0.0008	5.3
-0.003	0	0.0097	0.0007	5.3
-0.0015	-0.0008	0.0082	0.0015	5.4
-0.0008	0	0.0067	0.0015	5.4
0.0015	0.0007	0.0015	0	5.5
0.003	0	0	-0.0008	5.5
0.0037	0.0007	-0.0015	0.0007	5.6
0.0022	0.0022	-0.0046	0.0015	5.6
0.0045	0.003	-0.0068	-0.0008	5.7
0.0052	0.0015	-0.0068	0.0007	5.7
0.0022	0.0007	-0.0023	-0.0008	5.8
0.003	0.0007	0.0007	0	5.8
0.0037	0.0007	0	0.0015	5.8
0.0015	0.0007	-0.0023	0.0015	5.9
0.0022	-0.0008	-0.0053	0.0015	5.9
0.003	-0.0008	-0.0046	0.0007	6
0.0045	-0.0008	-0.0015	0.0007	6
0.0067	0	-0.0038	0	6.1
0.0067	0.0015	-0.006	0	6.1
0.0052	0.0015	-0.0068	-0.0015	6.2
0.006	0.0007	-0.0105	-0.0023	6.3
0.0052	0.0007	-0.0083	-0.003	6.3
0.006	0.0007	-0.006	-0.0023	6.3
0.0052	0.003	-0.003	-0.0015	6.4
0.0022	0.003	0.0015	-0.003	6.5
0.0015	0.0015	0.0007	-0.0023	6.5
0.0015	0.0022	0.0007	-0.003	6.6
0.0022	0.003	-0.0008	-0.0008	6.7
0.0015	0.0015	-0.0053	0.0007	6.7
0.0007	0.0015	-0.0091	-0.0015	6.7
0.0022	0.0007	-0.0128	-0.0008	6.8
0.0015	-0.0015	-0.0113	-0.0008	6.9
0	-0.003	-0.0113	0.0007	6.9
0.0015	-0.0046	-0.0105	0.0022	7
0.0015	-0.0046	-0.0075	0.0015	7.1
0.0007	-0.003	-0.0091	0.0015	7.1
0.0015	-0.0023	-0.0083	0	7.2
0.0007	-0.0008	-0.0083	-0.0015	7.2
0.0007	0	-0.0105	-0.0008	7.3
0.0007	0.0007	-0.0105	-0.0015	7.4
0.0007	-0.0008	-0.0143	-0.0015	7.4
0.003	-0.0008	-0.0135	-0.0015	7.5
0.0015	-0.0008	-0.0083	-0.0008	7.6
0.0007	0.0015	-0.0053	-0.0008	7.6
0.003	0.0045	0.0007	0	7.7
0.0007	0.0007	0.0015	0.0022	7.8
-0.0015	-0.0008	0.003	0.0052	7.9
-0.0015	-0.0023	0.0037	0.0052	8
-0.003	-0.0023	0.0045	0.0045	8.1
-0.0008	-0.003	0.006	0.003	8.1
-0.0015	-0.0015	0.0052	0.0022	8.2
-0.0008	-0.0008	0.0045	0.0022	8.2
-0.0015	-0.0023	0.0037	0.003	8.3
0.0007	0	0.003	0.0015	8.4
-0.0008	0.0015	0.0045	0.0015	8.5
-0.0038	0.0007	0.0052	0.0015	8.5
-0.0008	0.0007	0.0075	0.0015	8.6
-0.0038	0.003	0.0052	-0.0008	8.7
-0.0068	0.0015	0.0052	-0.0015	8.8
-0.0046	-0.0008	0.0082	-0.0015	8.9
-0.006	-0.0008	0.0075	0.0007	9
-0.006	-0.0015	0.0052	0.0015	9.1
-0.0068	-0.0008	0.0037	0.0007	9.2
-0.0068	-0.0008	0.0045	0.0015	9.3
-0.0046	0	0.0052	0.003	9.4
-0.0038	-0.0015	0.0075	0.0045	9.5
-0.0046	-0.0046	0.0112	0.0052	9.6
-0.0046	-0.0038	0.012	0.0045	9.7
-0.003	-0.006	0.0082	0.003	9.8
0.0007	-0.0046	0.0045	0.0015	9.9
-0.0015	-0.0015	-0.0008	0	10
-0.0015	-0.0008	-0.0046	-0.0015	10.1
-0.003	0.0007	-0.0053	-0.0046	10.2
-0.0038	-0.0008	-0.0053	-0.003	10.3
-0.003	0.0007	-0.0015	-0.003	10.4
-0.0023	0.0007	0.0007	-0.003	10.5
-0.0008	-0.0008	0	-0.0008	10.6
-0.0008	0.0007	-0.0053	0	10.7
0.0007	0	-0.006	-0.0008	10.8
-0.0015	-0.003	0.0045	0	10.9
-0.0075	-0.0053	0.0127	0	11.1
-0.0075	-0.0068	0.0142	0.0015	11.2
-0.0053	-0.003	0.0105	0.003	11.4
-0.003	-0.0008	0.0075	0.0022	11.5
-0.0008	0.0015	0.009	0.003	11.7
-0.0008	0.003	0.0105	0.003	11.8
0.0007	0.0022	0.0067	0.0015	12
0.0015	0.0022	0.0022	0	12.1
0	-0.0015	0.0142	0.0007	12.2
-0.003	-0.0046	0.0195	-0.0008	12.4
-0.003	-0.0046	0.018	-0.0023	12.5
-0.0053	-0.0046	0.0217	-0.003	12.7
-0.003	-0.0015	0.009	-0.0038	12.8
0.0007	0.0007	0.0082	0.0007	13
-0.0023	-0.0038	0.021	0.0052	13.1
-0.0046	-0.0046	0.018	0.0045	13.2
-0.003	-0.003	0.0112	0.003	13.4
-0.0015	-0.0015	0.015	0.0045	13.5
-0.0023	-0.0008	0.0172	0.0052	13.7
-0.0015	-0.0038	0.018	0.0052	13.9
-0.003	-0.0068	0.027	0.0067	14
-0.0015	-0.0053	0.0165	0.0045	14.2
0.006	-0.0023	0.0045	0.003	14.4
0.0082	-0.0008	0.0045	0.0045	14.6
0.0052	-0.0008	0.006	0.0045	14.8
0.0045	0.0007	0.0075	0.003	14.9
0.0037	0.0015	0.0052	-0.0008	15.1
0.0037	0.003	0.003	-0.003	15.3
0.006	0.0082	-0.003	-0.006	15.5
0.003	0.0105	-0.003	-0.0038	15.7
0.0037	0.0142	-0.0165	-0.0023	15.9
0.009	0.0157	-0.027	0	16.1
0.0067	0.0097	-0.0233	0.0007	16.2
0.009	0.003	-0.03	-0.0083	16.4
0.0075	-0.0023	-0.027	-0.012	16.6
0.0067	-0.0143	-0.033	-0.0158	16.8
0.0112	-0.024	-0.039	-0.0165	17
0.0105	-0.021	-0.039	-0.0128	17.1
0.0127	-0.0143	-0.0458	-0.012	17.3
0.0142	-0.0068	-0.042	-0.0091	17.5
0.0157	-0.003	-0.0495	-0.0083	17.8
0.015	0.0015	-0.0473	-0.0091	18
0.0127	0.006	-0.0428	-0.0075	18.2
0.012	0.0075	-0.039	-0.0068	18.5
0.0075	0.0202	-0.0353	-0.0038	18.7
0.0052	0.042	-0.0323	0	18.9
0.003	0.0465	-0.0195	-0.0008	19.2
0.0022	0.0232	-0.0143	-0.0053	19.4
0.0022	0.0067	-0.0083	-0.0046	19.6
-0.0008	-0.0046	-0.0008	-0.0046	19.8
-0.0023	-0.0128	-0.0015	-0.0053	20.1
-0.0046	-0.0098	0.0015	-0.0015	20.3
-0.003	-0.012	0.0052	-0.0008	20.5
-0.0053	-0.0091	0.0075	0.0007	20.8
-0.0053	-0.0098	0.009	-0.0008	21
-0.0015	-0.0075	0.0045	-0.0008	21.2
0	-0.0038	0.0022	-0.0015	21.5
0.0015	-0.0046	0.0045	0.0007	21.7
0.0015	-0.0008	0.0052	0.0015	21.9
0.0007	0.0007	0.0082	0.0015	22.2
0.0007	-0.0008	0.0075	0.0007	22.5
-0.0008	0.0007	0.0045	-0.0008	22.7
-0.0008	0.003	0.0037	0.0007	23
-0.0008	0.0015	0.0045	0.0007	23.3
-0.0015	0.0007	0.0067	0	23.5
-0.0015	0.0007	0.0075	0.0022	23.8
-0.0008	-0.0008	0.0052	0.0015	24.1
0.0007	0.0015	0.0045	-0.0015	24.3
0.0007	0.0037	0.0037	-0.0008	24.6
0	0.0037	0.0037	0.0007	24.9
-0.0015	0.003	0.006	0.0007	25.2
-0.0015	0.0045	0.0037	0.003	25.4
-0.0015	0.0045	0.0067	0.003	25.7
-0.0008	0.003	0.0105	0.0015	26
-0.0008	0.0022	0.0165	0.003	26.2
-0.0015	-0.0008	0.0202	0.0015	26.5
-0.0015	-0.0015	0.027	0.003	26.8
-0.0091	-0.0046	0.039	0.006	27
-0.012	-0.006	0.048	0.0075	27.3
-0.015	-0.0068	0.0622	0.0105	27.5
-0.0203	-0.0091	0.072	0.009	27.8
-0.0218	-0.012	0.0735	0.009	28
-0.0233	-0.0135	0.075	0.0127	28.3
-0.0203	-0.0143	0.072	0.012	28.5
-0.0181	-0.012	0.0652	0.009	28.7
-0.015	-0.0091	0.0562	0.0067	28.9
-0.0091	-0.0068	0.0495	0.0067	29.2
-0.0068	-0.0053	0.045	0.006	29.4
-0.0068	-0.0053	0.0367	0.0022	29.7
-0.0091	-0.0053	0.027	-0.0008	29.9
-0.0053	-0.003	0.0157	0	30.1
-0.003	-0.0053	0.0217	0.0015	30.3
-0.0053	-0.0083	0.0345	0.003	30.6
-0.0068	-0.0098	0.0345	0.0045	30.8
-0.0068	-0.0083	0.0322	0.0045	31
-0.0046	-0.0068	0.0277	0.003	31.3
-0.0023	-0.0068	0.0217	0.0022	31.5
0	-0.006	0.0165	0.0007	31.7
0.0007	-0.0053	0.0105	-0.0008	31.9
0.0022	-0.003	-0.0015	-0.003	32.1
0.0037	-0.0015	-0.0046	-0.003	32.4
0.0037	-0.0015	-0.0091	-0.003	32.5
0.0067	0.0007	-0.0143	-0.003	32.7
0.009	0.0045	-0.015	-0.0015	32.9
0.0112	0.0082	-0.0278	-0.0053	33.1
0.0135	0.0105	-0.0375	-0.0068	33.3
0.0142	0.0097	-0.045	-0.0083	33.5
0.0127	0.0082	-0.0473	-0.0098	33.7
0.0135	0.009	-0.0503	-0.0091	33.9
0.0142	0.0097	-0.0473	-0.0091	34.1
0.0127	0.0082	-0.0436	-0.0098	34.3
0.0142	0.009	-0.0495	-0.0098	34.5
0.0165	0.0082	-0.0503	-0.0098	34.6
0.0157	0.0067	-0.0533	-0.0113	34.9
0.0165	0.0082	-0.0555	-0.0113	35.1
0.0142	0.0067	-0.048	-0.0105	35.2
0.0135	0.0067	-0.048	-0.0105	35.4
0.015	0.006	-0.0428	-0.0113	35.6
0.0105	0.0045	-0.0293	-0.0105	35.8
0.0082	-0.0008	-0.0233	-0.0091	36
0.0067	-0.0015	-0.0225	-0.0083	36.3
0.0082	-0.0008	-0.0256	-0.0091	36.5
0.0067	-0.0008	-0.0225	-0.0091	36.7
0.0007	-0.0015	-0.0143	-0.0075	36.9
0.0007	-0.0015	-0.0098	-0.006	37.2
0	-0.0008	-0.0128	-0.0083	37.4
0.0015	-0.0008	-0.0158	-0.0091	37.6
0.0007	-0.0008	-0.0143	-0.006	37.8
0.0015	0.0015	-0.0195	-0.0053	38.1
0.0052	0.003	-0.015	-0.0046	38.2
0.0037	0.0015	-0.0053	0.0007	38.5
0.0015	0.0037	0.0045	0.0022	38.7
-0.0015	0.0045	0.0105	0.0015	38.9
-0.0015	0.0045	0.0067	0.0007	39.1
-0.0023	0.003	0	-0.003	39.4
-0.0015	0.0045	-0.0053	-0.003	39.6
0	0.0052	-0.0113	-0.0023	39.8
0.003	0.0067	-0.0181	-0.0038	40
0.0052	0.0052	-0.0188	-0.0015	40.3
0.0045	0.0045	-0.0233	-0.003	40.5
0.0082	0.0045	-0.027	-0.0015	40.7
0.0067	0.003	-0.0225	0.0007	40.9
0.0045	0.003	-0.0203	0.0007	41.1
0.003	0.0007	-0.0181	0.0015	41.4
0.003	-0.0023	-0.0158	0.0015	41.6
0.0015	-0.003	-0.012	0	41.8
-0.0008	-0.006	-0.0083	-0.0008	42
-0.0008	-0.0068	-0.0053	0.0007	42.2
-0.003	-0.0091	0.0067	0.0022	42.4
-0.0068	-0.0113	0.0157	0.0045	42.7
-0.0113	-0.0105	0.0217	0.0067	42.9
-0.0158	-0.0105	0.0255	0.0052	43.1
-0.0143	-0.0105	0.0285	0.006	43.3
-0.0143	-0.0113	0.0345	0.006	43.5
-0.0128	-0.0113	0.0367	0.0067	43.7
-0.0128	-0.0091	0.0352	0.0082	44
-0.0105	-0.0083	0.033	0.0067	44.1
-0.0053	-0.0046	0.0255	0.0037	44.4
-0.0038	-0.003	0.0232	0.003	44.6
-0.0046	-0.0038	0.027	0.0052	44.8
-0.0068	-0.003	0.0217	0.003	45
-0.0046	-0.0023	0.0157	0.0007	45.2
-0.003	-0.0015	0.0142	0.0015	45.4
-0.0038	-0.0008	0.012	0.0015	45.6
-0.0015	0.0015	0.012	0.0022	45.8
-0.0046	0.0015	0.009	0.003	46
-0.0083	0.0022	0.0097	0.0022	46.2
-0.0068	0.0022	0.009	0.0015	46.4
-0.006	0.0022	0.0045	0.003	46.6
-0.003	0.003	0.0045	0.003	46.8
0.0015	0.006	-0.0023	0.0015	47
0.003	0.0075	-0.0113	0.0015	47.2
0.006	0.0075	-0.0143	-0.0008	47.4
0.0067	0.0045	-0.0165	-0.0015	47.6
0.0075	0.0037	-0.0188	-0.0046	47.8
0.009	0.0022	-0.0233	-0.0068	48.1
0.0105	0.0015	-0.0256	-0.0075	48.2
0.009	0.003	-0.0256	-0.0075	48.5
0.009	0.0052	-0.0278	-0.0053	48.6
0.0127	0.0075	-0.024	-0.0015	48.8
0.0105	0.009	-0.0173	-0.0008	49
0.009	0.0082	-0.0181	-0.0023	49.2
0.0097	0.0082	-0.0233	-0.0046	49.4
0.0112	0.0067	-0.0285	-0.0068	49.5
0.0112	0.0037	-0.0285	-0.0075	49.7
0.0112	0.003	-0.0256	-0.0068	49.9
0.0105	0.0037	-0.0218	-0.006	50.1
0.0067	0.0067	-0.0218	-0.0068	50.3
0.0082	0.009	-0.027	-0.0053	50.4
0.0097	0.0105	-0.03	-0.0023	50.6
0.0112	0.0105	-0.0256	-0.0015	50.8
0.0082	0.009	-0.0188	-0.0008	50.9
0.006	0.0052	-0.0165	0.0022	51.1
0.0045	0.0015	-0.012	0.0015	51.3
0.003	-0.003	-0.012	0.0007	51.5
0.0037	-0.006	-0.0128	0.0007	51.7
0.0022	-0.0083	-0.0053	0	51.8
0.0045	-0.006	-0.003	0.0007	52
0.0015	-0.0068	0.003	0.0037	52.2
0.0007	-0.0105	0.0105	0.0045	52.3
-0.0008	-0.0128	0.0142	0.0052	52.5
-0.0053	-0.0128	0.0195	0.0037	52.6
-0.0091	-0.015	0.0225	0.0045	52.7
-0.012	-0.015	0.0255	0.0052	52.8
-0.0128	-0.012	0.0307	0.0045	53
-0.0135	-0.0091	0.0337	0.0075	53.1
-0.015	-0.0083	0.0352	0.0082	53.2
-0.0143	-0.0075	0.033	0.0082	53.4
-0.0128	-0.0053	0.03	0.009	53.5
-0.0143	-0.003	0.0292	0.0082	53.6
-0.0113	-0.0008	0.0307	0.009	53.7
-0.0091	-0.0015	0.033	0.012	53.9
-0.0105	-0.003	0.0382	0.012	54
-0.0098	-0.0046	0.0427	0.0135	54.1
-0.012	-0.0046	0.0465	0.0165	54.3
-0.012	-0.0023	0.0502	0.018	54.4
-0.0105	-0.003	0.0472	0.018	54.5
-0.0091	-0.0053	0.0457	0.0165	54.6
-0.0091	-0.0053	0.0427	0.0157	54.8
-0.0083	-0.0023	0.0367	0.0135	54.9
-0.0083	-0.0046	0.0322	0.0097	55
-0.0083	-0.0053	0.0277	0.0067	55.1
-0.0075	-0.0046	0.0225	0.0052	55.2
-0.0053	-0.0023	0.018	0.0045	55.3
-0.0015	-0.0008	0.0127	0.0007	55.3
-0.0008	-0.0015	0.0067	0.0007	55.5
-0.0015	-0.0023	0.0045	0	55.6
-0.0015	0.0022	-0.006	-0.0015	55.7
0.0037	0.0067	-0.012	-0.0015	55.8
0.0075	0.0075	-0.0113	-0.003	55.9
0.006	0.0052	-0.0128	-0.0046	56
0.0067	0.003	-0.0135	-0.0046	56.1
0.006	0	-0.0173	-0.0038	56.2
0.003	-0.006	-0.0165	-0.0046	56.3
0.0015	-0.0053	-0.0181	-0.0046	56.4
0.0022	0.0007	-0.0195	-0.003	56.5
0.0045	0.0007	-0.0135	-0.0023	56.6
0.0052	0.0015	-0.0158	-0.003	56.7
0.003	0.0037	-0.0165	-0.0046	56.8
0.0045	0.006	-0.015	-0.0015	56.8
0.0045	0.0157	-0.0158	-0.0023	56.9
0.003	0.0232	-0.0158	-0.0046	56.9
0.003	0.0217	-0.0165	-0.0068	57
0.0045	0.0187	-0.015	-0.0091	57
0.0067	0.009	-0.0165	-0.015	57.1
0.0082	0.003	-0.0173	-0.0165	57.1
0.0067	0.0022	-0.0128	-0.0098	57.1
0.003	-0.0008	-0.0091	-0.0083	57.2
0.0015	-0.0015	-0.0053	-0.0091	57.2
0.0022	-0.0053	-0.0068	-0.0091	57.2
0.0022	-0.0091	-0.0083	-0.006	57.3
0.0007	-0.0075	-0.0083	-0.0046	57.3
0.0015	-0.0053	-0.0068	-0.0053	57.4
0.003	-0.0038	-0.0038	-0.003	57.4
0.0037	0.0007	-0.003	-0.003	57.5
0.0045	0.0045	-0.0008	0.0007	57.5
0.0082	0.0022	0.003	0.0037	57.6
0.0097	0.0015	0.0052	0.0067	57.6
0.0082	0.0022	0.0082	0.0045	57.6
0.0052	-0.0008	0.0067	0.0007	57.6
0.0007	-0.0038	0	-0.0015	57.6
-0.0046	-0.0053	-0.0046	-0.0053	57.6
-0.006	-0.0053	0.0015	-0.0053	57.6
-0.0075	-0.0046	0.003	-0.0015	57.6
-0.0083	-0.0038	0.0022	0.0007	57.6
-0.0083	-0.0046	0.0052	-0.0008	57.6
-0.0083	-0.0053	0.009	-0.0008	57.6
-0.0075	-0.0083	0.0105	-0.0015	57.6
-0.0075	-0.0091	0.0127	-0.0008	57.6
-0.0091	-0.0068	0.0195	0.0015	57.6
-0.0105	-0.0053	0.018	0.0007	57.5
-0.0083	-0.003	0.0172	0.0022	57.5
-0.0083	-0.0038	0.0187	0.0037	57.5
-0.0075	-0.0046	0.0142	0.003	57.5
-0.0053	-0.0053	0.0142	0.0022	57.5
-0.003	-0.0068	0.012	0.0022	57.5
-0.0015	-0.0046	0.0082	0.0022	57.5
0	-0.0023	0.0082	0.003	57.4
0.0015	0.0015	0.0067	0.0052	57.4
0.0007	0.0015	0.0082	0.0082	57.3
0.003	0.0007	0.009	0.0067	57.3
0.006	0	0.003	0.0037	57.2
0.0082	0.0022	-0.0008	0.0007	57.1
0.0097	0.0052	-0.003	-0.0038	57.1
0.0097	0.0037	-0.0068	-0.0053	57
0.0082	0.0045	-0.012	-0.0008	56.9
0.0045	0.0015	-0.0083	0.0045	56.8
0.003	0.0015	-0.0068	0.0015	56.7
0.0045	0.003	-0.0091	-0.0068	56.7
0.003	0.0007	-0.0046	-0.0143	56.6
0.0045	-0.0008	-0.0015	-0.015	56.5
0.0045	-0.0008	0	-0.0075	56.5
0.0022	0.0007	-0.0015	-0.0046	56.4
0.0015	0.0007	-0.0046	-0.003	56.3
-0.0023	-0.0008	-0.0046	0.0015	56.2
-0.0008	-0.0015	-0.0053	0.0082	56.2
-0.0008	-0.0046	-0.0023	0.0127	56.1
-0.0038	-0.003	-0.0068	0.0075	56
-0.0008	-0.0015	-0.0091	0.0015	55.9
0	-0.0008	-0.012	-0.0015	55.8
0.0037	0.0015	-0.0248	-0.0083	55.7
0.0075	0.0007	-0.0323	-0.0105	55.5
0.0105	0.0037	-0.0308	-0.0105	55.4
0.0112	0.0037	-0.0278	-0.0083	55.3
0.0097	0.0015	-0.0256	-0.0023	55.1
0.0082	0.0007	-0.0173	0.0015	55
0.0045	0	-0.0068	0.0015	54.9
0.0052	-0.0008	0.0037	-0.0008	54.7
0.0052	0.0007	0.0142	-0.003	54.6
0.0067	0.0045	0.0202	0.0045	54.4
0.0045	0.0052	0.0187	0.0067	54.3
-0.0008	0.003	0.0157	0.0007	54.2
-0.0023	0.0007	0.0112	0.0015	54
-0.0053	0.0007	0.0082	0.0015	53.9
-0.0053	-0.0008	0.009	0.0007	53.8
-0.0068	0.0007	0.0067	0.0052	53.6
-0.0053	0	0.0045	0.009	53.5
-0.0046	-0.003	0.0045	0.0075	53.4
-0.0083	-0.0038	0.009	0.0052	53.2
-0.0091	-0.0053	0.015	0.0007	53.1
-0.012	-0.006	0.018	-0.0023	52.8
-0.0128	-0.0046	0.0165	0.0007	52.6
-0.0105	-0.0038	0.0142	0.003	52.5
-0.0068	-0.0038	0.0067	0.0037	52.2
-0.0015	-0.0023	-0.0053	0.003	52.1
0.0045	-0.0008	-0.0091	0.003	51.9
0.0045	0.0007	-0.0023	0.003	51.7
0.0015	-0.0008	0.0007	0.0007	51.5
0.0007	-0.0015	0.0007	0.0015	51.3
0.0015	0	0	-0.0068	51.1
0.0015	0	-0.0053	-0.0195	50.9
0.003	0.0015	-0.012	-0.0218	50.7
0.0067	0.0052	-0.0143	-0.0158	50.5
0.009	0.0075	-0.0203	-0.0068	50.3
0.0105	0.0082	-0.027	0.0007	50.1
0.0127	0.006	-0.0256	0.0127	49.9
0.0127	0.0015	-0.0218	0.0157	49.8
0.012	-0.0015	-0.0233	0.009	49.5
0.0112	0.0022	-0.0263	0.0015	49.3
0.0127	0.0045	-0.0323	-0.0068	49.1
0.0165	0.0052	-0.0361	-0.0083	48.9
0.018	0.0082	-0.0353	-0.0083	48.6
0.0157	0.0052	-0.033	-0.0091	48.4
0.0127	0.0052	-0.03	-0.0091	48.1
0.0097	0.003	-0.0218	-0.0091	47.8
0.0067	0.0015	-0.0181	-0.0068	47.6
0.0045	0.0015	-0.0158	-0.0046	47.3
0.0015	0.0007	-0.0105	-0.0046	47.1
0	0.0022	-0.0105	-0.0083	46.8
-0.0023	0.0052	-0.0053	-0.0165	46.6
-0.0046	0.0045	-0.0008	-0.021	46.3
-0.0046	0.0045	0.0007	-0.015	46.1
-0.0023	0.0037	0.0037	-0.0143	45.9
0	0	0.0022	-0.012	45.6
0	-0.0008	0.0015	0.0067	45.3
-0.0008	-0.0046	0.0052	0.0157	45.1
-0.0008	-0.0053	0.009	-0.0023	44.8
-0.0023	-0.0046	0.012	-0.0128	44.6
-0.003	-0.006	0.0157	0.003	44.3
-0.003	-0.0015	0.0157	0.012	44
-0.003	0.003	0.0112	0.018	43.7
-0.0008	0.0022	0.0082	0.024	43.4
0.0007	-0.0038	0.0082	0.0142	43.1
-0.003	-0.0068	0.0105	0.0097	42.8
-0.0068	-0.006	0.0127	0.0045	42.5
-0.0075	-0.0046	0.0127	-0.0083	42.3
-0.0053	0	0.009	-0.0068	41.9
-0.0068	-0.0008	0.009	0.0052	41.7
-0.0075	-0.0023	0.009	0.0142	41.4
-0.0046	-0.0015	0.006	0.009	41
-0.0053	0	0.0082	0.0022	40.8
-0.006	0.0022	0.0015	0.0007	40.5
-0.0046	0.0037	-0.0046	-0.0038	40.2
-0.0046	0.0037	-0.0046	-0.0098	39.9
-0.0015	0.003	-0.0083	-0.0128	39.6
-0.0008	0.0015	-0.003	-0.0098	39.3
0	-0.0008	-0.0008	-0.012	39
0	-0.0008	-0.0015	-0.012	38.7
0.0007	-0.0046	0.0007	0.0037	38.3
0	-0.0083	0.006	0.0255	38.1
-0.0015	-0.0068	0.0052	0.0217	37.8
-0.003	-0.003	0.003	0.009	37.4
-0.0023	0.0022	0.0045	-0.0008	37.1
0.0015	0.0052	0.0067	-0.027	36.8
0.003	0.0067	0.009	-0.033	36.5
0.0037	0.0015	0.0082	-0.0135	36.2
0.0022	-0.0053	0.009	-0.0083	35.9
0.003	-0.006	0.0067	-0.0008	35.5
0.0015	-0.0053	0.0045	0.006	35.2
-0.0008	-0.0053	-0.0038	-0.006	34.9
-0.0015	-0.0068	-0.012	-0.0233	34.6
-0.0046	-0.0015	-0.0143	-0.03	34.3
-0.0053	0.0015	-0.0113	-0.0158	34
-0.003	0.003	-0.0068	0.0157	33.7
-0.003	0.003	-0.0053	0.054	33.3
-0.003	-0.003	-0.0015	0.0675	33
-0.003	-0.0075	0.0037	0.0487	32.7
-0.0023	-0.012	0.0142	0.0262	32.4
-0.0008	-0.0143	0.0217	-0.0143	32
0.0015	-0.0113	0.0202	-0.057	31.8
0.0045	-0.006	0.021	-0.0608	31.4
0.0045	-0.0008	0.0195	-0.0353	31.1
0.0075	-0.0008	0.0112	-0.0135	30.7
0.012	0.003	0.0022	0.0127	30.4
0.0135	0.0052	-0.003	0.039	30.1
0.0105	0.0015	-0.0068	0.03	29.7
0.0052	0	-0.0165	0.0142	29.4
0.003	0.0015	-0.0263	0.0007	29.1
-0.0015	0.0007	-0.0263	-0.012	28.7
-0.0046	-0.0015	-0.024	-0.012	28.4
-0.0038	-0.0008	-0.0248	-0.0158	28.1
-0.0053	0.0015	-0.0218	-0.0256	27.7
-0.0015	0.0052	-0.0158	-0.0458	27.4
-0.0023	0.0082	-0.0113	-0.0578	27
-0.0008	0.0105	-0.0143	-0.0428	26.7
0.0015	0.009	-0.0188	-0.0203	26.4
0.0015	0.0082	-0.0158	0.0075	26.1
0.0007	0.009	-0.0023	0.042	25.7
0.0045	0.003	0.012	0.066	25.3
0.009	-0.0053	0.0127	0.0562	25
0.009	-0.0098	0.0037	0.0285	24.7
0.012	-0.0068	0.009	0.009	24.3
0.0075	-0.003	0.0195	-0.0046	23.9
0.0052	0	0.0172	-0.0083	23.6
0.0075	0.0015	0.0232	-0.0068	23.2
0.0015	0.0007	0.021	-0.0091	22.9
-0.006	0.0045	0.0135	-0.0218	22.5
-0.0158	0.006	0.0045	-0.0458	22.1
-0.0173	0.0082	-0.003	-0.0503	21.8
-0.0091	0.0082	-0.0038	-0.0256	21.4
0.003	0.0067	-0.0053	-0.006	21.1
0.0052	0.0067	0.0015	0.012	20.7
-0.0008	0.0015	0.003	0.027	20.3
-0.0023	-0.0023	0.0067	0.0187	20
-0.0046	-0.0053	0.0067	-0.0046	19.6
-0.0083	-0.0083	0.0015	-0.0256	19.3
-0.012	-0.0053	0.003	-0.0181	18.9
-0.0143	-0.0015	0.0007	0.0045	18.5
-0.0158	0	-0.0068	0.0292	18.1
-0.0105	0.0022	-0.0143	0.0495	17.9
-0.0023	0.0007	-0.0203	0.0495	17.6
0.0015	-0.0083	-0.0165	0.0442	17.3
0.003	-0.0128	0.0045	0.0277	17
0.0067	-0.0083	0.0217	0.006	16.7
0.0067	-0.0046	0.0217	-0.0075	16.4
0.0075	-0.0046	0.018	-0.0165	16.1
0.0045	-0.0046	0.0052	-0.0068	15.8
0.0045	-0.0068	-0.0091	0.003	15.5
0.0105	-0.0046	-0.0233	0.0075	15.2
0.018	0.0007	-0.0315	0.0127	14.9
0.024	0.003	-0.0263	0.0097	14.6
0.0195	0.003	-0.0225	0.0037	14.4
0.0172	0.0015	-0.0158	-0.0023	14
0.0127	0	-0.0068	-0.0053	13.8
0.0045	-0.0046	0.0007	-0.0053	13.5
0.0045	-0.0053	0.0075	-0.0075	13.2
0.003	-0.0008	-0.0038	-0.0188	12.9
0.0015	0.0082	-0.015	-0.024	12.6
-0.0053	0.012	-0.0173	-0.0165	12.2
-0.0143	0.0052	-0.0158	-0.0105	12.1
-0.021	0	-0.0105	-0.0008	11.9
-0.0256	-0.0015	-0.003	0.0157	11.7
-0.024	-0.003	0.0187	0.0315	11.6
-0.0195	-0.0046	0.0367	0.0307	11.4
-0.0135	-0.0053	0.0405	0.018	11.2
-0.006	-0.0015	0.039	0.0187	11.1
0.003	0.0015	0.0277	0.018	10.9
0.009	0.0045	0.0202	0.0195	10.7
0.0105	0.0022	0.0217	0.0262	10.5
0.003	-0.0038	0.0622	0.0277	10.4
-0.0075	-0.006	0.1042	0.0247	10.2
-0.0083	-0.0015	0.0922	0.0105	10
-0.0068	-0.0023	0.078	-0.0015	9.9
-0.0203	-0.0075	0.063	-0.0068	9.7
-0.027	-0.0015	0.0345	-0.0091	9.5
-0.0233	0.0007	0.0157	-0.0053	9.4
-0.0233	0.0022	-0.0015	-0.0053	9.2
-0.0158	0.0067	-0.0068	-0.0053	9
-0.0046	0.0075	-0.0098	-0.0068	8.8
0.0075	0.0045	-0.0105	-0.0038	8.7
0.0217	0.0015	-0.0098	-0.0023	8.7
0.0345	0.0015	-0.0203	-0.0128	8.6
0.0427	-0.0038	-0.0218	-0.0203	8.5
0.0405	-0.0075	-0.0248	-0.024	8.5
0.027	-0.006	-0.0285	-0.0158	8.4
0.0105	-0.0038	-0.027	0.0052	8.3
-0.0113	-0.0046	-0.0315	0.0195	8.2
-0.0203	-0.0053	-0.0458	0.0165	8.2
-0.0233	-0.0068	-0.048	0.009	8.1
-0.027	-0.012	-0.0293	0.0022	8
-0.0195	-0.0105	-0.0091	-0.0023	8
-0.0128	-0.012	0.009	-0.003	7.9
-0.0023	-0.0075	0.0067	-0.0023	7.8
0.009	0.0007	0.0007	-0.003	7.7
0.0187	0.0045	-0.003	-0.0046	7.6
0.0225	0.009	-0.0143	-0.0113	7.6
0.0157	0.0082	-0.0173	-0.0158	7.5
0.0157	0.0082	-0.0181	-0.0173	7.5
0.018	0.0097	-0.0165	-0.0143	7.3
0.0135	0.0097	-0.0135	-0.0015	7.3
0.018	0.012	-0.0188	0.0082	7.3
0.0277	0.0112	-0.0233	0.009	7.3
0.0232	0.0112	-0.0293	0.0037	7.2
0.0142	0.0082	-0.0375	-0.0068	7.2
0.0045	0.0067	-0.0338	-0.0143	7.2
0.0007	0.0052	-0.0113	-0.0173	7.2
-0.0015	-0.0046	0.0315	-0.0158	7.1
-0.0225	-0.015	0.0712	-0.0053	7.1
-0.033	-0.0203	0.0667	0.0045	7
-0.0233	-0.0143	0.036	0.0082	7
-0.0143	-0.0098	0.0217	0.003	7
-0.0105	-0.0083	0.0037	-0.003	6.9
-0.0046	-0.0091	-0.0098	-0.0053	6.9
-0.0008	-0.0158	-0.0158	-0.0068	6.9
-0.0008	-0.0181	-0.0218	-0.0046	6.8
-0.0008	-0.0285	-0.0203	-0.0023	6.8
-0.0008	-0.0338	-0.0173	-0.0053	6.7
0.0045	-0.0323	-0.0165	-0.0091	6.7
0.003	-0.0308	-0.015	-0.0105	6.7
0.0007	-0.0091	-0.0128	-0.0105	6.7
0.0022	0.012	-0.0203	-0.0105	6.7
-0.0083	0.0217	-0.0308	-0.0068	6.7
-0.0135	0.0322	-0.024	0.0052	6.7
-0.0068	0.0382	-0.0105	0.015	6.7
-0.0008	0.039	-0.0053	0.0172	6.7
0.006	0.0292	0.0007	0.0097	6.7
0.0165	0.0165	0.0067	0.0045	6.7
0.0232	0.021	0.0067	-0.0015	6.7
0.0097	0.0202	0.012	-0.003	6.7
-0.0046	0.0195	0.018	-0.0046	6.7
-0.0098	0.0285	0.0157	-0.012	6.7
-0.0105	0.0397	0.003	-0.012	6.7
-0.0053	0.054	-0.0158	-0.0091	6.7
-0.0015	0.0495	-0.0293	-0.006	6.6
0.0022	0.024	-0.0338	-0.0023	6.6
0	0	-0.0278	-0.0008	6.6
0.0067	-0.0105	-0.0278	-0.0015	6.6
0.024	-0.0113	-0.0368	-0.0015	6.6
0.0322	-0.0113	-0.0353	0.0045	6.6
0.0382	-0.0128	-0.0233	0.0075	6.6
0.0405	-0.0195	-0.0105	0.0105	6.7
0.0315	-0.021	0.0045	0.0105	6.7
0.0225	-0.0203	0.009	0.0075	6.8
0.0112	-0.0203	0.003	0.0052	6.8
-0.0015	-0.0225	-0.0023	0.0037	6.9
-0.0068	-0.0256	0.0015	0.0052	6.9
-0.0135	-0.0248	0.0105	0.0007	7
-0.0218	-0.0203	0.012	-0.0091	7
-0.0346	-0.0105	0.0172	-0.0128	7.1
-0.0405	-0.0046	0.024	-0.0075	7.2
-0.0368	-0.0068	0.0232	0.0075	7.2
-0.0383	-0.0128	0.0307	0.0202	7.2
-0.0383	-0.0181	0.0382	0.021	7.3
-0.045	-0.0165	0.0345	0.0157	7.3
-0.0495	-0.0098	0.0277	0.009	7.4
-0.057	-0.0068	0.0465	0.0067	7.5
-0.06	-0.012	0.0615	0.0052	7.5
-0.0465	-0.0113	0.0622	0.003	7.6
-0.024	-0.0083	0.0675	-0.0015	7.6
0.0045	-0.0053	0.0592	-0.0015	7.7
0.0315	-0.006	0.0555	0.0015	7.8
0.0615	-0.0053	0.0592	0.0052	7.9
0.0765	-0.0015	0.0622	0.012	8
0.072	0	0.0652	0.0097	8.1
0.0517	-0.0008	0.063	0.0075	8.1
0.039	-0.0015	0.048	0.0015	8.2
0.0307	0.0015	0.0315	-0.0053	8.3
0.0202	-0.0008	0.0157	-0.0083	8.4
0.018	-0.0038	-0.0008	-0.015	8.5
0.0142	-0.0023	-0.0046	-0.0158	8.5
-0.0053	0	-0.0135	-0.0143	8.6
-0.0308	0.0052	-0.0203	-0.0128	8.7
-0.048	0.0067	-0.0278	-0.012	8.8
-0.0623	0.0067	-0.039	-0.0091	8.9
-0.0555	0.006	-0.0428	-0.0083	9
-0.0383	0.0022	-0.0405	-0.0098	9.1
-0.015	0.003	-0.0383	-0.0068	9.2
0.0052	0.0082	-0.039	-0.0046	9.3
0.0165	0.0135	-0.0465	-0.0015	9.4
0.0345	0.018	-0.0548	0	9.4
0.0517	0.0217	-0.0653	-0.0038	9.4
0.0615	0.0142	-0.0713	-0.0083	9.3
0.0615	0.003	-0.057	-0.0135	9.3
0.0532	-0.0046	-0.0405	-0.0173	9.2
0.0352	-0.0008	-0.0293	-0.0143	9.2
0.009	0.0045	-0.0165	-0.0091	9.2
-0.0053	0.0075	-0.0128	-0.0113	9.1
0.0105	0.009	-0.0173	-0.012	9.1
0.0142	0.0067	-0.021	-0.012	9
-0.0008	0.0052	-0.015	-0.0113	9
-0.0135	0.003	-0.012	-0.0105	9
-0.0285	-0.0015	-0.0165	-0.0105	9
-0.0203	-0.0008	-0.015	-0.0075	8.9
-0.0188	0.003	-0.0128	-0.0053	8.9
-0.0233	0.0067	-0.0195	-0.0068	8.9
-0.0293	0.0045	-0.0165	-0.0083	8.8
-0.0315	0.0015	-0.0143	-0.0083	8.8
-0.0091	0.0015	-0.0173	-0.0091	8.8
0.0015	-0.0015	-0.0143	-0.0083	8.7
-0.0023	-0.0046	-0.003	-0.0015	8.8
-0.0098	-0.0075	0.0052	0.0045	8.9
-0.0165	-0.006	-0.0023	0.0082	9
0.0045	0.0007	-0.0046	0.0105	9.1
0.0457	0.0082	-0.0195	0.0105	9.2
0.0817	0.0112	-0.033	0.0105	9.3
0.0832	0.0045	-0.0128	0.0067	9.4
0.0555	-0.0083	0.0157	0.0045	9.4
0.0165	-0.0203	0.0352	0.0022	9.5
-0.0181	-0.0181	0.045	0.0015	9.7
-0.0383	-0.0105	0.0502	0.0082	9.8
-0.0458	-0.0091	0.0442	0.0105	9.9
-0.0308	-0.0053	0.0412	0.0142	9.9
-0.024	-0.0053	0.042	0.0172	10
-0.027	-0.003	0.042	0.018	10.1
-0.0293	-0.0008	0.0457	0.018	10.2
-0.0368	0.0007	0.045	0.018	10.3
-0.0368	0.0022	0.048	0.0172	10.4
-0.0458	-0.0008	0.039	0.0165	10.5
-0.0698	-0.0015	0.0187	0.015	10.6
-0.0773	-0.003	0.0075	0.012	10.7
-0.0615	-0.003	-0.0083	0.0082	10.9
-0.0346	0.0052	-0.0165	0.0067	11
-0.0015	0.0067	-0.0181	0.0045	11.2
0.0232	0.0007	-0.0158	0.0007	11.3
0.0502	-0.0046	-0.0143	-0.0015	11.4
0.0697	-0.003	-0.0218	-0.003	11.5
0.0735	0.0007	-0.0278	-0.0038	11.7
0.0885	0.0007	-0.027	-0.0046	11.8
0.0975	0.0052	-0.0256	-0.0038	11.9
0.1005	0.003	-0.027	-0.0046	12.1
0.075	-0.0038	-0.0181	-0.0083	12.2
0.0082	-0.0068	-0.0091	-0.0075	12.3
-0.0503	-0.0091	-0.0083	-0.0068	12.5
-0.063	-0.0083	-0.0128	-0.0083	12.6
-0.033	-0.0068	-0.0068	-0.0046	12.7
-0.0143	-0.0008	0.006	0.0007	12.8
-0.0165	0.0052	0.0157	0.0007	13
-0.0173	0.0052	0.0255	-0.0038	13.1
-0.0218	0.0075	0.0127	-0.006	13.2
-0.0256	0.009	-0.003	-0.0038	13.3
-0.0181	0.009	-0.0068	0	13.4
-0.0075	0.0067	-0.0105	-0.0015	13.5
0.0037	0.0037	-0.0165	-0.0046	13.5
0.0067	0.003	-0.0158	-0.003	13.6
-0.0008	0.0037	-0.0143	-0.0038	13.6
-0.0105	0.0037	-0.0256	-0.003	13.7
-0.0143	0.003	-0.0346	-0.0023	13.8
-0.0181	0.0015	-0.0278	-0.0015	13.9
-0.0218	0.0022	-0.0203	-0.0015	13.9
-0.0225	0.003	-0.0181	-0.0008	14
-0.0203	0.0037	-0.0195	0	14.1
-0.0165	0.0075	-0.0285	0	14.1
-0.0188	0.0067	-0.0233	-0.0008	14.2
-0.0105	0.0045	-0.0068	0	14.3
0.0045	-0.003	0.003	-0.0008	14.4
0.009	-0.0098	-0.0023	-0.0023	14.4
0.0142	-0.0075	-0.0008	-0.0015	14.5
0.0202	0	0.0075	-0.0023	14.5
0.0345	0.0007	0.0157	-0.0015	14.6
0.0502	-0.0015	0.0285	-0.0015	14.6
0.0645	-0.0046	0.0262	-0.003	14.6
0.063	-0.0038	0.0247	-0.0023	14.6
0.042	-0.0008	0.0232	0	14.5
0.0292	0.0007	0.012	0.003	14.5
0.0202	0.0045	0.0067	0.0052	14.5
0.018	0.0045	0.0015	0.0052	14.4
0.0202	0.003	-0.003	0.0045	14.4
0.0157	0.0015	-0.0083	0.003	14.4
0.0067	-0.0008	-0.0113	0.0015	14.4
-0.0053	0.003	-0.0165	0	14.3
-0.0083	0.0052	-0.0128	0.0015	14.3
-0.0135	-0.0008	0.0075	0.003	14.3
-0.0218	-0.0053	0.0157	0.0015	14.2
-0.024	-0.006	0.0195	0.0015	14.2
-0.0256	-0.003	0.0255	0.003	14.2
-0.03	-0.0008	0.0255	0.0037	14.1
-0.0443	-0.0023	0.03	0.0045	14.1
-0.0405	-0.003	0.0322	0.006	14.1
-0.0368	-0.0053	0.0345	0.0082	14
-0.0368	-0.0038	0.0345	0.006	13.9
-0.0248	-0.0015	0.03	0.0045	13.9
-0.0105	-0.0046	0.024	0.0045	13.8
0.0015	-0.0075	0.0135	0.003	13.7
0.0135	-0.0098	0.0082	0.0022	13.6
0.0202	-0.0075	0.0105	0.0067	13.5
0.0202	-0.0038	0.0127	0.0067	13.5
0.024	-0.003	0.0105	0.0052	13.4
0.03	-0.0015	0.0067	0.0007	13.3
0.0255	-0.0046	0.0045	-0.0015	13.2
0.0105	-0.0075	0.0052	0.0007	13.1
0.0082	-0.0023	0.0105	0.0037	13
0.015	0.003	0.0127	0.0045	13
0.0105	0.0037	0.0157	0.0015	12.9
-0.003	0.0007	0.018	-0.0015	12.8
-0.0143	-0.0053	0.0165	-0.0015	12.7
-0.0181	-0.0083	0.0217	0.0007	12.6
-0.0128	-0.0091	0.0202	0.0022	12.6
-0.0128	-0.0075	0.018	0.0015	12.5
-0.0098	-0.0053	0.0165	0.0007	12.3
-0.0075	-0.0015	0.0112	0.0015	12.3
-0.012	0.0015	0.0082	0.0037	12.3
-0.0158	-0.0008	0.0052	0.0052	12.3
-0.0218	0.0015	0.003	0.0045	12.3
-0.0256	-0.0008	-0.0008	0.003	12.3
-0.0285	-0.0008	-0.0046	0.0022	12.3
-0.0256	0.0015	-0.0046	0.0015	12.3
-0.0143	0.0015	-0.0083	0.0007	12.3
-0.0046	0.0037	-0.0091	-0.0015	12.3
0.0045	0.0045	-0.012	-0.0015	12.3
0.0105	0.003	-0.0165	-0.0023	12.3
0.0135	-0.003	-0.0098	-0.003	12.3
0.018	-0.0075	-0.0008	-0.0038	12.3
0.0165	-0.0091	0.0052	-0.003	12.3
0.0097	-0.0068	0.009	-0.0038	12.3
-0.0015	-0.0023	0.0067	-0.0053	12.3
-0.0128	-0.0008	0.0015	-0.0046	12.3
-0.0195	0.0007	0.0015	-0.0046	12.3
-0.0225	0.0007	0.0105	-0.0046	12.3
-0.0181	0.0007	0.0157	-0.0038	12.2
-0.0008	0.0022	0.006	-0.0075	12.3
0.0142	0.0015	-0.0105	-0.0091	12.3
0.0157	0.003	-0.0105	-0.0091	12.4
0.015	0.0045	0.0007	-0.0083	12.4
0.0007	0.0045	0.0052	-0.0091	12.5
-0.0105	-0.003	0.0075	-0.0105	12.5
-0.012	-0.0068	0.0142	-0.0083	12.5
-0.0068	-0.003	0.0232	-0.0053	12.6
0.0142	0	0.0187	-0.0068	12.6
0.0172	-0.0008	0.0135	-0.0053	12.6
0.0127	-0.0015	0.006	-0.0046	12.7
0.015	0.0015	-0.0113	-0.0046	12.7
0.0135	0.0052	-0.0233	-0.0053	12.8
0.0217	0.006	-0.033	-0.0068	12.8
0.0345	0.0045	-0.0398	-0.0053	12.9
0.0375	0.0007	-0.039	-0.0068	12.9
0.021	-0.0015	-0.0353	-0.0068	12.9
0.006	0	-0.0278	-0.0046	13
0.0007	0.0015	-0.024	-0.0015	13
-0.0046	0.0022	-0.0263	-0.0015	13
-0.003	0.003	-0.027	-0.003	13.1
-0.0046	0.003	-0.027	-0.0008	13.1
-0.0091	0.003	-0.0308	-0.0008	13.1
-0.0038	0.0037	-0.0353	-0.0015	13.2
0.0007	0.0037	-0.0338	-0.0015	13.2
0.0015	0.0022	-0.0315	-0.003	13.2
0.0015	0.0007	-0.027	-0.0015	13.3
0	0.003	-0.0158	0	13.3
-0.0008	0.003	-0.0091	0.0007	13.4
0.0015	0.0037	-0.0128	0.0015	13.4
0.0045	0.0045	-0.0173	-0.0008	13.4
0.0022	0.0022	-0.0158	0.0015	13.5
-0.0023	0.003	-0.0188	0.003	13.5
-0.0023	0.0037	-0.0248	0.0007	13.5
0.0007	0.0067	-0.0405	-0.0015	13.5
0.0045	0.009	-0.0548	-0.003	13.6
0.009	0.0105	-0.0615	-0.0053	13.6
0.009	0.0112	-0.063	-0.0075	13.7
0.012	0.0105	-0.0593	-0.0083	13.7
0.0157	0.009	-0.054	-0.0075	13.7
0.0135	0.0067	-0.048	-0.006	13.7
0.0135	0.006	-0.0458	-0.0083	13.7
0.0172	0.0045	-0.0405	-0.0091	13.7
0.018	0.003	-0.0368	-0.0068	13.7
0.0202	0.006	-0.0383	-0.0053	13.7
0.0217	0.0052	-0.033	-0.0046	13.7
0.0262	0.0082	-0.0278	-0.0015	13.7
0.0352	0.0105	-0.0218	-0.0015	13.7
0.042	0.009	-0.0143	-0.0015	13.7
0.0345	0.006	-0.0113	-0.0046	13.7
0.0165	0	-0.0105	-0.003	13.7
0.0052	-0.0015	-0.0068	-0.0015	13.7
-0.0091	-0.0023	0.0007	-0.0008	13.7
-0.0195	-0.003	0.0067	-0.0008	13.7
-0.0181	-0.0008	0.0045	-0.0023	13.7
-0.0188	-0.0008	0.0052	0	13.7
-0.012	0.0022	0.0037	0.0022	13.7
-0.0105	0.003	0.0015	0.0015	13.7
-0.0128	0.0015	0.009	0.0015	13.7
-0.0098	0	0.0217	0.0015	13.7
-0.0098	-0.0023	0.0322	0.003	13.7
-0.0083	-0.0023	0.0352	0.0037	13.6
-0.0105	-0.0046	0.0292	0.0045	13.5
-0.0105	-0.0068	0.0232	0.0022	13.5
-0.0038	-0.006	0.0195	0.0007	13.5
0.0045	-0.0015	0.018	0.0022	13.4
0.0067	-0.0023	0.0217	0.003	13.3
0.0045	-0.0068	0.018	0.003	13.3
0.0045	-0.006	0.0082	0.0015	13.2
0	-0.0038	0.0045	0.0007	13.1
-0.0068	-0.0038	0.0015	0	13.1
-0.0068	-0.0015	0.0015	-0.0008	13
-0.0046	0.0007	0.009	0.0015	13
-0.0008	0.003	0.012	0.003	12.9
0.0082	0.0045	0.0067	0.0015	12.9
0.012	0.0045	0.0037	0.0007	12.8
0.006	-0.0008	0.009	-0.0008	12.8
0.0037	-0.0053	0.009	-0.0023	12.7
0.0052	-0.0046	0.0045	-0.0008	12.6
0.0015	-0.0053	0.0082	-0.0008	12.6
-0.0015	-0.0046	0.0105	-0.0008	12.6
-0.0091	-0.0038	0.0135	0.0007	12.5
-0.012	-0.0038	0.0172	0.003	12.4
-0.0098	-0.0038	0.0165	0.003	12.4
-0.0128	-0.003	0.0127	0.003	12.3
-0.0113	-0.0038	0.0142	0.0015	12.3
-0.0143	-0.0046	0.0127	0.0022	12.2
-0.0173	-0.0053	0.0097	0.0007	12.1
-0.0143	-0.0046	0.009	0.0015	12.1
-0.0105	-0.0038	0.0082	0.003	12.1
-0.0083	-0.003	0.009	0.003	12
-0.0075	-0.0046	0.0022	0.0015	12
-0.0053	-0.0046	-0.0015	0.0015	11.9
-0.0023	-0.003	-0.0015	-0.0008	11.8
0.0022	-0.0038	-0.003	0.0007	11.8
0.0075	-0.0008	0.0022	0.003	11.7
0.0082	0	0.0082	0.0015	11.7
0.0052	-0.0008	0.0105	0.0022	11.6
0.003	-0.0008	0.015	0.003	11.6
0.003	-0.003	0.024	0.0052	11.5
-0.0023	-0.003	0.0217	0.0045	11.5
-0.0023	-0.0038	0.0157	0.0022	11.4
0.0007	-0.0053	0.0202	0.0037	11.4
-0.0015	-0.003	0.024	0.0015	11.3
-0.0046	-0.0046	0.0307	0.0022	11.3
-0.0053	-0.006	0.0345	0.003	11.3
-0.0046	-0.0083	0.0352	0.0022	11.2
-0.0075	-0.0068	0.0337	0.003	11.2
-0.0053	-0.0046	0.039	0.006	11.2
-0.0083	-0.006	0.048	0.0075	11.1
-0.0158	-0.0091	0.0502	0.0075	11.1
-0.0173	-0.0091	0.0555	0.009	11
-0.0248	-0.0098	0.0637	0.0105	11
-0.03	-0.0083	0.0585	0.0105	10.9
-0.0278	-0.0083	0.0532	0.0075	10.9
-0.021	-0.0098	0.0532	0.0082	10.9
-0.0173	-0.0083	0.0525	0.0082	10.8
-0.0143	-0.0075	0.0487	0.0067	10.8
-0.0113	-0.0053	0.0427	0.0045	10.7
-0.0113	-0.0015	0.0352	0.0045	10.7
-0.0083	-0.0015	0.027	0.0037	10.7
-0.0053	0.0007	0.0232	0.003	10.7
-0.003	0.0007	0.0195	0.0045	10.6
-0.003	0.0007	0.0157	0.003	10.6
-0.0046	0.0015	0.009	0.0022	10.5
-0.0023	0.0007	0.006	0.0022	10.5
-0.003	-0.0015	0.012	0.0007	10.5
-0.0038	-0.0046	0.0165	0.0015	10.4
-0.003	-0.006	0.018	0.003	10.4
-0.0038	-0.0038	0.0142	0.0015	10.4
0	-0.0015	0.009	0.0015	10.3
0.0015	-0.003	0.0075	0.0015	10.3
0.0015	-0.0023	0.0067	-0.0008	10.3
0.0015	-0.0015	0.0067	-0.0015	10.3
0.0045	-0.0015	0.0015	-0.0008	10.2
0.0067	0	0	-0.0008	10.2
0.0037	-0.0015	0.003	0.0007	10.2
0.003	-0.0023	0.0045	0	10.1
0.0015	-0.0015	0.0022	-0.0008	10.1
0.0015	0.0015	0.003	0.0007	10
0.003	0.0007	0.0045	-0.0008	10
0.0015	-0.0008	0.0007	-0.0015	10
0.0015	0	0.0007	0.0007	9.9
-0.0008	-0.0008	0.0022	0	9.9
0.0015	-0.0008	-0.0023	-0.0008	9.8
0.003	0.0007	-0.0053	-0.003	9.8
0.0052	0.0015	-0.0098	-0.0053	9.7
0.0082	0.0022	-0.0143	-0.0046	9.6
0.009	0.003	-0.0173	-0.0053	9.6
0.0127	0.003	-0.0181	-0.0038	9.5
0.0105	0.003	-0.0218	-0.0046	9.5
0.012	0.0052	-0.027	-0.006	9.4
0.0127	0.0045	-0.0278	-0.0046	9.4
0.0105	0.0037	-0.0293	-0.0068	9.3
0.0097	0.0037	-0.0338	-0.0075	9.3
0.0082	0.003	-0.0353	-0.0068	9.2
0.0082	0.0037	-0.0375	-0.0053	9.2
0.0105	0.0037	-0.039	-0.0046	9.1
0.0127	0.0052	-0.0405	-0.0053	9
0.0142	0.0067	-0.0368	-0.0038	9
0.0142	0.0052	-0.0353	-0.0046	9
0.0135	0.0075	-0.0361	-0.0046	8.9
0.0127	0.0082	-0.033	-0.0046	8.9
0.0127	0.0037	-0.024	-0.0068	8.8
0.009	0.0015	-0.0158	-0.006	8.8
0.0082	0.0007	-0.0128	-0.0053	8.7
0.0037	0.0007	-0.0105	-0.0046	8.7
0.0007	0.0007	-0.015	-0.003	8.6
0.0007	0.0015	-0.0165	-0.0015	8.6
0.0007	0.003	-0.0181	-0.0023	8.5
0.0015	0.003	-0.0225	-0.0008	8.5
0.0007	0.0015	-0.0128	-0.0008	8.4
0.003	0.0015	-0.0091	-0.0015	8.4
0.0015	0.0037	-0.0128	-0.003	8.3
0.003	0.003	-0.0181	-0.0038	8.3
0.0052	0.0022	-0.0195	-0.0015	8.2
0.003	0.003	-0.0113	-0.0015	8.2
0.0037	0.0015	-0.006	-0.0015	8.1
0.0007	0.0015	-0.0023	0.0007	8.1
-0.0015	0.0007	-0.0023	0	8
-0.0015	0.0007	-0.0038	-0.0015	8
-0.0015	0	-0.0038	-0.0023	8
0	-0.0008	-0.0038	0.0007	7.9
0	0.0015	-0.0046	0	7.8
0.0015	0.0022	-0.012	-0.003	7.8
0.0045	0.0015	-0.015	-0.003	7.7
0.0052	0.003	-0.0135	-0.0038	7.6
0.0067	0.0045	-0.0135	-0.0046	7.6
0.009	0.0037	-0.015	-0.0053	7.6
0.0067	0.0015	-0.0158	-0.0038	7.5
0.0045	0.0007	-0.0181	-0.003	7.4
0.0052	0.003	-0.024	-0.003	7.4
0.0052	0.0045	-0.0203	-0.0015	7.3
0.0045	0.0045	-0.015	-0.003	7.2
0.003	0.0037	-0.0135	-0.0046	7.2
0.0045	0.003	-0.0128	-0.003	7.2
0.0067	0.0015	-0.0135	-0.0023	7.1
0.0052	0.003	-0.012	-0.0008	7
0.0045	0.0015	-0.0098	0	7
0.006	0	-0.0053	0.0007	6.9
0.0007	-0.0023	-0.003	0.0007	6.9
-0.0008	-0.003	-0.0046	-0.0008	6.8
0.003	0.0007	-0.0105	-0.0046	6.8
0.0015	0	-0.0128	-0.0046	6.7
0.0007	-0.0008	-0.0098	-0.0023	6.7
0	-0.0015	-0.0083	-0.0015	6.7
0.0015	-0.003	-0.0091	-0.0023	6.6
0.0007	-0.0008	-0.012	-0.0008	6.6
0	0	-0.0113	0.0015	6.5
-0.0008	0.0007	-0.0075	0.0022	6.5
-0.0015	0.0007	-0.0046	0.0015	6.5
-0.0015	0.0015	0.0007	0.0015	6.4
-0.003	0.0007	0.0045	0.0015	6.4
-0.003	0.0022	0.0015	0.0015	6.3
-0.0038	0.0022	0.0037	0.0007	6.3
-0.0053	0.0007	0.009	-0.0008	6.3
-0.003	0.0007	0.009	0	6.2
-0.0008	-0.0008	0.0067	0.0007	6.2
-0.0008	0	-0.0023	-0.0008	6.1
0.0015	-0.0008	-0.0008	0.0007	6
0.0015	-0.0023	0.0075	0.0015	6
-0.0008	-0.0015	0.003	-0.0015	6
0.0052	-0.003	0.0015	0.0007	5.9
0.0022	-0.0038	0.0037	0.0015	5.9
0	-0.0015	0.0007	-0.0008	5.9
0.0007	-0.0008	0.0022	0.0007	5.8
-0.0015	-0.0023	0.0052	0	5.8
-0.0023	-0.003	0.0052	-0.0008	5.8
-0.0053	0	0.0045	-0.0015	5.7
-0.0023	0.0015	0	-0.0053	5.7
0	-0.0008	-0.0008	-0.0046	5.7
-0.0023	-0.003	0.0045	-0.003	5.6
-0.0053	-0.0046	0.0105	0.0007	5.6
-0.0083	-0.006	0.0172	0.0007	5.5
-0.0075	-0.0068	0.018	-0.0046	5.5
-0.0075	-0.0068	0.0217	-0.0068	5.4
-0.0083	-0.0068	0.0217	-0.0083	5.4
-0.0083	-0.0046	0.018	-0.0068	5.4
-0.0075	-0.0053	0.0202	-0.0023	5.3
-0.0075	-0.0068	0.0172	-0.0015	5.3
-0.006	-0.003	0.015	-0.0008	5.3
-0.0046	-0.0015	0.0127	-0.0008	5.2
-0.0038	-0.003	0.0127	0.0007	5.2
-0.003	-0.0023	0.0127	0.0015	5.1
-0.003	-0.0023	0.009	0.003	5.1
-0.0038	-0.0008	0.0105	0.0052	5
-0.003	0	0.0105	0.0052	5
-0.0038	-0.0008	0.0082	0.003	4.9
-0.0053	-0.0015	0.009	0.003	4.9
-0.0053	-0.0015	0.0082	0.0015	4.9
-0.0015	0.0007	-0.006	-0.003	4.8
0.0045	0.003	-0.0181	-0.0015	4.8
0.0045	0.003	-0.0083	0.0015	4.7
0.0015	0.0007	0.0075	0.0052	4.7
-0.0015	-0.003	0.0195	0.0045	4.6
0.0007	-0.0015	0.0022	-0.0008	4.6
0.0052	0.0007	0.0015	-0.0008	4.5
0.0007	-0.0015	0.0165	0.0007	4.5
-0.0008	0	0.0135	0.0015	4.5
-0.0023	-0.0008	0.0157	0.0015	4.4
-0.0015	0	0.0082	0.0007	4.4
-0.0015	-0.0008	0.0127	0.003	4.3
-0.0053	-0.003	0.018	0.0015	4.3
-0.0046	-0.0053	0.0202	0.0007	4.2
-0.0053	-0.0046	0.0195	0.0015	4.2
-0.0015	-0.003	0.015	-0.0008	4.2
-0.0008	-0.0046	0.018	0.003	4.1
-0.0008	-0.0015	0.0127	0.003	4.1
0.0015	0.0015	0.0097	0.0007	4
0	0.003	0.0052	-0.0008	4
0.0007	0.003	0.006	0	4
-0.0015	0.0015	0.009	0.003	3.9
-0.0023	0.003	0.0082	0.0022	3.9
-0.0015	0.0007	0.0045	0.0015	3.8
-0.0023	0.0007	-0.0038	0.0015	3.8
-0.0008	0.0007	-0.0008	0.003	3.8
-0.0046	-0.0008	0.0015	0.0015	3.7
-0.0053	-0.0023	-0.0008	0.0015	3.7
-0.0023	-0.0023	0.0015	0.003	3.6
-0.0046	-0.0053	0.006	0.0045	3.6
-0.0053	-0.0083	0.0067	0.006	3.6
-0.0053	-0.0068	0.0022	0.0082	3.6
-0.003	-0.0015	0.0015	0.0045	3.6
-0.0046	-0.0015	0.0037	0	3.5
-0.0046	-0.0023	0.0007	-0.0023	3.5
-0.0008	0	-0.003	-0.0046	3.5
-0.0008	-0.0015	-0.0046	-0.0046	3.5
0.0007	-0.0038	-0.0038	-0.006	3.5
0	-0.0053	0	-0.003	3.4
0	-0.0008	-0.0015	-0.0015	3.4
0.0037	0.0015	-0.0083	-0.0015	3.4
0.0082	0.003	-0.0098	0	3.4
0.0105	0.0045	-0.0008	0.0007	3.4
0.0105	0.0022	0.003	0.0007	3.3
0.0105	0.003	0	-0.0008	3.3
0.0067	0	0.003	0	3.3
0.0045	-0.0015	0.003	0.0007	3.3
0.003	-0.0015	0.0007	0.0007	3.3
0.0045	-0.0008	0.0022	0.003	3.2
0.0007	0	0.0045	0.0045	3.2
-0.003	0.0015	0.0015	0.0045	3.2
-0.0008	0.0045	-0.006	0.0022	3.2
-0.0008	0.0022	-0.0083	0.0007	3.2
0.0007	0.0015	-0.0105	-0.0008	3.2
0.0015	0.0015	-0.0135	-0.0008	3.2
0.0045	0.0015	-0.0165	-0.0015	3.2
0.0045	0.0022	-0.0218	-0.0038	3.1
0.0067	0.0015	-0.024	-0.003	3.1
0.009	0.0037	-0.0248	-0.0015	3.1
0.0105	0.0045	-0.021	-0.0015	3.1
0.009	0.0052	-0.0195	-0.0015	3.1
0.0052	0.0045	-0.015	-0.003	3.1
0.003	0.0007	-0.006	0	3.1
-0.0015	-0.0015	0.0015	0.0015	3.1
-0.0038	-0.003	0.0015	-0.0008	3.1
-0.003	-0.003	-0.003	0	3.1
-0.0053	-0.0023	0.0082	0.003	3.1
-0.0053	-0.0008	0.0112	0.0037	3
-0.0046	-0.0015	0.0127	0.003	3
-0.0068	-0.0015	0.0195	0.0052	3
-0.0046	-0.0008	0.0165	0.0052	3
-0.0083	-0.003	0.021	0.0045	3
-0.0068	-0.0008	0.0172	0.0045	3
-0.0046	-0.0008	0.015	0.0015	3
-0.0023	-0.0008	0.012	0.0007	3
0.0015	-0.0015	0.0082	0.0007	3
-0.003	-0.0068	0.0165	0	3
-0.0046	-0.0075	0.0187	0.0022	3
-0.0046	-0.0068	0.0202	0.003	3
-0.0023	-0.0046	0.0142	0.0015	2.9
0.0015	-0.0008	0.0045	0.0007	2.9
0.0037	-0.0008	0.0015	-0.0015	2.9
0.0052	-0.0008	-0.0008	0.0007	2.9
0.0037	0.0015	-0.0046	0.0015	2.9
0.0067	0.003	-0.0135	-0.0015	2.9
0.0097	0.0052	-0.0225	-0.0023	2.9
0.0105	0.0082	-0.027	-0.003	2.9
0.012	0.009	-0.0278	-0.0053	2.9
0.0097	0.0075	-0.0285	-0.006	2.9
0.0112	0.0067	-0.027	-0.0046	2.8
0.0097	0.0067	-0.024	-0.0046	2.8
0.0075	0.0045	-0.027	-0.0046	2.8
0.0082	0.0037	-0.024	-0.0038	2.8
0.009	0.0037	-0.0218	-0.0038	2.8
0.0082	0.0045	-0.0225	-0.006	2.8
0.009	0.0052	-0.024	-0.0083	2.8
0.012	0.0067	-0.0293	-0.0068	2.8
0.0105	0.0067	-0.03	-0.0015	2.8
0.0097	0.0052	-0.0308	-0.0008	2.8
0.0075	0.003	-0.0285	-0.0046	2.9
0.0052	0.0015	-0.0248	-0.0068	2.9
0.006	0.003	-0.0256	-0.0098	2.9
0.0067	0.003	-0.0256	-0.012	2.9
0.0067	0.003	-0.0256	-0.0091	2.9
0.0045	0.003	-0.0203	-0.0046	2.9
0.0052	-0.0015	-0.021	-0.0008	2.9
0.0052	-0.0038	-0.0181	0.0007	2.9
0.003	-0.0038	-0.0143	0.0015	2.9
0.0007	-0.0015	-0.0113	0.0007	2.9
-0.0008	-0.0023	0.0007	0.003	2.9
-0.0046	-0.0053	0.009	0.0007	2.9
-0.0091	-0.0068	0.018	-0.0008	2.9
-0.0113	-0.0105	0.0255	0.0045	2.9
-0.0135	-0.0091	0.0262	0.006	2.9
-0.0105	-0.0075	0.0292	0.0015	3
-0.0128	-0.0083	0.0345	-0.0015	3
-0.015	-0.0083	0.036	-0.0023	3
-0.012	-0.0068	0.0285	-0.0038	3
-0.0105	-0.003	0.0202	0.0007	3
-0.006	-0.0023	0.0127	0.0015	3.1
-0.003	-0.0015	0.0067	-0.0008	3.1
-0.0008	0.0007	0.0082	0	3.1
0.0007	0.0007	0.0067	0	3.1
0.0007	0.0015	0	0.0015	3.1
0.0015	0.0015	-0.0053	-0.0008	3.1
0.003	0.0015	-0.003	-0.0015	3.1
0.003	0.0015	-0.0008	0.0007	3.1
0.0022	0.0022	-0.0023	0	3.1
0.0007	0.0037	-0.003	-0.0008	3.2
0	0.0037	-0.0075	-0.0015	3.2
0.0015	0.003	-0.0105	-0.003	3.2
0.0022	0.0015	-0.0068	-0.003	3.2
0.0015	-0.0008	-0.0008	-0.003	3.2
-0.0008	-0.0015	0.0007	-0.0038	3.3
0.003	0.0007	-0.0053	-0.003	3.3
0.0045	0.0022	-0.0091	-0.0046	3.3
0.0052	0.003	-0.0158	-0.0075	3.3
0.009	0.0022	-0.021	-0.0075	3.3
0.0097	0.0015	-0.0165	-0.006	3.4
0.009	0.003	-0.0158	-0.0053	3.4
0.0082	0.003	-0.0203	-0.0083	3.4
0.0097	0.0045	-0.0195	-0.0075	3.4
0.0075	0.0015	-0.0098	-0.003	3.4
0.0045	0	-0.0053	-0.0046	3.5
0.003	0.0007	-0.003	-0.0038	3.5
-0.0008	-0.0015	0.0045	-0.0008	3.5
-0.003	0.0007	0.0067	-0.0015	3.5
-0.0053	-0.0008	0.0067	-0.0015	3.5
-0.0038	-0.0015	0.0082	-0.0046	3.6
-0.003	-0.0008	0.0127	-0.003	3.6
-0.0053	-0.003	0.0097	-0.0015	3.6
-0.0015	-0.0015	0.003	-0.0015	3.6
-0.0015	-0.0015	0.003	-0.0015	3.6
-0.003	-0.003	0.003	-0.0015	3.7
-0.0038	-0.003	0.0075	-0.0008	3.7
-0.0023	-0.0015	0.009	-0.0008	3.7
-0.0015	0	0.0075	-0.0008	3.8
-0.0008	-0.0008	0.0067	-0.0008	3.8
0.0007	-0.0008	0.0067	0.0015	3.8
-0.0008	-0.0015	0.0135	0.0022	3.9
-0.0046	-0.0023	0.0157	0.0015	3.9
-0.0046	-0.0008	0.0142	0.0037	3.9
-0.003	-0.0023	0.0112	0.0022	3.9
-0.003	-0.0023	0.0075	0.0015	4
-0.003	-0.0015	0.009	0.0015	4
-0.003	-0.0038	0.012	0.003	4
-0.003	-0.0023	0.0157	0.0037	4
-0.003	-0.0038	0.0135	0.003	4.1
-0.0015	-0.0023	0.009	0.0022	4.1
-0.003	-0.0015	0.006	0.003	4.1
-0.0015	-0.003	0.0052	0.0015	4.2
-0.0008	-0.0015	0.0052	0.0022	4.2
-0.0008	-0.0008	0.0067	0.0037	4.3
0.0015	0.0007	0.0067	0.0045	4.4
0.0015	-0.0008	0.0015	0.0037	4.4
0.0015	-0.0008	0.0045	0.0015	4.5
-0.0015	0	0.009	0.0015	4.5
-0.0015	-0.0008	0.0105	0.0022	4.6
0	-0.0015	0.0135	0.0015	4.6
-0.0015	-0.0023	0.0082	0.0037	4.7
0	-0.0008	0.0067	0.003	4.7
-0.0008	0	0.0082	0.0007	4.8
-0.0008	0	0.0045	0.0007	4.9
-0.003	-0.0008	0.0052	0.0015	4.9
-0.0015	0.0015	0.0045	0.0007	4.9
-0.003	0.0015	0.0007	-0.0008	5
-0.0015	0.0007	0	-0.0008	5
0.0015	0.0007	-0.003	0	5.1
0.0015	-0.0008	-0.0053	0.0015	5.2
0.0045	0	-0.006	0.0015	5.2
0.0052	-0.0008	-0.0068	0.0007	5.3
0.0037	-0.0008	-0.0053	0	5.3
0.0007	-0.0008	0.0007	0	5.4
-0.0008	-0.0008	0.003	0.0015	5.5
-0.003	0.0015	0.0082	0.0022	5.6
-0.0046	-0.0008	0.012	0.0015	5.7
-0.0046	-0.0023	0.0097	0.0022	5.8
-0.003	-0.003	0.0067	0.0015	5.8
-0.003	-0.0053	0.0037	0	5.9
-0.0053	-0.006	0.009	0.0015	6
-0.0053	-0.0053	0.0075	-0.0008	6.1
-0.003	-0.0038	-0.0008	-0.0008	6.1
-0.0008	-0.003	0.0015	0.0007	6.2
0.0022	-0.0015	0.0015	-0.0008	6.3
-0.0023	-0.0008	0.0037	0.0007	6.4
-0.003	-0.0008	0.006	0.0015	6.4
-0.0038	-0.0015	0.009	0.0015	6.5
-0.0038	-0.003	0.006	0.0007	6.6
0	-0.0008	0.0022	-0.0015	6.7
-0.0008	-0.0015	0.0045	-0.0008	6.7
0.0007	-0.0008	0.0045	0.0015	6.8
-0.0023	-0.0038	0.0067	0.003	6.9
-0.0008	-0.0023	0.0015	0.0015	7
0.0022	0.0007	-0.0091	0.0007	7.1
0.003	0.0007	-0.0165	0	7.2
0.0082	0.0015	-0.0128	-0.0015	7.3
0.0052	0.0007	-0.0091	-0.0023	7.4
0.006	0.0037	-0.0173	-0.003	7.5
0.0082	0.0052	-0.0181	-0.0046	7.6
0.0082	0.006	-0.0218	-0.0046	7.6
0.009	0.0075	-0.0233	-0.0023	7.7
0.0067	0.0052	-0.0203	-0.0023	7.8
0.0082	0.0045	-0.024	-0.003	7.9
0.0052	0.0045	-0.0256	-0.0038	8
0.0045	0.0037	-0.024	-0.0015	8.1
0.003	0.003	-0.0218	0.0007	8.2
0.003	0.0015	-0.0195	0	8.3
0.0037	0	-0.0173	0	8.4
0.0015	0.0007	-0.0128	0.0015	8.5
0.0045	-0.0008	-0.0113	0.0015	8.5
0.0022	0	-0.0135	0.0007	8.6
0.0015	0.0007	-0.015	0	8.7
-0.0008	-0.0015	-0.0098	0.0007	8.8
-0.0015	0.0007	-0.0128	0	8.9
0.0052	0.0015	-0.0195	-0.0015	9
0.0067	0	-0.0188	-0.0015	9.1
0.006	-0.0015	-0.0181	-0.0023	9.2
0.0045	0	-0.0181	-0.0046	9.3
0.006	0.0015	-0.0203	-0.0046	9.4
0.0067	0.0045	-0.0195	-0.003	9.5
0.0067	0.0067	-0.021	-0.0015	9.6
0.0097	0.0067	-0.0225	-0.0015	9.7
0.009	0.0067	-0.0135	0	9.8
0.0067	0.0045	-0.012	-0.0008	9.9
0.0045	0.003	-0.0105	-0.0008	10
0.0022	0.0007	-0.003	0.0007	10.1
0.0015	-0.0008	-0.0046	-0.0008	10.2
-0.0008	0.0007	-0.0015	0.0015	10.3
-0.003	-0.0008	0.0052	0.0037	10.3
-0.006	-0.0023	0.009	0.003	10.4
-0.0075	-0.0015	0.009	0.0015	10.5
-0.0046	-0.003	0.0105	0.0007	10.7
-0.0046	-0.0038	0.012	0.0015	10.7
-0.0038	-0.0046	0.009	0.0015	10.8
-0.0038	-0.0038	0.0105	0.0015	11
-0.0053	-0.0023	0.009	0.0007	11.1
-0.006	-0.003	0.009	0.0007	11.2
-0.006	-0.0038	0.009	0.003	11.3
-0.0053	-0.003	0.0105	0.0045	11.4
-0.0091	-0.0046	0.0217	0.0052	11.5
-0.0091	-0.0068	0.0262	0.0067	11.6
-0.0098	-0.006	0.0322	0.009	11.7
-0.012	-0.0068	0.0352	0.0082	11.8
-0.012	-0.0068	0.0367	0.0082	11.9
-0.0143	-0.0083	0.0405	0.0067	12
-0.0143	-0.0105	0.0442	0.0075	12.1
-0.0165	-0.0128	0.0495	0.0082	12.2
-0.0165	-0.0105	0.0435	0.0075	12.3
-0.0128	-0.0068	0.0397	0.0052	12.5
-0.012	-0.0053	0.0367	0.003	12.6
-0.0068	-0.0015	0.0285	0.0007	12.7
-0.0046	0.0007	0.0277	0.0015	12.8
-0.0008	0.0015	0.0232	0.0007	13
0.0037	0.0037	0.0127	-0.0015	13.1
0.0052	0.003	0.006	-0.0015	13.3
0.006	-0.0008	0	-0.0008	13.4
0.003	-0.0008	-0.0008	0.0015	13.5
0.0015	-0.0015	0	0.0007	13.7
0.003	-0.003	-0.0023	-0.0008	13.9
0.0022	-0.003	-0.0053	-0.0008	14
0.003	-0.003	-0.003	-0.0015	14.1
0.0015	-0.003	-0.0015	-0.0023	14.3
0.0015	-0.003	-0.0008	-0.0023	14.4
0.0007	-0.003	-0.003	-0.003	14.6
0.0037	-0.0023	-0.012	-0.006	14.7
0.0052	0	-0.012	-0.0091	14.8
0.0052	0.0007	-0.015	-0.0105	15
0.0052	0.0015	-0.0195	-0.0113	15.2
0.0067	0.003	-0.0181	-0.0091	15.3
0.0082	0.003	-0.015	-0.0068	15.4
0.0045	0.0015	-0.0105	-0.006	15.6
0.0045	0.003	-0.0165	-0.0046	15.8
0.0052	0.0045	-0.012	-0.0015	16
0.0007	0.0015	0.0045	0.0015	16.2
-0.003	0.0022	0.0157	0.003	16.3
-0.0083	0	0.0232	0.003	16.5
-0.006	-0.0008	0.0112	-0.0008	16.6
0	0.0045	-0.006	-0.0046	16.8
0.0045	0.0082	-0.027	-0.0075	17
0.0142	0.0127	-0.0413	-0.0083	17.2
0.0172	0.0105	-0.0465	-0.0083	17.4
0.0165	0.0112	-0.054	-0.0075	17.5
0.018	0.0112	-0.0511	-0.0068	17.7
0.0165	0.009	-0.0518	-0.0068	17.9
0.018	0.009	-0.0465	-0.006	18.1
0.015	0.0067	-0.0436	-0.006	18.2
0.0142	0.006	-0.0465	-0.0053	18.4
0.0157	0.0037	-0.0428	-0.0053	18.6
0.0135	0.0015	-0.0353	-0.0046	18.8
0.0112	0	-0.027	-0.006	18.9
0.0105	0.003	-0.0278	-0.0068	19.2
0.0105	0.0052	-0.0225	-0.0053	19.4
0.009	0.0037	-0.0218	-0.0068	19.6
0.009	0.0052	-0.0218	-0.006	19.8
0.006	0.0052	-0.012	-0.003	20.1
0.0015	0.003	0.0007	-0.0015	20.3
-0.003	0.0007	0.0105	-0.0008	20.5
-0.0046	-0.0023	0.0135	0.0015	20.7
-0.0046	-0.003	0.021	0.003	21
-0.0053	-0.0015	0.0165	0.003	21.2
-0.003	-0.0015	0.0127	0.0022	21.4
-0.0023	-0.0038	0.0142	0.0007	21.6
-0.0038	-0.0038	0.0142	-0.0008	21.9
-0.0046	-0.0046	0.015	-0.0015	22.1
-0.003	-0.003	0.0097	-0.0015	22.3
-0.003	-0.0053	0.0165	0.0007	22.5
-0.006	-0.0046	0.0217	0.0015	22.8
-0.0091	-0.0046	0.0202	0.003	23
-0.0075	-0.006	0.0195	0.003	23.2
-0.0083	-0.0053	0.0142	0.0022	23.4
-0.0075	-0.006	0.0195	0.003	23.7
-0.0098	-0.0046	0.0255	0.0022	24
-0.0113	-0.003	0.027	0.0015	24.3
-0.0105	-0.0038	0.0277	0.0007	24.5
-0.0091	-0.0023	0.0202	-0.0015	24.7
-0.0046	-0.0008	0.0142	-0.0008	25
-0.0015	-0.0008	0.0135	-0.0008	25.3
-0.0046	-0.0015	0.0195	0	25.6
-0.0068	-0.0038	0.021	0.0007	25.8
-0.0053	-0.0038	0.0142	-0.0008	26.1
-0.003	-0.0015	0.0105	-0.0015	26.3
-0.0008	-0.0015	0.0082	0	26.6
-0.003	-0.0046	0.0165	0.0015	26.9
-0.0053	-0.003	0.0195	0.0015	27.1
-0.0083	-0.0023	0.0262	0.003	27.4
-0.0135	-0.0053	0.0367	0.0037	27.7
-0.0105	-0.0053	0.0307	0.0007	27.9
-0.0083	-0.0046	0.0285	0	28.2
-0.0098	-0.006	0.0277	0.0022	28.4
-0.0083	-0.0053	0.0292	0.003	28.7
-0.0083	-0.006	0.0262	0.003	29
-0.0053	-0.0053	0.0232	0.0045	29.2
-0.003	-0.0053	0.0262	0.0052	29.5
-0.0068	-0.0046	0.0277	0.0045	29.7
-0.0091	-0.0008	0.0345	0.0045	30
-0.0105	-0.0015	0.0412	0.0067	30.2
-0.012	-0.0038	0.0427	0.0052	30.5
-0.0105	-0.0038	0.0405	0.0052	30.8
-0.0128	-0.0068	0.0465	0.006	31
-0.0158	-0.0083	0.0532	0.0075	31.3
-0.015	-0.0083	0.0502	0.0082	31.5
-0.0165	-0.012	0.0532	0.006	31.8
-0.015	-0.0135	0.045	0.006	32.1
-0.0113	-0.0105	0.0367	0.0045	32.4
-0.0091	-0.0075	0.0307	0.0045	32.6
-0.0053	-0.0053	0.0232	0.0045	32.8
-0.0015	-0.0053	0.024	0.0015	33.1
0.0015	-0.0046	0.0127	0.0007	33.4
0.0045	-0.0008	0.0037	0.0007	33.6
0.0075	0.0007	-0.0046	-0.0015	33.9
0.009	0.003	-0.0068	0.0015	34.1
0.0067	0.0015	-0.0046	0.0007	34.3
0.0097	0.0015	-0.0135	-0.0008	34.6
0.0105	0.003	-0.0135	0.0015	34.7
0.0082	0.0045	-0.0165	0	35
0.0067	0.0052	-0.0181	0.0015	35.2
0.0075	0.0037	-0.0158	0.0022	35.4
0.0082	0.0052	-0.0225	-0.0008	35.6
0.009	0.006	-0.0256	-0.0023	35.9
0.012	0.0067	-0.0278	-0.0023	36.1
0.0097	0.0067	-0.0315	-0.003	36.3
0.0105	0.0067	-0.0315	-0.0023	36.5
0.0082	0.0037	-0.021	-0.0008	36.7
0.0052	0.0015	-0.0203	-0.003	36.9
0.0067	0.003	-0.024	-0.0038	37.2
0.0067	0.0022	-0.0256	-0.003	37.4
0.0075	0.003	-0.0248	-0.0023	37.6
0.0045	0.0015	-0.0113	0	37.8
0.0007	0.0007	-0.0068	0	38
-0.0008	0.0007	-0.003	-0.0015	38.2
0.003	0.003	-0.012	-0.0046	38.5
0.0082	0.006	-0.0181	-0.0046	38.6
0.0082	0.0037	-0.015	-0.0023	38.9
0.0105	0.0052	-0.0293	-0.0083	39.1
0.012	0.0052	-0.0323	-0.0083	39.3
0.0105	0.003	-0.033	-0.0083	39.5
0.0097	0.0007	-0.0278	-0.0091	39.7
0.0052	-0.0015	-0.0195	-0.0046	39.9
0.0052	-0.0008	-0.0128	-0.0068	40.1
0.003	0.0007	-0.0135	-0.0091	40.3
0.0082	0.003	-0.0338	-0.0128	40.5
0.018	0.0052	-0.0436	-0.015	40.7
0.0157	0.0067	-0.0465	-0.0135	40.9
0.0157	0.0067	-0.0443	-0.0143	41.1
0.0165	0.0045	-0.0458	-0.0128	41.3
0.0157	0.0067	-0.0503	-0.012	41.5
0.0165	0.0082	-0.0503	-0.0143	41.7
0.0165	0.0082	-0.0638	-0.0165	41.9
0.0195	0.0097	-0.063	-0.0143	42.1
0.0135	0.0067	-0.0518	-0.0113	42.3
0.009	0.0052	-0.0495	-0.012	42.6
0.009	0.0045	-0.0368	-0.0105	42.8
0.0052	0.0037	-0.0293	-0.0091	43
0.0045	0.0015	-0.0233	-0.0068	43.2
0.0022	-0.0015	-0.0165	-0.006	43.4
0.0015	-0.0008	-0.0218	-0.006	43.6
0.0022	-0.0008	-0.0195	-0.0046	43.9
0.0015	-0.0008	-0.0195	-0.0053	44.1
0.0007	0	-0.0181	-0.0046	44.3
0	0.0007	-0.0143	-0.003	44.5
0.003	0.0015	-0.0083	0	44.7
0.0022	0.0015	-0.0008	0.0045	45
0.003	0.0015	-0.0015	0.0067	45.1
0.0067	0.0015	-0.003	0.0067	45.4
0.0052	0.0015	-0.0008	0.0045	45.6
0.003	-0.0015	0.009	0.0067	45.8
-0.0008	-0.0015	0.0105	0.0067	46
-0.0046	-0.0023	0.018	0.0067	46.2
-0.0075	-0.0008	0.0255	0.0082	46.4
-0.0075	0.0015	0.0195	0.0075	46.7
-0.0091	-0.0023	0.0247	0.0082	46.9
-0.012	-0.0038	0.0292	0.009	47.1
-0.012	-0.0053	0.0315	0.012	47.3
-0.012	-0.0046	0.0307	0.0112	47.6
-0.012	-0.0038	0.024	0.009	47.8
-0.0105	-0.0068	0.0232	0.0082	48
-0.012	-0.0038	0.0165	0.0082	48.2
-0.0113	-0.0038	0.018	0.009	48.5
-0.0091	-0.0053	0.0157	0.0067	48.7
-0.0083	-0.0053	0.0127	0.0052	48.9
-0.0046	-0.0053	0.012	0.0052	49.1
-0.0008	-0.0015	0.0067	0.0045	49.3
-0.0023	-0.0008	0.0037	0.0052	49.5
-0.0015	0	-0.0008	0.0037	49.8
0.0007	-0.0008	0.0007	0.003	50
0.0007	-0.003	0.0045	0.0022	50.2
-0.0008	-0.0015	0.0037	0.0015	50.4
0.0015	-0.0015	0.003	0.0037	50.7
0.0015	-0.0015	0.006	0.0052	50.9
-0.0015	-0.003	0.0105	0.0052	51.1
0	-0.003	0.0052	0.0045	51.3
0.0015	-0.0023	0.003	0.0045	51.5
0	-0.0023	0.0015	0.0045	51.7
-0.0015	-0.0015	0.003	0.0052	51.9
-0.003	-0.0015	0.0075	0.0052	52.1
-0.0053	-0.0008	0.0082	0.0067	52.3
-0.0068	-0.0015	0.0075	0.0067	52.5
-0.0046	-0.0008	0.0052	0.0052	52.7
-0.0015	0.0007	0.0045	0.0082	52.9
-0.0008	-0.0015	0.0142	0.0082	53.1
-0.003	-0.003	0.0202	0.0082	53.3
-0.0083	-0.0023	0.0255	0.009	53.5
-0.0091	0	0.0307	0.0082	53.7
-0.0083	0	0.033	0.009	53.9
-0.0075	-0.0023	0.0345	0.0097	54
-0.0068	-0.0046	0.0337	0.0097	54.3
-0.0091	-0.0038	0.033	0.009	54.4
-0.0083	-0.0023	0.027	0.006	54.6
-0.0068	-0.0015	0.024	0.006	54.9
-0.0046	-0.0015	0.021	0.0045	55
-0.003	-0.003	0.024	0.0037	55.2
-0.0068	-0.0046	0.0277	0.0052	55.3
-0.0083	-0.0053	0.0255	0.003	55.4
-0.0075	-0.0046	0.0277	0.0015	55.5
-0.0075	-0.0046	0.0255	0.0015	55.6
-0.0083	-0.0053	0.027	0.0007	55.8
-0.0091	-0.0053	0.027	0	55.8
-0.0083	-0.0053	0.0255	-0.0015	56
-0.0083	-0.0075	0.0247	-0.0023	56.1
-0.0068	-0.0068	0.0202	-0.003	56.2
-0.0053	-0.0068	0.018	-0.0046	56.3
-0.0068	-0.006	0.0142	-0.006	56.4
-0.0091	-0.0053	0.0142	-0.0053	56.6
-0.0053	-0.0046	0.0052	-0.0068	56.7
-0.0008	-0.0015	-0.0075	-0.0091	56.8
0.0022	0	-0.0135	-0.0098	56.9
0.0067	0.003	-0.0218	-0.0083	57
0.0075	0.0052	-0.0233	-0.0091	57.1
0.0105	0.0052	-0.0256	-0.0091	57.2
0.0112	0.0045	-0.0256	-0.012	57.4
0.012	0.0045	-0.0278	-0.0143	57.5
0.0142	0.0075	-0.0315	-0.0135	57.6
0.0135	0.0067	-0.0218	-0.012	57.6
0.012	0.0067	-0.0188	-0.0113	57.7
0.0105	0.006	-0.015	-0.0091	57.8
0.0105	0.0045	-0.0165	-0.0083	57.9
0.012	0.006	-0.0203	-0.0068	58
0.012	0.0075	-0.0165	-0.0053	58
0.0082	0.0067	-0.0143	-0.0053	58.1
0.0067	0.0052	-0.0098	-0.0046	58.2
0.0037	0.003	-0.0128	-0.0046	58.3
0.0052	0.003	-0.0195	-0.003	58.4
0.0082	0.0045	-0.0233	-0.0023	58.4
0.009	0.0052	-0.0218	-0.0015	58.5
0.0082	0.0052	-0.0158	-0.0008	58.6
0.0067	0.0045	-0.0113	0	58.7
0.0082	0.0022	-0.0105	0	58.8
0.0067	0.003	-0.0135	-0.0008	58.8
0.0052	0.0022	-0.0105	-0.0008	58.9
0.0007	0.0022	-0.0091	-0.0015	59
0.0022	0.0015	-0.012	-0.0023	59
0	0.0022	-0.0105	-0.0015	59
-0.0008	0.003	-0.0143	-0.0046	59
0.0015	0.0015	-0.0165	-0.0038	59.1
-0.0008	0.003	-0.0165	-0.0053	59.1
-0.0015	0.003	-0.012	-0.0053	59.1
-0.0023	0.0007	-0.0105	-0.0075	59.1
0.0007	0.0022	-0.0181	-0.0083	59.2
0.0015	0.0007	-0.0195	-0.0083	59.2
0.0045	-0.0008	-0.021	-0.0075	59.2
0.003	0.0007	-0.0203	-0.0046	59.2
0.0015	0.0007	-0.015	-0.0023	59.2
0.006	0.0007	-0.0135	-0.0008	59.3
0.0075	0.0015	-0.0181	-0.0008	59.3
0.0097	0.0022	-0.021	-0.0015	59.3
0.0067	0.0015	-0.0143	-0.0008	59.3
0.0045	-0.0008	-0.0113	-0.0015	59.4
0.003	-0.0015	-0.0113	-0.003	59.4
0.0015	-0.0046	-0.0091	-0.003	59.4
0.0007	-0.0046	-0.0083	-0.003	59.4
-0.0015	-0.0046	-0.0068	-0.003	59.4
-0.0008	-0.0046	-0.006	-0.003	59.4
-0.003	-0.0046	-0.0015	-0.003	59.4
-0.0046	-0.0038	-0.003	-0.0015	59.3
0.0007	-0.0023	-0.0053	-0.0008	59.3
0.003	-0.0015	-0.003	0	59.2
0.006	0	-0.0053	0.0022	59.2
0.0105	0	-0.0015	0.0045	59.2
0.012	0.0007	0.0045	0.0082	59.1
0.0142	0.006	0.0067	0.012	59.1
0.0135	0.009	0.0097	0.0105	59
0.0112	0.0082	0.0082	0.0075	59
0.0082	0.0015	0.0052	0.0007	59
0.0015	-0.0008	0.0022	-0.0015	58.9
-0.003	0	0.0015	-0.0023	58.9
-0.0046	0.0007	0.0022	-0.0038	58.9
-0.0053	-0.0008	-0.0008	-0.0038	58.8
-0.0053	-0.0015	0.0037	-0.0038	58.8
-0.0091	-0.003	0.0105	-0.0023	58.8
-0.012	-0.0038	0.0127	-0.003	58.7
-0.0105	-0.0046	0.0097	-0.003	58.6
-0.0098	-0.0038	0.0067	-0.0015	58.5
-0.0083	-0.0015	0.0052	-0.0023	58.4
-0.0053	-0.0023	0.003	-0.0015	58.3
-0.0046	-0.0015	0.003	0	58.1
-0.0008	-0.0015	0.0045	0.0015	58
0.0015	-0.0015	0.0045	0.0037	57.9
0.003	-0.0008	0.0007	0.006	57.8
0.003	-0.0023	0.0052	0.0082	57.7
0.0015	-0.003	0.0127	0.0075	57.6
-0.0015	-0.0015	0.0142	-0.0008	57.5
-0.0053	-0.0015	0.0225	-0.0075	57.3
-0.0091	-0.0046	0.0277	-0.0098	57.2
-0.0135	-0.0053	0.0315	-0.012	57.1
-0.0135	-0.0046	0.0405	-0.003	57
-0.0158	-0.0068	0.0442	0.0142	56.9
-0.0181	-0.0091	0.045	0.0255	56.8
-0.0165	-0.012	0.0427	0.027	56.7
-0.0158	-0.0105	0.0435	0.0217	56.6
-0.0128	-0.0091	0.0427	0.0202	56.4
-0.0135	-0.0098	0.0427	0.0127	56.2
-0.0135	-0.0091	0.0405	0.0105	56.1
-0.0143	-0.0083	0.0367	0.0105	55.9
-0.0105	-0.0053	0.024	0.0015	55.7
-0.0046	-0.0015	0.003	-0.0046	55.5
-0.0008	0.0015	-0.0053	-0.0068	55.3
0.0037	0.003	-0.0053	-0.0075	55.1
0.006	0.003	-0.0053	-0.0068	54.9
0.0037	0.0015	-0.0046	-0.003	54.8
-0.0008	0.0022	-0.003	0.0015	54.5
0	0.0007	-0.0015	0.0015	54.4
0	-0.0015	0.0015	0.003	54.2
-0.0008	-0.0015	0.003	0.0015	54
0.0022	-0.0008	0.0007	-0.0015	53.8
0.0052	-0.0015	-0.0015	-0.0015	53.6
0.0045	-0.003	-0.0038	-0.0015	53.5
0.0037	-0.003	-0.003	-0.0008	53.2
0.0045	-0.0015	-0.0038	-0.0015	53.1
0.003	0	-0.003	-0.0023	52.9
0.0007	0.0007	-0.0023	0.0015	52.6
0.0015	0.003	-0.0046	0.0015	52.5
0.0022	0.0015	-0.0015	0.003	52.2
0.0015	-0.0015	0.0007	0.0037	52
0.0015	0	0.0015	0.006	51.7
0.0015	0	0.0037	0.0052	51.5
0.0015	0.0007	0	0.003	51.3
0.003	0	-0.0008	0.003	51
0.0022	-0.0008	0	0.0015	50.8
0.0015	0.0007	0.0015	0.0022	50.5
-0.0008	0.0007	0.0015	0	50.3
0.0007	0.0015	-0.0068	-0.0008	50
0.003	0.0045	-0.0128	0.0007	49.8
0.0067	0.003	-0.0203	-0.0091	49.5
0.0105	0.0052	-0.0278	-0.0248	49.3
0.0105	0.009	-0.0293	-0.0353	49
0.009	0.009	-0.0308	-0.0368	48.8
0.0097	0.009	-0.03	-0.0308	48.6
0.0105	0.0067	-0.0278	-0.03	48.3
0.0097	0.0045	-0.024	-0.0128	48.1
0.009	0.0022	-0.0225	0.0292	47.8
0.0082	-0.0008	-0.0203	0.0307	47.5
0.0045	-0.0023	-0.015	0.0052	47.2
0.0015	-0.0038	-0.0091	0.0015	46.9
0.003	-0.0038	-0.0098	0.003	46.6
0.0015	-0.0008	-0.0046	-0.0008	46.3
0.0015	-0.0015	0.006	-0.0083	46
0.0022	-0.0023	0.0015	-0.003	45.7
0.003	-0.003	-0.0053	-0.003	45.4
0.009	0.0015	-0.0203	-0.0113	45.1
0.0105	0.0075	-0.0285	-0.0008	44.8
0.0105	0.0082	-0.0233	0.0082	44.5
0.0105	0.0052	-0.027	0.0075	44.2
0.0082	0.0037	-0.0285	0.003	43.9
0.006	0.0037	-0.0278	-0.0053	43.6
0.0067	0.0015	-0.0285	-0.0188	43.3
0.0045	0.0015	-0.0218	-0.024	43
0.0015	0.0037	-0.0181	-0.0165	42.7
-0.0015	0.0015	-0.0158	-0.0053	42.3
-0.0038	-0.0046	-0.0075	0.0037	42.1
-0.0015	-0.003	-0.0053	0.009	41.7
-0.0046	-0.0023	-0.003	0.009	41.4
-0.0038	-0.0008	0.0022	0.0082	41.1
-0.0038	-0.0008	0.0075	0.0067	40.8
-0.0038	-0.0068	0.0067	0.0007	40.5
0	-0.0075	0.0045	-0.0068	40.2
0.0015	-0.0053	0.0052	-0.0091	39.9
0	-0.0023	0.0045	-0.0083	39.6
0	0.0037	0.003	0	39.2
0.0015	0.0067	0.0052	0.0082	38.9
-0.0015	0.009	0.0052	0.0142	38.6
-0.0008	0.006	0.0052	0.018	38.2
0	0.003	0.0082	0.003	37.9
-0.0038	-0.003	0.0127	-0.0233	37.6
-0.0038	-0.006	0.0142	-0.0315	37.3
-0.0068	-0.0046	0.0165	-0.0165	37
-0.0075	-0.0046	0.0172	0.006	36.7
-0.0075	-0.003	0.0165	0.0285	36.4
-0.0091	-0.006	0.018	0.0367	36
-0.0068	-0.0075	0.0165	0.0277	35.7
-0.0068	-0.0046	0.0172	0.009	35.4
-0.0053	0.0015	0.0165	-0.0075	35.1
-0.003	0.006	0.0165	-0.0098	34.7
-0.0038	0.006	0.015	0.003	34.4
-0.0015	0.003	0.0105	0.0202	34.1
-0.003	-0.0015	0.0082	0.0277	33.7
-0.003	-0.003	0.0052	0.024	33.4
-0.0015	-0.006	0.003	0.0105	33.1
0.0022	-0.0068	-0.0008	0	32.8
0.0022	-0.003	0.003	-0.0053	32.4
0.0015	-0.0023	0.0045	-0.0083	32.1
0.0007	-0.0008	0.0015	-0.0091	31.8
0.0007	0.0007	-0.0008	-0.0098	31.5
0.0022	0.0015	-0.0046	-0.0083	31.1
0.0007	0.0007	-0.0046	-0.0068	30.8
0.0015	0	-0.0046	-0.0053	30.5
0.0007	-0.0023	-0.0015	-0.0053	30.1
-0.0008	-0.003	-0.003	-0.0105	29.8
0.0007	-0.0038	-0.006	-0.0105	29.5
-0.0008	-0.003	-0.0008	-0.0083	29.1
-0.003	-0.0008	-0.0008	-0.0083	28.8
-0.0015	0.0015	0	-0.0068	28.4
-0.0015	0.0022	0.0015	-0.0143	28.1
0.0007	0.0052	-0.003	-0.0285	27.8
0.0022	0.009	-0.0105	-0.0465	27.4
0.003	0.012	-0.0158	-0.0578	27
0.0015	0.0157	-0.0181	-0.0518	26.7
-0.0008	0.0157	-0.0195	-0.039	26.3
0.0015	0.0142	-0.0188	-0.012	26
0.0015	0.0135	-0.0195	0.018	25.6
0.0052	0.0105	-0.0181	0.0427	25.3
0.0045	0.0052	-0.0143	0.0615	24.9
0.0015	-0.006	-0.012	0.0562	24.6
0.0007	-0.0165	-0.003	0.0442	24.3
0.0007	-0.0158	0	0.0352	23.9
0.0052	-0.0181	0.003	0.018	23.5
0.0045	-0.0195	0.0015	-0.0046	23.2
0.0075	-0.0098	0.0015	-0.015	22.8
0.0052	-0.0046	0.009	-0.0113	22.5
0.0045	-0.0015	0.012	-0.0053	22.1
0.0067	-0.0008	0.012	-0.0015	21.7
0.003	-0.003	0.006	0.006	21.5
0.0015	-0.0053	0.0127	0.009	21.1
-0.0015	-0.0068	0.0165	0.0015	20.8
0.0007	-0.0023	-0.0046	-0.0038	20.4
0.0075	0.0052	-0.0218	-0.0053	20.1
0.006	0.006	-0.0188	-0.0083	19.8
0.0045	0.0045	-0.015	-0.012	19.4
0.0037	0.0052	-0.0128	-0.0158	19.1
0.0045	0.0022	-0.0015	-0.0098	18.8
0.003	0.0007	0	-0.0046	18.4
0.0067	0.0015	0.0015	-0.003	18.1
0.0045	-0.0015	0.0142	0	17.8
-0.0023	-0.0038	0.0217	-0.0008	17.5
-0.0023	-0.0015	0.0142	-0.0046	17.1
-0.0023	0.0015	0.0045	-0.0075	16.8
-0.003	0.0045	0.0015	-0.012	16.5
-0.0023	0.0045	-0.0038	-0.0158	16.1
-0.003	0.0045	-0.0128	-0.0195	15.8
-0.0015	0.0037	-0.0173	-0.0195	15.4
-0.0015	0.0015	-0.0195	-0.0105	15.1
-0.0008	-0.0015	-0.0293	0.0007	14.9
0.0007	-0.0015	-0.03	0.0075	14.7
0.0015	-0.0008	-0.0218	0.0165	14.4
0.003	-0.0008	-0.0143	0.0262	14.2
-0.0015	-0.003	0.0037	0.0285	14
-0.0008	-0.0083	0.0255	0.0315	13.8
0.0015	-0.0083	0.039	0.0277	13.5
-0.0015	-0.0068	0.0427	0.0187	13.3
-0.0015	-0.0053	0.0345	0.0127	13.1
-0.003	0	0.0247	0.012	12.9
-0.0046	0.0015	0.0157	0.009	12.6
-0.003	0.0015	0.0082	0.0052	12.4
0.0045	0.0052	0.0007	0.003	12.2
0.0082	0.0082	-0.0128	0.0007	12
0.003	0.0067	-0.0128	0.0015	11.7
-0.0046	0.0015	-0.0091	-0.0008	11.5
-0.0091	-0.0008	-0.012	-0.0008	11.3
-0.0128	-0.0023	-0.0083	0.0007	11.1
-0.0173	-0.0015	-0.012	-0.0008	10.8
-0.0158	0.0015	-0.015	-0.0015	10.6
-0.0105	0.003	-0.0128	-0.0008	10.5
-0.003	0.003	-0.0158	-0.0015	10.5
0.0045	0.0045	-0.0233	-0.0046	10.4
0.012	0.0052	-0.0368	-0.0075	10.3
0.0165	0.0015	-0.0346	-0.0068	10.3
0.0127	-0.003	-0.003	-0.0023	10.2
0.0022	-0.0038	0.027	0	10.1
0.003	-0.0008	0.027	-0.003	10
0.006	-0.0008	0.033	-0.0046	10
-0.0015	-0.0015	0.0367	-0.0083	9.9
-0.0015	-0.0046	0.0315	-0.0053	9.8
-0.0091	-0.0113	0.0405	0.003	9.8
-0.0128	-0.012	0.039	0.0097	9.7
-0.012	-0.0075	0.051	0.0165	9.6
-0.0113	-0.0068	0.0517	0.0202	9.5
-0.0046	-0.0068	0.039	0.021	9.4
-0.0038	-0.0068	0.0307	0.012	9.4
-0.003	-0.0068	0.0142	0.0007	9.3
-0.0046	-0.0083	0.012	-0.003	9.3
-0.0015	-0.0053	0.0082	-0.006	9.1
0.0105	-0.0015	-0.0015	-0.0053	9.1
0.0232	0.0022	-0.0083	-0.0015	9.1
0.0195	0.0052	-0.0181	0.003	9.1
0.006	0.0045	-0.024	0.0045	9.1
-0.0015	0.0052	-0.0256	-0.0015	9.1
-0.0105	0.0067	-0.0256	-0.0068	9.1
-0.0181	0.0052	-0.0256	-0.0083	9
-0.0195	0.0045	-0.0285	-0.0128	9
-0.0181	0.003	-0.021	-0.0143	9
-0.0165	0.0007	-0.0075	-0.015	9
-0.0098	0.0015	-0.0038	-0.0195	9
-0.0015	0.0075	-0.0105	-0.0218	9
0.0067	0.0105	-0.0143	-0.0128	9
0.009	0.0045	-0.0083	0.0037	8.9
0.0067	-0.003	-0.0008	0.0142	8.9
0.0127	-0.0091	0.0315	0.024	8.9
0.0157	-0.0158	0.0517	0.027	8.9
0.0135	-0.0135	0.0457	0.0217	8.9
0.0037	-0.0128	0.0442	0.009	8.8
0.0007	-0.0135	0.0352	-0.0046	8.8
0.0015	-0.0105	0.0352	-0.0053	8.8
-0.003	-0.0083	0.0292	-0.0053	8.8
-0.003	-0.0046	0.0202	-0.0083	8.7
0	-0.0015	0.0135	-0.0091	8.7
0.0052	0.0007	0.0007	-0.0128	8.6
0.0037	0.0015	0.0015	-0.0165	8.6
0	0.0007	-0.0015	-0.021	8.6
-0.0091	-0.0046	-0.0023	-0.0218	8.5
-0.0218	-0.0053	0.0045	-0.0135	8.5
-0.0233	0.0007	-0.0008	-0.0068	8.5
-0.0158	0.0015	-0.0113	-0.0068	8.5
-0.0105	0.0022	-0.0173	-0.0038	8.5
-0.0091	0.0045	-0.0225	-0.0023	8.4
-0.006	0.0067	-0.0218	-0.012	8.4
-0.0105	0.0105	-0.012	-0.0181	8.3
-0.0165	0.0112	-0.0046	-0.0135	8.3
-0.0173	0.0097	0.0067	-0.006	8.3
-0.0091	0.009	0.0067	-0.003	8.2
-0.0008	0.0052	0.0067	0.0097	8.2
-0.006	-0.0015	0.0082	0.0307	8.1
-0.0023	-0.0053	-0.0195	0.0247	8.2
0.0082	-0.0091	-0.0278	0.012	8.2
0.0067	-0.0128	-0.024	0.0022	8.3
0.009	-0.0091	-0.0263	-0.012	8.4
0.009	-0.0053	-0.0128	-0.0128	8.4
0.0112	-0.0008	-0.0053	-0.006	8.5
0.0172	0.0007	-0.003	0.0045	8.5
0.0142	-0.003	0.0037	0.0172	8.6
0.012	-0.0091	0.009	0.0232	8.6
0.0142	-0.0143	0.0127	0.0232	8.7
0.0172	-0.0143	0.009	0.0157	8.7
0.0172	-0.0091	0.009	0.0082	8.8
0.0195	-0.0023	0.0105	0.0052	8.9
0.0232	0.0052	0.0015	0.0052	8.9
0.0277	0.0097	0.0022	0.006	9
0.0337	0.0142	0.0045	0.0067	9
0.039	0.018	0.003	-0.0008	9
0.0382	0.0217	0.0015	-0.0091	9.1
0.0322	0.024	-0.0098	-0.0105	9.2
0.0352	0.0195	-0.0173	-0.0143	9.2
0.0337	0.0052	-0.012	-0.0203	9.4
0.0127	-0.0098	0.0015	-0.0233	9.4
-0.012	-0.0143	0.0067	-0.0293	9.6
-0.0315	-0.0128	0.0022	-0.0315	9.7
-0.0458	-0.0128	0	-0.027	9.9
-0.0503	-0.0135	-0.0053	-0.0225	9.9
-0.0428	-0.0113	-0.0195	-0.003	10.1
-0.0256	-0.0083	-0.0346	0.0217	10.2
-0.0158	-0.0068	-0.0353	0.0142	10.3
-0.006	-0.003	-0.0165	-0.003	10.4
0.0015	0.0097	-0.0083	-0.0015	10.6
0.003	0.0285	-0.0075	0.0082	10.7
0.0082	0.0352	-0.0023	0.0232	10.8
0.0067	0.0217	-0.003	0.0217	10.9
-0.003	0.0075	-0.0015	0.012	11.1
-0.0346	0.003	0	0.003	11.2
-0.063	-0.0038	0.0015	-0.0113	11.3
-0.0721	-0.0053	-0.003	-0.015	11.4
-0.0645	-0.0075	-0.0008	-0.0128	11.5
-0.042	-0.0098	0.0127	0.003	11.7
-0.0165	-0.0023	0.0157	0.0195	11.7
0.0165	0.0007	0.0232	0.0187	11.8
0.0352	-0.0023	0.024	0.0157	11.8
0.048	-0.0038	0.024	0.0052	11.9
0.066	-0.0023	0.0202	0.0067	12
0.075	0.0045	0.006	0.0112	12
0.0855	0.0082	-0.0113	0.0037	12.1
0.0885	0.0052	-0.0308	-0.0023	12.1
0.0742	-0.0023	-0.0375	-0.0075	12.2
0.0345	-0.0128	-0.042	-0.012	12.2
-0.0091	-0.0158	-0.054	-0.0128	12.3
-0.039	-0.012	-0.063	-0.0113	12.4
-0.057	-0.0068	-0.0458	-0.012	12.4
-0.048	0.0007	-0.0256	-0.0128	12.5
-0.0413	0.0045	-0.0218	-0.0113	12.6
-0.0413	0.0052	-0.0098	-0.0091	12.6
-0.0413	0.0082	-0.0008	-0.0075	12.6
-0.0465	0.0112	0.0052	-0.0038	12.7
-0.0293	0.0165	0.0112	-0.0023	12.8
-0.0083	0.0172	0.0157	-0.0015	12.8
0.0127	0.0142	0.021	-0.0038	12.8
0.0405	0.0045	0.015	-0.012	12.8
0.0457	-0.006	0.012	-0.0165	12.8
0.0487	-0.0091	0.012	-0.0158	12.8
0.0465	-0.0068	0.0082	-0.0143	12.8
0.021	-0.0038	-0.003	-0.0135	12.8
0.0172	-0.003	-0.024	-0.012	12.8
0.027	-0.0046	-0.0368	-0.0083	12.8
0.0345	-0.0105	-0.0353	-0.0075	12.8
0.0352	-0.0091	-0.0346	-0.0053	12.8
0.0307	-0.0008	-0.0256	-0.0008	12.8
0.033	0.0015	-0.0165	0.0007	12.8
0.0367	0.0037	-0.0128	0.0007	12.8
0.0405	-0.0015	-0.0015	-0.0015	12.8
0.0232	-0.0083	0.0112	0.0045	12.8
-0.0068	-0.0091	0.027	0.0105	12.8
-0.0353	-0.0091	0.0292	0.0097	12.8
-0.0593	-0.0038	0.0315	0.0082	12.8
-0.0721	-0.0023	0.0337	0.0015	12.8
-0.0668	-0.0038	0.0285	-0.003	12.8
-0.0503	-0.0053	0.0352	0.0022	12.9
-0.0511	-0.0053	0.0397	0.009	12.9
-0.0405	-0.0015	0.039	0.0172	13
-0.0315	-0.0015	0.0352	0.027	13
-0.039	-0.0053	0.0315	0.03	13.1
-0.0361	-0.0053	0.0277	0.027	13.2
-0.0225	-0.003	0.0255	0.021	13.3
0.0015	-0.0023	0.0285	0.0165	13.4
0.009	-0.0015	0.0232	0.0157	13.4
0.003	0.0015	0.0157	0.015	13.5
-0.0008	0.003	0.012	0.012	13.6
-0.0098	0.0022	0.0172	0.0082	13.6
-0.0293	-0.003	0.024	0.0022	13.7
-0.0511	-0.0105	0.0135	-0.0023	13.8
-0.0578	-0.0068	0.0015	-0.0008	13.9
-0.0533	-0.0008	-0.0046	0	13.9
-0.0458	0.0022	-0.012	-0.0008	14
-0.0203	0.0052	-0.0165	0.0007	14.1
0.009	0.0052	-0.0173	0.0007	14.1
0.0337	0.0097	-0.0015	0.0007	14.2
0.0592	0.0082	0.0082	-0.0023	14.2
0.0825	0.0067	0.0045	-0.0053	14.3
0.09	0.0067	0.0157	-0.0038	14.3
0.0787	0.003	0.0322	-0.0046	14.3
0.069	0	0.0352	-0.0046	14.3
0.048	-0.0008	0.0142	-0.0015	14.3
0.027	-0.0023	-0.0023	-0.0015	14.4
0.003	-0.0053	-0.0105	-0.0015	14.4
-0.0165	-0.0053	-0.0068	0.003	14.4
-0.0188	-0.003	-0.0068	0.0045	14.4
-0.0128	0.0007	-0.0293	0.0045	14.4
-0.0135	0.003	-0.0458	0.0007	14.4
-0.0098	0.0045	-0.0503	-0.003	14.4
0.0105	0.012	-0.0405	-0.0008	14.5
0.0045	0.0157	-0.0256	-0.0038	14.5
-0.0233	0.0112	-0.0218	-0.0053	14.5
-0.0293	0.009	-0.0383	-0.0075	14.5
-0.0128	0.006	-0.0353	-0.0068	14.5
0.0015	0.0007	-0.0128	-0.0053	14.6
0.0277	0.0045	-0.012	-0.0046	14.6
0.048	0.0067	-0.012	-0.0015	14.6
0.0495	-0.0068	-0.0105	-0.006	14.6
0.0472	-0.0181	-0.0128	-0.0105	14.6
0.0292	-0.0128	-0.0053	-0.0075	14.6
0.0127	-0.003	-0.0015	-0.0053	14.6
0.003	-0.0008	-0.0083	-0.0053	14.5
-0.0053	-0.0046	-0.0195	-0.0098	14.5
-0.0143	-0.0075	-0.0248	-0.012	14.5
-0.0293	-0.0053	-0.024	-0.0091	14.5
-0.0346	-0.0046	-0.0165	-0.0053	14.5
-0.0323	-0.003	-0.0068	-0.0015	14.5
-0.0338	-0.0023	-0.0098	-0.0038	14.5
-0.03	-0.0015	-0.015	-0.003	14.5
-0.0278	-0.0008	-0.0225	-0.0015	14.5
-0.0293	0.0045	-0.024	0.0015	14.4
-0.033	0.009	-0.0218	0.0067	14.4
-0.033	0.0127	-0.0248	0.0082	14.4
-0.0225	0.015	-0.0195	0.009	14.4
-0.0195	0.0112	-0.0083	0.0067	14.4
-0.0143	0.0015	0.0067	0.0037	14.4
-0.0128	-0.0046	0.0202	0.0022	14.4
-0.012	-0.0038	0.0315	0.0037	14.4
0.0015	-0.0008	0.0345	0.006	14.4
0.0202	-0.0015	0.0352	0.0052	14.4
0.0382	-0.0068	0.0405	0.0075	14.4
0.054	-0.0091	0.042	0.0067	14.4
0.069	-0.0046	0.048	0.0067	14.4
0.0652	-0.0068	0.0577	0.0075	14.4
0.0637	-0.0105	0.0547	0.0007	14.4
0.0615	-0.0113	0.048	-0.0008	14.4
0.0277	-0.0113	0.0532	0.0015	14.4
-0.0128	-0.0068	0.0532	0.0045	14.4
-0.0256	-0.0053	0.0427	0.0052	14.4
-0.0293	-0.0046	0.0337	0.0045	14.4
-0.0338	-0.0046	0.0307	0.0045	14.4
-0.0315	-0.0038	0.0255	0.0045	14.4
-0.0315	-0.0008	0.0172	0.0045	14.4
-0.03	-0.0015	0.012	0.003	14.4
-0.0263	0.0015	0.015	0.0022	14.4
-0.0195	0.0022	0.0165	0.003	14.4
-0.012	0.003	0.0142	0.0015	14.4
-0.0091	0.003	0.0195	0.0007	14.4
-0.0068	0.0007	0.0165	0.0015	14.4
-0.0143	-0.0015	0.006	0.0015	14.3
-0.0225	-0.0015	-0.003	-0.0008	14.2
-0.0203	0.0015	-0.0128	-0.0023	14.2
-0.0068	0.0037	-0.0256	-0.003	14.1
0.0037	0.0052	-0.0263	-0.0015	14.1
0.0097	0.003	-0.0195	0	14
0.0105	0.0007	-0.0195	0	13.9
0.0067	-0.0008	-0.0218	0.0007	13.9
0.0105	-0.0015	-0.0225	0	13.9
0.0135	0.0007	-0.0233	-0.0015	13.8
0.0165	0.0015	-0.0233	-0.0023	13.8
0.027	0.0015	-0.0315	-0.0046	13.7
0.0375	0.003	-0.0443	-0.0068	13.7
0.0315	0.0052	-0.0525	-0.006	13.6
0.0142	0.0052	-0.0368	-0.0023	13.5
0.0052	0.0007	-0.0188	-0.0008	13.5
0.0015	0.0007	-0.0128	-0.0008	13.4
-0.0046	-0.0015	-0.0038	0.0007	13.4
-0.0068	-0.003	-0.0008	0.0007	13.4
-0.0113	-0.0038	-0.0008	0	13.4
-0.0091	-0.003	0.0037	0.0007	13.4
0.0015	0	0.0195	0.0015	13.4
0.0067	0.0007	0.0292	-0.0008	13.4
0.0082	0.0015	0.0255	-0.0023	13.4
0.0067	-0.0008	0.0195	-0.0015	13.4
0.0082	-0.0015	0.0105	-0.003	13.4
0.0075	-0.0008	0.009	-0.0015	13.4
0.0015	0	0.0142	-0.0008	13.4
-0.0053	-0.0015	0.0142	-0.0038	13.4
-0.0158	-0.0068	0.0135	-0.0046	13.4
-0.0195	-0.003	0.0112	-0.0053	13.4
-0.0233	-0.003	0.0135	-0.0053	13.4
-0.0225	-0.003	0.018	-0.0046	13.4
-0.0181	-0.0008	0.0217	-0.0046	13.3
-0.0195	-0.003	0.018	-0.003	13.3
-0.0173	-0.003	0.0037	-0.0023	13.3
-0.0046	-0.0015	-0.0046	-0.0008	13.3
0.015	0.0007	-0.0098	-0.0015	13.3
0.0262	0.0037	-0.0105	-0.0023	13.3
0.033	0.003	-0.0105	-0.0046	13.3
0.0397	0.0052	-0.0068	-0.0046	13.3
0.0352	0.003	0.0015	-0.006	13.4
0.0195	-0.0068	0.0045	-0.0113	13.4
-0.0008	-0.0105	0.003	-0.0091	13.4
-0.0083	-0.0068	0.0045	-0.0091	13.4
-0.0105	-0.0068	0.012	-0.0098	13.4
-0.0135	-0.0053	0.0075	-0.0091	13.5
-0.0158	-0.003	0.0037	-0.0083	13.5
-0.0165	-0.0046	0.003	-0.0068	13.5
-0.015	0.0007	-0.0046	-0.0075	13.5
-0.0105	0.003	-0.0083	-0.0053	13.5
0.0015	0.0052	-0.012	-0.0053	13.5
0.0127	0.009	-0.0165	-0.0068	13.5
0.0157	0.0082	-0.0181	-0.0083	13.5
0.009	0.0045	-0.027	-0.012	13.5
0.0037	0.0037	-0.0308	-0.012	13.6
0	0.0067	-0.0315	-0.0098	13.6
-0.0015	0.0112	-0.0278	-0.0091	13.6
-0.0015	0.009	-0.024	-0.0105	13.6
-0.0135	0.0082	-0.033	-0.0105	13.6
-0.0128	0.006	-0.0383	-0.0083	13.6
-0.0038	0.0045	-0.033	-0.0083	13.6
0.003	0.003	-0.0263	-0.0068	13.6
0.0082	0.0007	-0.0218	-0.003	13.6
0.0127	-0.0008	-0.0218	-0.0008	13.6
0.0157	0.003	-0.0248	0	13.6
0.0195	0.006	-0.024	0	13.6
0.0202	0.0045	-0.0195	0.0007	13.6
0.009	-0.0023	-0.0165	0	13.6
0.0045	-0.003	-0.0113	0.0007	13.6
0.0045	-0.0008	-0.012	0.003	13.6
0.0045	-0.0008	-0.0113	0.0045	13.7
0.0015	-0.0023	-0.0105	0.0045	13.7
-0.0046	-0.003	-0.0188	0.0015	13.7
-0.006	-0.003	-0.0195	0.0015	13.7
-0.0083	-0.0046	-0.0158	0.0052	13.7
-0.006	-0.003	-0.012	0.0052	13.7
-0.003	-0.0015	-0.0158	0.0045	13.7
-0.0008	0.0007	-0.021	0.0052	13.6
0.0052	0.0015	-0.024	0.0037	13.6
0.0135	0.0045	-0.0346	0.0015	13.6
0.0202	0.0112	-0.0405	0.003	13.5
0.024	0.0157	-0.042	0.0045	13.5
0.0255	0.0202	-0.0458	0.003	13.5
0.024	0.018	-0.0518	0.0007	13.4
0.0232	0.015	-0.0578	-0.003	13.4
0.0232	0.0127	-0.0653	-0.0053	13.3
0.024	0.0082	-0.0615	-0.0053	13.3
0.0157	0.0052	-0.048	-0.003	13.3
0.0045	0.003	-0.0428	-0.0046	13.2
0.0052	0.0015	-0.0368	-0.0038	13.2
0.0105	0.0015	-0.033	-0.0015	13.1
0.0112	0.003	-0.0278	-0.0023	13.1
0.012	0.0052	-0.0218	-0.0015	13.1
0.0127	0.0045	-0.0158	-0.0008	13
0.0157	0.0015	-0.0075	-0.0008	13
0.0165	-0.0008	-0.0046	-0.0008	12.9
0.009	-0.0023	-0.0015	0.0015	12.9
-0.0008	-0.003	0.0015	0	12.9
-0.0046	-0.0023	0.0045	0.0015	12.8
-0.0075	-0.0008	0.0075	0.0052	12.7
-0.0083	-0.0015	0.0097	0.0067	12.7
-0.0105	-0.0008	0.0082	0.0082	12.6
-0.0135	-0.0015	0.009	0.009	12.6
-0.0203	-0.0046	0.0157	0.0082	12.5
-0.0308	-0.0068	0.0232	0.009	12.5
-0.042	-0.0075	0.0307	0.009	12.4
-0.0428	-0.0083	0.036	0.0127	12.4
-0.0383	-0.0091	0.0382	0.0127	12.3
-0.033	-0.0113	0.039	0.012	12.2
-0.0256	-0.0128	0.039	0.0127	12.2
-0.0165	-0.0075	0.042	0.0127	12.1
-0.0068	-0.0046	0.0442	0.0127	12.1
0.003	-0.0023	0.0457	0.0097	12.1
0.0097	-0.003	0.054	0.0105	12
0.0142	-0.0075	0.0585	0.009	11.9
0.0202	-0.0083	0.0652	0.0052	11.8
0.0195	-0.0083	0.0652	0.0052	11.8
0.0142	-0.0083	0.0532	0.003	11.8
0.0052	-0.0083	0.0457	0.0015	11.7
-0.0023	-0.0098	0.0427	0	11.7
-0.0053	-0.0128	0.0457	-0.0008	11.6
-0.015	-0.0143	0.039	0.0007	11.6
-0.0165	-0.0113	0.0307	0.0007	11.5
-0.0158	-0.0068	0.0225	0.0007	11.5
-0.015	-0.0046	0.0127	0.0007	11.4
-0.0105	-0.003	0.0075	0.0007	11.4
-0.0105	-0.0023	0.0022	0.0015	11.3
-0.0098	-0.003	0.0045	0.0015	11.3
-0.0091	-0.0008	0.0015	-0.0008	11.2
-0.0068	0.0022	-0.003	-0.0038	11.2
-0.0046	0.0022	-0.003	-0.0046	11.1
0	0.0045	-0.006	-0.003	11.1
0.0022	0.003	-0.0053	-0.0015	11
0	-0.0008	-0.0015	-0.0008	11
-0.0015	-0.0023	-0.0015	-0.003	10.9
-0.0008	-0.0015	-0.0015	-0.0023	10.8
-0.0015	0.0015	-0.0023	-0.0015	10.8
-0.0015	0.0007	-0.0008	-0.003	10.8
0.0007	0.0022	-0.0008	-0.0008	10.7
-0.0015	0.0015	0.0022	0	10.7
-0.0008	0.0007	0.0045	-0.0008	10.7
0.0007	0.003	0.0045	-0.0008	10.6
0	0.0007	0.009	0.0007	10.6
-0.0008	-0.0008	0.0142	0.0007	10.5
-0.0015	-0.0015	0.0157	0	10.5
0.0015	-0.0046	0.015	0.0007	10.4
0.0022	-0.003	0.0075	0.0007	10.4
0.0022	-0.003	0.0052	-0.0015	10.3
0.0007	-0.0008	0.0067	-0.0015	10.3
-0.0015	-0.0015	0.0052	0.0007	10.3
-0.003	0	0.0037	-0.0008	10.2
-0.0038	0.0007	0.0045	-0.0008	10.2
0.0007	0.0007	0.003	-0.0015	10.1
0.003	0.0007	0.003	-0.003	10.1
0.0015	-0.003	0.006	0.0007	10
0.0015	-0.0008	0.003	-0.0008	9.9
0	0	0.006	0	9.9
0.0015	-0.0015	0.0105	0.0007	9.9
0	-0.0008	0.0127	-0.0008	9.9
-0.0023	-0.0023	0.0142	0.0007	9.8
-0.003	-0.0015	0.0127	0	9.8
-0.0038	-0.0008	0.012	0.003	9.7
-0.0008	0.0015	0.0075	0.0022	9.7
-0.0008	0.0015	0.0067	-0.0008	9.6
-0.0008	-0.0008	0.0075	-0.0015	9.6
-0.0008	-0.0015	0.009	-0.0015	9.5
-0.0015	-0.0008	0.0127	-0.0015	9.5
-0.0023	-0.0015	0.0135	-0.0068	9.4
-0.0015	-0.0046	0.015	-0.0068	9.4
-0.0008	-0.003	0.0202	-0.003	9.4
-0.0053	-0.003	0.0315	-0.0023	9.3
-0.0083	-0.006	0.039	-0.0023	9.3
-0.0105	-0.0068	0.045	0.003	9.2
-0.0128	-0.0068	0.0547	0.0105	9.2
-0.0143	-0.0075	0.0585	0.0067	9.1
-0.0143	-0.0083	0.0577	-0.0023	9
-0.0143	-0.0083	0.057	-0.0091	9
-0.0158	-0.0075	0.0547	-0.0053	9
-0.012	-0.0075	0.0517	0.0007	9
-0.0091	-0.0083	0.042	0.0067	9
-0.0053	-0.0091	0.0367	0.024	8.9
-0.0023	-0.0083	0.0315	0.03	8.9
-0.0008	-0.0068	0.0255	0.0232	8.9
-0.003	-0.0068	0.0202	0.0157	8.8
-0.0015	-0.0038	0.012	0.0082	8.8
0.003	-0.0008	0.0105	0.003	8.7
-0.0008	-0.0008	0.0112	-0.0015	8.7
-0.0008	-0.0008	0.015	-0.0023	8.7
-0.0023	-0.0015	0.018	-0.003	8.6
-0.0015	-0.003	0.015	-0.0046	8.6
0	-0.0023	0.0037	-0.0053	8.6
0.0015	0	-0.0068	-0.006	8.5
0.003	-0.0008	-0.0068	-0.0046	8.5
0.003	0.0007	-0.0113	-0.006	8.5
0.0045	0.0007	-0.012	-0.0053	8.5
0.003	0.0015	-0.0188	-0.0083	8.4
0.006	0.0045	-0.024	-0.0083	8.4
0.0067	0.0045	-0.0256	-0.0075	8.4
0.009	0.0052	-0.03	-0.0075	8.3
0.0082	0.0037	-0.0263	-0.006	8.3
0.0067	0.003	-0.027	-0.0075	8.2
0.0082	0.0082	-0.0285	-0.0083	8.2
0.009	0.0067	-0.0315	-0.0075	8.2
0.0105	0.0082	-0.0353	-0.0083	8.1
0.0105	0.0067	-0.0315	-0.0046	8.1
0.0105	0.006	-0.0308	-0.0046	8.1
0.0075	0.0067	-0.0315	-0.006	8.1
0.0097	0.0052	-0.033	-0.006	8
0.0082	0.0045	-0.0315	-0.0068	8
0.0052	0.0037	-0.0285	-0.0068	8
0.0075	0.0045	-0.0256	-0.0053	7.9
0.0052	0.0022	-0.0233	-0.003	7.9
0.0067	0.003	-0.027	-0.003	7.8
0.0105	0.0045	-0.0278	-0.0046	7.8
0.0097	0.003	-0.0293	-0.006	7.8
0.0082	0.0045	-0.033	-0.006	7.7
0.0075	0.0045	-0.0346	-0.0053	7.7
0.009	0.0052	-0.039	-0.0053	7.7
0.0105	0.0067	-0.045	-0.0075	7.7
0.0142	0.0067	-0.0495	-0.0083	7.6
0.0142	0.0067	-0.0465	-0.0068	7.6
0.0127	0.009	-0.0458	-0.0068	7.6
0.0112	0.006	-0.021	-0.0015	7.6
-0.0008	-0.0008	0	0.0007	7.6
0.0015	0.0015	-0.024	-0.0046	7.6
0.0082	0.0015	-0.0195	-0.0015	7.6
0.003	-0.0008	-0.0046	0.0007	7.6
0.0015	-0.0008	-0.0068	0	7.5
-0.0015	-0.0023	-0.0075	0	7.5
-0.0008	0.0007	-0.0135	-0.0008	7.5
-0.0015	-0.0008	-0.0105	-0.0008	7.5
0.0007	0.0007	-0.012	-0.0015	7.5
0.003	0.003	-0.0113	-0.003	7.4
0.0007	0.0015	-0.0128	-0.0015	7.4
0.0007	0.0007	-0.0158	-0.0038	7.4
0.003	0.0007	-0.0173	-0.0038	7.3
0.0075	0.0015	-0.012	-0.0015	7.3
0.0075	-0.0008	-0.0046	-0.0008	7.3
0.012	0.0007	-0.0015	0	7.3
0.009	0	0.0075	0.0015	7.3
0.009	-0.0046	0.012	0.0007	7.3
0.009	-0.0023	0.0097	-0.0015	7.3
0.003	-0.0053	0.009	-0.0008	7.3
-0.0008	-0.0053	0.0105	-0.0015	7.2
-0.0083	-0.0046	0.009	-0.003	7.2
-0.0053	-0.0046	0.0022	-0.0038	7.2
0	0.0007	-0.0046	-0.003	7.2
0.0052	0.0015	-0.0098	-0.003	7.2
0.0112	0.003	-0.0083	-0.0046	7.2
0.0112	0.0015	-0.0046	-0.0015	7.2
0.0067	-0.0008	0	0	7.2
0.003	0.0015	-0.0015	-0.0015	7.1
0.0007	0.0007	-0.0008	-0.0008	7.1
-0.0015	0.0007	0.0045	0.0015	7.1
-0.0038	0	0.009	0.0015	7.1
-0.0053	0	0.0105	0.0007	7
-0.0023	0	0.0007	-0.003	7
-0.0008	0	-0.0038	-0.003	7
0	0.0015	-0.0038	-0.0008	7
-0.0015	0.0007	-0.0053	0.0015	7
-0.003	0	-0.0015	0.0007	7
-0.0053	0.0007	-0.0046	-0.0015	7
-0.0053	0.0015	-0.0143	-0.003	7
-0.0015	0.003	-0.0181	-0.003	7
-0.0008	0.003	-0.021	-0.0046	6.9
-0.0023	0.003	-0.0195	-0.0038	6.9
-0.0038	0.0037	-0.015	-0.0023	6.9
-0.0046	0.003	-0.0158	-0.003	6.9
-0.0046	0.0022	-0.0188	-0.0015	6.9
-0.0038	0.0007	-0.024	-0.0015	6.9
-0.003	0.0007	-0.0218	-0.0023	6.8
-0.0015	0	-0.0181	0	6.8
-0.0008	-0.0015	-0.0113	-0.0008	6.8
-0.0008	-0.0015	-0.0068	-0.0015	6.8
0.0052	-0.0023	-0.0053	0.0007	6.8
0.009	-0.0008	0.0082	0.003	6.7
0.0105	-0.0008	0.0105	0.0037	6.7
0.0142	0	0.0105	0.003	6.7
0.0105	0	0.0157	0.0022	6.7
0.003	-0.0015	0.0195	0.0007	6.7
-0.0015	-0.0015	0.0247	0.0015	6.7
-0.006	-0.0015	0.0247	0.0015	6.7
-0.0068	0.0007	0.0277	0.0015	6.7
-0.0083	-0.0008	0.0262	0.0022	6.7
-0.0083	-0.0008	0.018	0.0015	6.7
-0.003	-0.0015	0.0105	0.0015	6.7
-0.0023	-0.0023	0.0037	0.0015	6.7
-0.0023	0.0007	0.0067	0.0022	6.6
-0.0046	-0.0008	0.0052	0.0015	6.6
-0.0046	-0.003	0.0052	0.0015	6.6
-0.0038	-0.0015	0.0067	0.0022	6.6
-0.0068	-0.0008	0.0045	0.0015	6.6
-0.0053	-0.003	0.0067	0.0045	6.6
-0.0046	-0.003	0.0082	0.0052	6.6
-0.0046	-0.003	0.0142	0.0052	6.5
-0.0053	-0.0053	0.012	0.0037	6.5
-0.0046	-0.0046	0.0082	0.0015	6.5
-0.0023	-0.0038	0.0075	0.0015	6.5
-0.0046	-0.003	0.009	0.0015	6.5
-0.0015	-0.003	0.009	0.0022	6.5
-0.003	-0.0008	0.0067	0.0022	6.5
-0.003	-0.0008	0.0037	0.0015	6.5
-0.0008	-0.0008	-0.0015	0.0007	6.5
-0.0015	-0.0008	0.0022	0.0007	6.4
-0.0023	-0.0015	0.0052	0.003	6.4
-0.0023	0	0.009	0.0015	6.4
-0.0053	-0.0008	0.0082	0.0022	6.4
-0.0046	-0.0015	0.0022	0.0015	6.4
-0.0053	0.0007	0.0067	0.0015	6.4
-0.006	0.0007	0.0067	0.0015	6.4
-0.0053	-0.0008	0.0082	0.0015	6.4
-0.003	-0.0008	0.003	0.0007	6.4
0.0007	-0.0008	0.0015	0	6.4
-0.0008	0.0007	0.0022	0.0007	6.3
0.0007	0.0015	-0.003	-0.0015	6.3
0.0015	0.003	-0.0083	-0.0023	6.3
0.0052	0.0045	-0.024	-0.0053	6.3
0.0067	0.003	-0.0143	-0.0008	6.3
-0.0015	0.0007	0.0082	0.0052	6.3
-0.0053	-0.0015	0.0112	0.0052	6.3
-0.0083	-0.0015	0.0165	0.0052	6.3
-0.0053	-0.003	0.0202	0.0045	6.2
-0.006	-0.0053	0.027	0.0067	6.2
-0.0105	-0.0046	0.027	0.0045	6.2
-0.0091	-0.0053	0.0255	0.0037	6.2
-0.0105	-0.006	0.0255	0.0067	6.1
-0.0053	-0.0046	0.0225	0.0052	6.1
-0.0068	-0.0053	0.0217	0.0067	6.1
-0.0068	-0.003	0.012	0.0052	6.1
-0.0015	0	0.006	0.0045	6.1
-0.0015	-0.0015	0.0052	0.0037	6
0.0022	-0.0015	0.0015	0.003	6
0.003	-0.0015	0.003	0.0045	6
0.0007	-0.0015	0.0052	0.003	6
0.0007	-0.0015	0.0037	0.003	5.9
0.003	-0.003	0.0052	0.0037	5.9
0.0052	-0.0023	0.0082	0.0015	5.9
0.0045	-0.0015	0.0082	0	5.9
0.0037	-0.0008	0.0067	0.0007	5.8
0.0007	0	0.0082	0.0022	5.8
-0.0008	0	0.0142	0.0022	5.8
-0.0008	-0.0023	0.018	0.0022	5.8
-0.0008	-0.0038	0.0232	0.0037	5.8
-0.0046	-0.0038	0.024	0.0052	5.8
-0.0053	-0.0046	0.0247	0.0045	5.7
-0.0053	-0.0046	0.0187	0.0022	5.7
-0.0015	-0.003	0.0067	0.0007	5.7
0.0037	0	0.003	-0.0008	5.6
0.0052	0.003	-0.0046	0.0022	5.6
0.0067	0.0037	-0.0105	0.0015	5.6
0.0045	0.0015	-0.0135	-0.0015	5.6
0.0067	0.0022	-0.0233	-0.0053	5.5
0.009	0.0045	-0.0308	-0.0098	5.5
0.0105	0.003	-0.0315	-0.012	5.5
0.0105	0.0015	-0.0293	-0.0128	5.5
0.0127	0.003	-0.0293	-0.0098	5.4
0.0135	0.0037	-0.027	-0.0068	5.4
0.0105	0.0022	-0.024	-0.0083	5.4
0.0105	0.003	-0.0263	-0.0068	5.3
0.012	0.003	-0.0195	-0.006	5.3
0.0105	0.0015	-0.0128	-0.0046	5.3
0.0045	0.0007	-0.0105	-0.0038	5.3
0.0045	0	-0.0091	-0.003	5.3
0.0037	-0.0015	-0.012	-0.0015	5.3
0.0052	0	-0.0105	-0.0015	5.2
0.0052	0.0007	-0.0075	0.0007	5.2
0.0007	0.0007	-0.0038	-0.0008	5.2
-0.0015	0.0022	0.0007	-0.0015	5.1
-0.003	0.0015	-0.0008	-0.0015	5.1
-0.0015	0.003	-0.003	-0.0038	5.1
-0.0046	0.0022	0	-0.0053	5.1
-0.003	0.003	-0.003	-0.0046	5
-0.003	0.003	-0.0053	0.0015	5
-0.0053	0	-0.0023	0.0045	5
0	-0.0008	-0.0023	0.0022	5
0	-0.003	-0.0023	0.0015	4.9
-0.0015	-0.0015	-0.0046	-0.0008	4.9
0.0015	-0.0015	-0.0053	-0.0023	4.9
0.0022	-0.003	-0.0113	-0.0053	4.9
0.0022	-0.003	-0.0128	-0.006	4.9
0.0022	-0.003	-0.0135	-0.0046	4.8
0.0045	-0.0015	-0.0128	-0.0046	4.8
0.0022	-0.0008	-0.0053	-0.0008	4.8
-0.0015	0.0015	-0.0053	0.0015	4.8
-0.0015	0.0022	-0.0046	0.0022	4.7
0.0007	0.0007	-0.006	0.0067	4.7
0	-0.0008	-0.0053	0.0067	4.7
0.0007	0.0007	-0.003	0	4.6
0.0022	0.0015	-0.003	-0.0046	4.6
0.0015	0.0022	-0.0008	-0.0083	4.6
0	0.0045	-0.0053	-0.012	4.6
0.0015	0.0052	-0.0068	-0.012	4.5
0.0007	0.0052	-0.003	-0.0083	4.5
-0.0008	0.0052	0.0007	-0.0008	4.5
0.0007	0.003	0.0045	0.003	4.5
0.0015	0.0037	-0.0008	0.003	4.4
0.0015	0.0045	0.0007	0.0007	4.4
0.0007	0.006	0.003	-0.0008	4.4
0.0015	0.0075	0.0015	0.0015	4.4
0.0015	0.0052	-0.0008	0.0015	4.4
0.0015	0	0.0022	0.0015	4.4
0.0007	-0.0083	0.0045	0.0037	4.4
-0.0008	-0.0135	0.0037	0.0127	4.4
0.0015	-0.0143	0.0067	0.021	4.3
-0.0008	-0.0135	0.0097	0.0255	4.3
-0.0008	-0.0113	0.0067	0.0202	4.3
-0.0023	-0.0068	0.0045	0.0052	4.3
-0.0053	-0.0083	0.0052	-0.0015	4.3
-0.0008	-0.0091	0.0082	-0.0046	4.2
-0.003	-0.0046	0.006	-0.0053	4.2
-0.0015	-0.0015	0.0075	-0.0098	4.2
0	-0.0008	0.0007	-0.0165	4.2
0.0007	0.0022	-0.003	-0.0158	4.2
0.0022	0.0007	0.0015	-0.0165	4.2
0.0007	0.0015	-0.0038	-0.0173	4.1
0.0007	0.0045	-0.0068	-0.0143	4.1
0.0007	0.0045	-0.0083	-0.0113	4.1
0.0045	0.0045	-0.0143	-0.0091	4.1
0.0075	0.0052	-0.0195	-0.0053	4.1
0.0097	0.0015	-0.015	0.0052	4.1
0.0067	-0.0046	-0.0053	0.0127	4.1
0.0037	-0.0053	0.0007	0.0142	4.1
-0.0015	-0.0015	0.009	0.0112	4.1
-0.0023	0.0015	0.003	0.0067	4.1
0.0015	0.0007	0.003	0.0097	4.1
0.0015	-0.0015	0.006	0.0022	4.1
-0.0008	-0.003	0.0067	-0.0083	4.1
-0.0038	-0.0046	0.0142	-0.0075	4.1
-0.0053	-0.0046	0.012	-0.0075	4.1
-0.006	-0.0008	0.0082	-0.006	4.1
-0.0038	0.0015	0.0045	-0.0053	4.1
-0.0038	0.0015	0.0037	-0.0053	4.1
-0.0053	0.0007	0.0082	-0.003	4.1
-0.0046	0	0.0067	-0.006	4.1
-0.0008	-0.0008	0.0045	-0.003	4.1
0.0007	0.0007	0.0022	0.0007	4
-0.0008	0.0015	0.0022	0.0007	4
-0.003	-0.0008	0.0045	-0.0008	4.1
-0.0023	-0.0015	0.0082	-0.003	4.1
-0.0023	-0.0015	0.0142	-0.0023	4.1
-0.003	0	0.0127	-0.003	4.1
-0.0008	0.0007	0.0075	-0.0008	4.1
0.0007	-0.0015	0.0067	0.0052	4.1
0.0007	-0.0008	0.0067	0.0127	4.1
-0.0008	0.0007	0.0067	0.012	4.2
-0.0015	0	0.0052	0.0022	4.2
-0.003	0.0007	0.0015	-0.0015	4.2
-0.0008	0.003	-0.003	-0.0023	4.2
0.0015	0.003	-0.0053	-0.0015	4.2
0.0022	0.0045	-0.0068	0	4.2
0.003	0.0045	-0.0091	-0.0008	4.3
0.0022	0.003	-0.0158	0	4.3
0.003	0.0022	-0.0195	0.0007	4.3
0.0015	0.0015	-0.0128	-0.0008	4.3
0.0022	0.0007	-0.0105	-0.0023	4.3
0.0052	-0.0008	-0.0105	-0.003	4.3
0.003	-0.0015	-0.0083	-0.0053	4.4
0.0022	0	-0.0091	-0.0038	4.4
0.0022	0.0007	-0.0053	-0.003	4.4
0.0007	-0.0008	-0.0008	-0.0015	4.5
0	-0.0008	0.0007	-0.0008	4.5
-0.0008	0.0007	-0.0015	-0.003	4.5
0.0022	0.003	-0.0053	-0.003	4.5
0.003	0.003	-0.0046	-0.0008	4.5
0.0045	0.003	-0.0068	-0.003	4.6
0.0045	0.0045	-0.0075	-0.0038	4.6
0.0045	0.0045	-0.0053	-0.0023	4.6
0.0045	0.003	-0.0053	-0.0008	4.7
0.006	0.003	-0.0046	-0.003	4.7
0.0082	0.0015	-0.0068	-0.0046	4.7
0.0045	0.0007	-0.0053	-0.0008	4.8
0.003	0.0015	-0.0083	-0.0015	4.8
0.003	0.0015	-0.0091	-0.003	4.8
0.0015	-0.0008	-0.0075	-0.0023	4.9
0.0007	-0.0038	-0.0068	0	4.9
0.0015	-0.0053	-0.0015	0.0067	4.9
0	-0.0046	0.0022	0.0142	4.9
-0.003	-0.0015	0.0082	0.0112	5
-0.0038	0	0.0045	0.0037	5
-0.003	0.0007	-0.0008	0.0007	5.1
-0.0023	0.003	0	0.0007	5.1
0	0.0022	-0.0023	0.0037	5.2
-0.0008	0.0007	-0.0023	0.0037	5.2
0	-0.0008	-0.003	-0.0008	5.3
0.003	-0.003	-0.0046	-0.0068	5.3
0.003	-0.0015	-0.0083	-0.0098	5.4
0.0015	-0.0015	-0.0083	-0.0091	5.4
0.0022	-0.0015	-0.0046	-0.0083	5.5
0.0022	-0.0015	-0.003	-0.0053	5.5
0.0015	-0.0023	-0.0015	-0.0053	5.6
0.0007	-0.003	-0.003	-0.003	5.6
-0.0008	-0.003	0.0007	-0.0023	5.7
-0.0008	-0.0015	0.003	0.0007	5.7
-0.0023	-0.0008	0.0052	0.0037	5.8
-0.0023	-0.0008	0.006	0.0007	5.8
-0.0008	0.0007	0.0022	0.0007	5.8
-0.0023	0.0015	0.0022	0.0007	5.9
-0.0008	0.0015	-0.003	-0.0008	5.9
0.0022	0.0022	-0.006	-0.0008	6
0.0037	0.003	-0.0105	-0.0015	6.1
0.0067	0.003	-0.0165	-0.0038	6.1
0.0045	0.003	-0.0135	-0.0038	6.2
0.003	0.0037	-0.0128	-0.003	6.3
0.0037	0.0015	-0.0091	0.0007	6.3
-0.0008	-0.0015	-0.0023	0.0045	6.3
0	-0.0008	-0.003	0.0052	6.4
0.0007	-0.003	-0.0015	0.0045	6.5
0	-0.0053	0.0015	0.0037	6.5
0.0022	-0.0023	-0.0008	0.0045	6.6
0.003	-0.0015	0.0022	0.003	6.6
0.0007	-0.0008	0.006	0.003	6.7
-0.0008	-0.0015	-0.0015	0.0007	6.7
0.003	-0.0008	-0.0015	0.0007	6.8
0.0007	-0.0008	0.0037	0.003	6.9
-0.0008	-0.0008	0.003	0.0015	6.9
0.0015	0.0007	0.0045	0.0015	7
0	0	0.003	0.0007	7.1
0.0007	0	0.0045	0	7.1
-0.0015	-0.0008	0.0045	0	7.2
-0.0008	-0.0008	0.003	0.0015	7.2
-0.0038	-0.0015	0.009	0.0015	7.3
-0.0068	-0.0038	0.0127	0.0007	7.4
-0.0068	-0.0015	0.0105	0.003	7.4
-0.0091	0.0007	0.0112	0.0007	7.5
-0.0046	0.0022	0.0082	0.0007	7.6
-0.003	0.003	0.0067	0.0007	7.6
-0.0023	0	0.0082	0.0007	7.7
-0.0046	0.0007	0.0075	0.0022	7.8
-0.003	0.0007	0.003	0.0007	7.9
-0.0008	-0.0015	0.0007	0.0007	7.9
-0.0023	-0.0023	0	0.0015	8
-0.0015	-0.0046	-0.003	0.0015	8.1
-0.003	-0.0068	-0.0046	0.0015	8.1
-0.0015	-0.0046	-0.0046	0.0007	8.2
-0.0015	-0.0068	-0.0068	0.0015	8.2
0	-0.0083	-0.0105	0.0015	8.3
0.0037	-0.0053	-0.0091	0.0022	8.4
0.0022	-0.0038	-0.0046	0.0022	8.5
0.0007	-0.0008	-0.0068	-0.0023	8.6
-0.0015	-0.0008	-0.0098	-0.003	8.7
-0.0015	-0.0015	-0.0105	-0.0023	8.8
0.0015	-0.0015	-0.0083	-0.003	8.9
0.0015	0.0007	-0.0105	-0.0046	9
0.0022	0.0022	-0.012	-0.0046	9
0.0022	0.0015	-0.0105	-0.0053	9.1
0.0045	0.003	-0.0105	-0.0046	9.2
0.0045	0.0045	-0.0105	-0.0038	9.3
0.0052	0.0052	-0.0091	-0.0046	9.4
0.0082	0.0067	-0.0053	-0.0046	9.4
0.009	0.006	0.0015	-0.0015	9.5
0.0097	0.0067	0.0037	0.0007	9.6
0.0082	0.0067	-0.0038	-0.0008	9.7
0.006	0.0045	-0.0105	-0.0053	9.8
0.0037	0.0037	-0.0091	-0.0046	9.9
0.0007	0.0045	-0.0068	-0.0046	10
-0.003	0.003	-0.0046	-0.0046	10.1
-0.0008	0.003	-0.0098	-0.0038	10.2
0.003	0.0022	-0.0128	-0.0015	10.3
0	0	-0.012	-0.0008	10.4
-0.0023	-0.0008	-0.0098	-0.0008	10.5
-0.003	0.0007	-0.0068	0.0015	10.6
-0.0046	0.0007	-0.0083	-0.0008	10.7
-0.0046	-0.0008	-0.0091	-0.0008	10.8
-0.0046	-0.003	-0.0083	-0.0008	10.9
-0.0008	-0.0046	-0.0046	0.0007	11
-0.0023	-0.0015	0	0.003	11.2
-0.003	-0.0023	0.003	0.0067	11.2
0	-0.003	0.0037	0.0067	11.3
0.0022	-0.0023	0.0015	0.0052	11.5
0.0037	-0.0038	0.0015	0.003	11.6
0.003	-0.0046	0.0045	0.0037	11.7
-0.0015	-0.0068	0.0112	0.006	11.8
-0.0046	-0.0091	0.0142	0.0052	11.9
-0.0068	-0.0083	0.0142	0.003	12
-0.0083	-0.0083	0.0142	0.0007	12.1
-0.0098	-0.0083	0.0172	0.0022	12.2
-0.0105	-0.0046	0.0262	0.0052	12.3
-0.0091	-0.003	0.0292	0.003	12.5
-0.0068	-0.003	0.024	0.0015	12.6
-0.003	-0.003	0.0255	0	12.7
-0.0053	-0.0015	0.0255	-0.0023	12.9
-0.0053	0	0.0247	0.0007	13
-0.003	-0.0015	0.0285	0.003	13.2
-0.003	-0.0015	0.0262	0	13.3
-0.0023	0.0007	0.0225	-0.0046	13.5
-0.0008	0.003	0.0135	-0.0068	13.6
-0.0008	0.0045	0.012	-0.006	13.7
-0.003	0	0.0142	-0.0053	13.9
-0.0046	-0.003	0.0075	-0.006	14
-0.0038	-0.0046	0.006	-0.003	14.1
-0.0053	-0.003	0.0007	-0.0015	14.3
-0.0053	-0.0015	-0.006	-0.003	14.4
-0.003	-0.0023	-0.0068	-0.0008	14.6
-0.0015	-0.003	-0.0038	0.0007	14.7
-0.0038	-0.006	0.0007	0.0015	14.8
-0.0023	-0.0038	-0.0015	0.0022	15
0.003	-0.0015	-0.0053	0.0007	15.2
0.0037	0.0007	-0.0091	0.0015	15.3
0.0075	0.0015	-0.0105	0.003	15.5
0.0075	0.0007	-0.0091	0.0015	15.7
0.006	0.0037	-0.0158	0	15.9
0.0112	0.0067	-0.0293	-0.0038	16
0.0165	0.009	-0.0405	-0.0083	16.2
0.015	0.0067	-0.0315	-0.006	16.4
0.0112	0.006	-0.0233	-0.003	16.6
0.0112	0.0067	-0.0181	-0.0023	16.7
0.0075	0.003	-0.0046	0	16.9
0.0052	0.0015	0.006	0.0022	17.1
0.0015	-0.0008	0.0082	0.0045	17.3
0.0045	0	0.0045	0.0037	17.5
0.0037	-0.0015	0.0142	0.006	17.6
-0.0038	-0.0046	0.018	0.0067	17.8
-0.0008	-0.0046	0.018	0.0052	18
-0.0053	-0.006	0.0202	0.0045	18.1
-0.003	-0.0015	0.0037	0.0007	18.3
0.0015	0.0015	-0.0046	-0.0015	18.5
0.0037	0.0045	-0.0083	-0.0046	18.7
0.0075	0.0067	-0.0105	-0.0075	18.9
0.0075	0.0067	-0.0105	-0.0068	19.2
0.009	0.0067	-0.0091	-0.0083	19.4
0.003	0.0037	0	-0.0091	19.6
0.0022	0.003	0.0052	-0.0068	19.8
0	0	0.0112	-0.0038	20.1
-0.0046	-0.003	0.0165	-0.0008	20.3
-0.0046	-0.003	0.0202	0.0015	20.5
-0.0075	-0.0053	0.0142	0.0007	20.7
-0.0046	-0.0053	0.012	0.0022	21
-0.006	-0.0053	0.0195	0.0022	21.2
-0.0053	-0.0046	0.012	0.0015	21.4
-0.003	-0.003	0.0067	0.0015	21.6
-0.003	-0.0023	0.0097	0.0007	21.9
-0.0008	-0.0015	0.009	0.0007	22.1
0.0015	-0.0008	0.0097	-0.0015	22.3
0.0015	0	0.0082	-0.0008	22.5
-0.0008	0	0.003	-0.0008	22.8
0.0037	0.0022	-0.0015	-0.003	23
0.0052	0.003	-0.0038	-0.0008	23.3
0.003	0.0015	-0.003	-0.0008	23.6
0.0022	-0.0008	-0.0008	0	23.8
0.0015	-0.003	-0.0008	0.0015	24.1
0.0007	-0.0008	-0.0023	0	24.4
0.003	-0.0015	0	0	24.7
0.0045	-0.0023	0.0052	-0.0008	25
-0.0015	-0.0038	0.0127	0.0007	25.2
-0.006	-0.0015	0.0165	0.003	25.6
-0.0068	-0.0008	0.0105	0	25.8
-0.003	0	0.0045	-0.0023	26.1
0	0.0022	0.0045	-0.0015	26.4
0	0	0.0082	-0.0008	26.7
-0.0008	-0.0015	0.012	-0.0015	27
-0.0038	-0.0008	0.009	-0.003	27.3
-0.003	-0.0015	0.0067	-0.003	27.5
-0.0038	0	0.0067	-0.003	27.8
-0.0053	-0.0023	0.015	-0.0008	28.1
-0.0068	-0.0046	0.0217	0.0015	28.4
-0.0068	-0.0046	0.0202	0.0007	28.7
-0.0068	-0.0053	0.0202	0	28.9
-0.0068	-0.003	0.0195	0.0007	29.2
-0.0053	-0.0053	0.0232	0.003	29.5
-0.0068	-0.0053	0.027	0.0015	29.8
-0.0053	-0.0046	0.0195	-0.0008	30.1
-0.0023	-0.003	0.0112	-0.0015	30.4
0.0015	0.0007	0.0112	-0.0015	30.6
-0.0015	-0.0015	0.018	-0.0008	30.9
-0.0038	-0.0015	0.0292	0.0015	31.2
-0.0068	-0.0023	0.0405	0.0052	31.5
-0.0113	-0.0038	0.0435	0.0045	31.8
-0.0083	-0.003	0.0375	0.003	32.1
-0.0053	-0.0038	0.0307	0.0022	32.4
-0.0046	-0.0046	0.0292	0.003	32.6
-0.0083	-0.0083	0.0405	0.0052	32.9
-0.0135	-0.0098	0.054	0.0082	33.2
-0.0188	-0.0105	0.0675	0.012	33.5
-0.024	-0.012	0.0705	0.0142	33.7
-0.0225	-0.0128	0.066	0.0142	34.1
-0.0233	-0.012	0.0592	0.0135	34.3
-0.0203	-0.0091	0.0465	0.0105	34.6
-0.0143	-0.0068	0.0352	0.0097	34.8
-0.0091	-0.003	0.0232	0.0082	35.1
-0.0083	-0.0046	0.0322	0.0097	35.3
-0.0105	-0.0046	0.0382	0.0105	35.5
-0.0053	-0.003	0.024	0.0052	35.8
-0.0008	-0.003	0.003	0.003	36
0.006	0.0007	-0.012	0.0007	36.3
0.0097	0.0007	-0.0195	-0.0015	36.5
0.0142	0.0045	-0.0315	-0.0008	36.8
0.0142	0.0052	-0.0353	-0.003	37
0.0135	0.0067	-0.0428	-0.0046	37.2
0.0165	0.0075	-0.0405	-0.0046	37.5
0.0105	0.0052	-0.0278	-0.0015	37.7
0.0082	0.006	-0.0278	-0.0008	37.9
0.0082	0.0045	-0.024	0	38.2
0.0052	0.003	-0.0135	0.0022	38.4
0.0022	-0.0015	-0.0053	0.0015	38.6
-0.0008	-0.0038	-0.0098	-0.0015	38.9
0.0052	0.0015	-0.0218	-0.0038	39.1
0.0097	0.0015	-0.0181	-0.0046	39.4
0.0052	0.0015	-0.015	-0.0053	39.6
0.0045	0.0007	-0.0165	-0.0053	39.8
0.003	0.0007	-0.003	-0.0015	40
-0.0015	0	0.0045	-0.0046	40.3
0.0007	0	-0.0008	-0.0053	40.5
0.003	0.0015	0.003	-0.0023	40.7
-0.0023	-0.0008	0.0142	-0.0015	40.9
-0.0038	-0.0008	0.0052	-0.0053	41.1
