File Name: 2Nmar.log
Channel 1: 'RF', 7384 values, engineering units: mV, no filters.
Channel 2: 'BF', 7384 values, engineering units: mV, no filters.
Channel 3: 'VM', 7384 values, engineering units: mV, no filters.
Channel 4: 'ST', 7384 values, engineering units: mV, no filters.
Channel 5: 'FX', 370 values, engineering units: deg, no filters, extrapolated from 50 to 1000 samples per second.

-0.0023	-0.003	-0.0105	-0.0023	56.5
-0.0015	-0.003	-0.0068	-0.0015	56.4
0.0015	-0.003	-0.0075	-0.0008	56.4
0.0007	-0.0015	-0.0068	-0.0015	56.3
0.0015	0	-0.0068	-0.0023	56.2
0.0015	0	-0.006	-0.003	56.2
-0.0015	-0.0008	-0.0046	-0.003	56.1
-0.0015	-0.0008	-0.0038	-0.0015	56
-0.0015	-0.0008	-0.0008	-0.0015	55.9
-0.0046	-0.003	0.0022	0.0007	55.8
-0.003	-0.003	0.0037	0.003	55.8
-0.0046	-0.0023	0.0052	0.0037	55.7
-0.0046	-0.0015	0.009	0.006	55.6
-0.0068	-0.0008	0.0142	0.0067	55.6
-0.0075	-0.0015	0.018	0.0082	55.5
-0.0068	-0.003	0.0202	0.0075	55.4
-0.0068	-0.0046	0.021	0.0082	55.3
-0.0046	-0.003	0.024	0.0097	55.3
-0.0046	-0.0038	0.024	0.0105	55.2
-0.0038	-0.0023	0.0217	0.0082	55.1
-0.0015	0.0015	0.0195	0.0067	55
-0.003	-0.0008	0.0127	0.0045	54.9
-0.003	-0.0008	0.0127	0.0022	54.8
-0.0023	-0.0015	0.0142	0.003	54.6
-0.003	-0.0008	0.0135	0.0045	54.4
-0.0008	0.0007	0.0142	0.0052	54.3
0.0015	0	0.0105	0.0045	54.2
0.0015	0.0015	-0.0046	0.0007	54
0.009	0.0045	-0.0293	-0.0053	53.9
0.0165	0.009	-0.0405	-0.0068	53.8
0.0157	0.009	-0.0428	-0.0068	53.6
0.0157	0.009	-0.042	-0.006	53.5
0.0127	0.0052	-0.0368	-0.0046	53.3
0.0112	0.003	-0.0353	-0.0046	53.2
0.0097	0.0045	-0.027	-0.003	53.1
0.0067	0.0037	-0.0165	-0.0008	52.9
0.0045	0.0007	-0.0105	-0.0008	52.8
0.0007	-0.0015	-0.0053	0.0007	52.6
-0.0038	-0.0015	0.0007	0.0022	52.5
-0.0098	-0.0053	0.0112	0.0045	52.3
-0.0158	-0.006	0.021	0.006	52.2
-0.0158	-0.0083	0.0322	0.0075	52
-0.0165	-0.0083	0.0397	0.0105	51.8
-0.0158	-0.006	0.0457	0.0142	51.7
-0.0143	-0.0068	0.0502	0.0127	51.5
-0.015	-0.0068	0.0502	0.012	51.3
-0.0143	-0.0083	0.0495	0.0105	51.2
-0.0143	-0.0083	0.0442	0.006	51
-0.0135	-0.0068	0.0397	0.0067	50.8
-0.0158	-0.0083	0.036	0.0045	50.6
-0.0135	-0.0046	0.0255	0.0007	50.4
-0.0083	-0.0046	0.012	-0.0015	50.3
-0.0075	-0.0053	0.0052	-0.0046	50.1
-0.0046	-0.0023	0.0015	-0.0038	49.9
-0.003	-0.0023	0.0015	-0.0046	49.7
0.0007	-0.0008	0.0015	-0.003	49.5
0.0022	0	0.0007	0.0015	49.4
0.0052	-0.0008	0.0067	0.006	49.2
0.0067	0.0015	0.0195	0.0165	49
0.0037	0.0037	0.0307	0.0322	48.9
0.0052	0.0067	0.0307	0.0465	48.6
0.0052	0.009	0.0262	0.0322	48.5
0.0045	0.0052	0.0262	-0.0053	48.2
-0.0008	0.0007	0.0277	-0.0195	48
-0.0046	-0.0015	0.018	-0.0315	47.8
-0.0008	-0.0015	0.0067	-0.0503	47.5
0	-0.0008	-0.0015	-0.0525	47.3
0.0015	0	-0.0128	-0.054	47.1
0.0007	-0.0046	-0.021	-0.0615	46.8
0.0007	-0.006	-0.0338	-0.0721	46.6
0.0045	-0.0046	-0.0361	-0.0728	46.4
0.003	-0.0053	-0.033	-0.0623	46.2
0.003	-0.0023	-0.0346	-0.0465	45.9
0.0052	-0.0023	-0.0315	-0.03	45.7
0.006	-0.0023	-0.0278	-0.0225	45.5
0.0067	0	-0.024	-0.0173	45.2
0.0082	0.0015	-0.021	-0.0098	45
0.0105	0.006	-0.012	0.0007	44.8
0.0142	0.0097	0.0022	0.009	44.5
0.018	0.0127	0.009	0.015	44.3
0.0165	0.0142	0.0067	0.0157	44.1
0.0127	0.0097	-0.0053	0.0112	43.8
0.012	0.0075	-0.0195	0.009	43.6
0.0142	0.0097	-0.0353	0.0067	43.2
0.0157	0.0097	-0.0525	0.003	43
0.0172	0.0112	-0.0691	0.006	42.7
0.0225	0.012	-0.0863	0.0127	42.4
0.027	0.0112	-0.0968	0.0157	42.2
0.024	0.0105	-0.093	0.0165	41.8
0.0157	0.009	-0.0728	0.0217	41.6
0.0045	-0.0008	-0.0248	0.03	41.3
-0.0218	-0.0173	0.0592	0.0435	41
-0.0518	-0.0308	0.114	0.0472	40.8
-0.0645	-0.0368	0.1432	0.0495	40.5
-0.0871	-0.0533	0.2505	0.0652	40.2
-0.1238	-0.0691	0.3135	0.0615	39.9
-0.12	-0.0585	0.2647	0.0487	39.6
-0.0908	-0.0398	0.213	0.0442	39.4
-0.057	-0.021	0.141	0.0307	39.1
-0.027	-0.0105	0.0862	0.0202	38.8
-0.0068	-0.0023	0.0165	0.0142	38.5
0.03	0.0165	-0.039	0.012	38.2
0.0465	0.0255	-0.0323	0.012	37.9
0.0435	0.0217	0.0067	0.0007	37.6
0.0202	0.0052	0.057	-0.012	37.3
0.0015	0.0007	0.0352	-0.024	37
0.0067	0.0015	0.0082	-0.0173	36.7
0.0067	0.003	-0.0053	0.0037	36.4
0.012	0.0082	-0.03	0.027	36.1
0.0232	0.012	-0.0555	0.0532	35.8
0.0322	0.0127	-0.0795	0.0502	35.5
0.0382	0.0142	-0.0968	0.009	35.2
0.0427	0.0217	-0.1163	-0.0278	34.9
0.045	0.0225	-0.1223	-0.0398	34.6
0.039	0.0165	-0.1193	-0.042	34.2
0.0315	0.0165	-0.1178	-0.0383	34
0.0292	0.0157	-0.1148	-0.0256	33.7
0.0255	0.0157	-0.105	-0.0128	33.3
0.0217	0.0127	-0.0968	-0.0128	33
0.0195	0.0135	-0.0803	-0.0256	32.8
0.018	0.0142	-0.0691	-0.0315	32.4
0.015	0.012	-0.0585	-0.021	32.1
0.009	0.0082	-0.0443	-0.003	31.8
0.0097	0.0052	-0.0413	0.0105	31.5
0.0127	0.0082	-0.0398	0.0187	31.1
0.015	0.003	-0.042	0.0262	30.8
0.0142	-0.003	-0.048	0.027	30.4
0.0135	-0.0038	-0.0495	0.0127	30.1
0.0157	-0.003	-0.0518	-0.0068	29.7
0.018	0.0022	-0.0495	-0.0143	29.4
0.0165	0.0052	-0.0368	-0.0165	29.1
0.0127	0.0045	-0.0368	-0.015	28.8
0.0127	0.0037	-0.0353	-0.0158	28.4
0.0105	0.003	-0.0293	-0.0195	28.1
0.0052	0.0015	-0.0256	-0.0173	27.8
0.0007	-0.003	-0.0188	-0.0158	27.4
-0.0015	-0.0053	-0.0165	-0.0128	27.1
0	-0.0046	-0.0143	-0.0105	26.7
-0.0015	-0.003	-0.0181	-0.0098	26.4
-0.0046	0.003	-0.0256	-0.0105	26.1
-0.003	0.0082	-0.0278	-0.012	25.7
-0.0068	0.0082	-0.0218	-0.0195	25.4
-0.0068	0.0067	-0.0098	-0.0368	25
-0.0083	0.0082	-0.0008	-0.0353	24.7
-0.0105	0.0105	0.0112	-0.0195	24.3
-0.0143	0.009	0.0255	-0.0165	23.9
-0.0181	0.0082	0.0307	0	23.6
-0.0173	0.0082	0.027	0.0322	23.2
-0.0128	0.0037	0.0307	0.0405	22.9
-0.0068	-0.0046	0.0322	0.0277	22.5
-0.003	-0.0105	0.0315	0.0052	22.1
0.0045	-0.0113	0.03	-0.0113	21.8
0.0135	-0.0143	0.027	-0.0105	21.5
0.0165	-0.0128	0.0255	-0.0158	21.1
0.0127	-0.0068	0.0142	-0.0225	20.7
0.0105	-0.0015	0.0037	-0.0128	20.4
0.009	-0.003	0.0022	-0.0068	20
0.003	-0.0098	-0.0053	-0.0113	19.7
-0.0015	-0.0135	-0.0053	-0.0023	19.3
-0.0105	-0.0128	-0.0008	0.0202	18.9
-0.0135	-0.0098	0.0045	0.0345	18.5
-0.0158	-0.0128	0.0105	0.039	18.2
-0.0165	-0.0158	0.012	0.0397	17.9
-0.0105	-0.0105	0.0165	0.033	17.5
-0.003	-0.0046	0.024	0.0262	17.1
0.006	0.0052	0.0315	0.024	16.8
0.0142	0.015	0.0315	0.0165	16.4
0.0135	0.015	0.0345	0.0052	16.1
0.006	0.0075	0.0352	-0.0015	15.7
-0.0008	0.0015	0.0285	-0.0075	15.3
-0.0083	-0.0015	0.0165	-0.0143	14.9
-0.0135	-0.0023	0.0112	-0.0158	14.6
-0.0091	0.0045	-0.0075	-0.0195	14.2
0.0007	0.0097	-0.024	-0.0256	13.9
-0.0023	0.0052	0.009	-0.0263	13.5
-0.0135	0.0022	0.0255	-0.03	13.1
-0.0188	0.0022	0.0435	-0.033	12.8
-0.0323	0.0015	0.0622	-0.042	12.4
-0.0323	0.0097	0.0105	-0.0533	12.1
-0.0135	0.021	-0.0083	-0.0315	11.7
-0.0143	0.0105	0.0307	0.0007	11.3
-0.0188	-0.0068	0.0465	0.0217	11.1
-0.012	-0.015	0.0457	0.0427	10.8
-0.0091	-0.0195	0.0555	0.0397	10.5
-0.0128	-0.0285	0.0667	0.0255	10.2
-0.0128	-0.0353	0.0457	0.0135	9.9
-0.0053	-0.0338	0.0495	0.0127	9.7
-0.0068	-0.0353	0.0615	0.0202	9.4
-0.0015	-0.0263	0.0382	0.0195	9.1
0.0067	-0.0158	0.0247	0.0247	8.9
0.0045	-0.0091	0.003	0.0255	8.5
0.0015	-0.003	-0.0008	0.0202	8.3
-0.0038	0.0015	-0.0075	0.0157	8
-0.0008	0.0105	-0.027	0.0082	7.7
-0.0008	0.0105	-0.0143	0.0067	7.5
-0.0053	0.0045	-0.0038	0.0015	7.2
-0.006	-0.0015	-0.0008	-0.006	6.9
-0.0083	-0.003	0.0045	-0.0135	6.6
-0.0083	0.0067	0.0052	-0.0143	6.3
-0.0128	0.0082	0.0097	-0.0105	6.1
-0.0218	0	0.0067	-0.0135	5.8
-0.0218	-0.0046	-0.0015	-0.0135	5.7
-0.0165	-0.0053	-0.0008	-0.0113	5.5
-0.012	-0.0091	0.0037	-0.012	5.4
-0.0053	-0.0091	0.0105	-0.012	5.3
0.0007	-0.0046	0.0195	-0.0128	5.1
0.0067	-0.003	0.0195	-0.0188	5
0.009	0.0045	0.018	-0.0248	4.9
0.003	0.009	0.018	-0.0233	4.7
-0.0038	0.0067	0.0202	-0.0105	4.6
0	0.0105	0.0217	-0.0008	4.4
0.0082	0.009	0.0255	0.0052	4.3
0.012	0.0082	0.018	0.0157	4.1
0.0135	0.006	0.0037	0.0202	4
0.0127	-0.0046	-0.0128	0.0067	3.9
0.0067	-0.0098	-0.027	-0.0053	3.7
-0.0015	-0.0023	-0.0181	-0.003	3.6
-0.0038	0.0082	-0.0083	0.003	3.5
-0.0008	-0.0015	-0.0158	-0.0015	3.3
0.0052	-0.0203	-0.0323	-0.0091	3.2
0.018	-0.021	-0.0368	0.0052	3
0.0202	-0.0068	-0.0413	0.024	3
0.0105	0.012	-0.0555	0.0292	3
0.0045	0.0277	-0.054	0.0262	2.9
0.0082	0.0322	-0.0405	0.012	2.9
0.0142	0.0292	-0.0405	-0.0023	2.8
0.0217	0.0367	-0.0465	-0.012	2.7
0.0277	0.0457	-0.0525	-0.0143	2.7
0.033	0.048	-0.0511	-0.0091	2.6
0.0375	0.0457	-0.0443	-0.0083	2.6
0.0352	0.0195	-0.0353	-0.0135	2.6
0.033	-0.006	-0.0256	-0.0188	2.5
0.0285	-0.03	-0.024	-0.021	2.5
0.0195	-0.0488	-0.0233	-0.0233	2.4
0.024	-0.0495	-0.0218	-0.0308	2.4
0.0367	-0.0473	-0.0195	-0.0375	2.3
0.0322	-0.03	-0.0158	-0.0361	2.2
0.0157	-0.0158	-0.0195	-0.0315	2.2
-0.0008	-0.0008	-0.0218	-0.0278	2.2
-0.0218	0.0187	-0.0128	-0.015	2.1
-0.0278	0.03	-0.003	0.0067	2
-0.0181	0.0382	0	0.0315	2.1
-0.0098	0.0262	-0.0038	0.0442	2.1
0.0037	0.0165	-0.0181	0.0405	2.1
0.0075	0.012	0.0022	0.036	2.1
-0.0015	-0.0105	0.0502	0.0232	2.2
-0.0173	-0.033	0.0667	0.0112	2.2
-0.0346	-0.0465	0.0855	0.009	2.2
-0.0458	-0.054	0.0877	0.006	2.2
-0.039	-0.0525	0.0577	-0.0023	2.2
-0.0233	-0.0578	0.0472	-0.0038	2.3
-0.0308	-0.063	0.0607	-0.0083	2.3
-0.033	-0.0548	0.0495	-0.024	2.3
-0.0308	-0.0428	0.0367	-0.0278	2.4
-0.0248	-0.024	0.0255	-0.021	2.4
-0.0181	-0.0098	0.0127	-0.0105	2.4
-0.0218	0.0045	0.0135	0.0052	2.5
-0.0203	0.03	0.0082	0.021	2.5
-0.0128	0.0502	0.0255	0.03	2.5
-0.0038	0.0607	0.0195	0.0187	2.5
0.0045	0.069	-0.0075	-0.0008	2.6
0.0172	0.0697	-0.0143	-0.015	2.6
0.0225	0.0517	-0.0218	-0.0181	2.7
0.0232	0.0375	-0.033	-0.0075	2.9
0.018	0.039	-0.0436	-0.0008	3
0.0135	0.0307	-0.0518	0.0052	3.1
0.0112	0.0225	-0.0368	0.0172	3.1
0.0052	0.0195	-0.012	0.0202	3.2
0.0007	0.0075	0.0007	0.0217	3.4
-0.0015	-0.0046	0.009	0.0217	3.5
-0.0015	-0.0098	0.0052	0.0135	3.6
0.003	-0.0015	0.0007	0.0082	3.6
0.0067	0.0105	0.0082	0.0015	3.7
0.0075	0.0067	-0.0068	-0.003	3.9
0.0135	-0.003	-0.0203	0.0022	4
0.0217	-0.006	-0.024	0.0052	4
0.0202	-0.0165	-0.033	0.006	4.1
0.006	-0.0233	-0.03	0.012	4.2
-0.0113	-0.021	-0.0315	0.0075	4.4
-0.0225	-0.0225	-0.0278	-0.0083	4.5
-0.0233	-0.0263	-0.0256	-0.0263	4.5
-0.0188	-0.0225	-0.0225	-0.0315	4.7
-0.012	-0.0008	-0.0105	-0.0173	4.8
0.0022	0.0097	-0.012	-0.0075	5
0.0157	-0.0113	-0.0158	-0.0181	5.1
0.027	-0.0203	-0.0091	-0.0346	5.3
0.033	-0.021	0.0067	-0.045	5.4
0.0397	-0.0256	0.0127	-0.042	5.5
0.0435	-0.0158	0.0082	-0.0293	5.7
0.048	-0.0008	-0.0008	-0.0158	5.8
0.0607	0.0172	-0.0023	0.0225	6
0.054	0.0232	0.0052	0.06	6.1
0.0255	0.0172	0.0142	0.0675	6.3
-0.0165	0.0142	0.0195	0.0615	6.4
-0.0533	0.012	0.0157	0.0397	6.6
-0.0728	0.0052	0.0187	0.0157	6.7
-0.0863	-0.0068	0.0292	0.0045	6.8
-0.1043	-0.0068	0.0315	0	7
-0.1043	-0.0091	0.0202	0.003	7.2
-0.0608	-0.0053	0.0037	0.0105	7.3
-0.0143	0.0022	-0.0023	0.0105	7.4
0.018	0.0022	0.003	0.0105	7.5
0.0427	-0.0008	0.0015	0.0067	7.6
0.0405	-0.0105	0.0015	-0.0015	7.6
0.033	-0.0128	-0.0046	-0.0083	7.7
0.0307	-0.0083	-0.0315	-0.0105	7.7
0.0405	0.0007	-0.0495	-0.0046	7.8
0.063	0.003	-0.0465	-0.0008	7.9
0.0727	-0.0053	-0.03	-0.0008	7.9
0.0697	-0.0083	-0.0091	-0.0015	8
0.0525	-0.006	0.0225	-0.0068	8.1
0.0142	-0.0053	0.0427	-0.0068	8.1
-0.0195	-0.0046	0.0517	-0.0046	8.2
-0.0308	0.0022	0.042	-0.003	8.2
-0.0181	0.0082	-0.0008	-0.0038	8.3
0.0067	0.003	-0.0091	-0.0046	8.4
0.0015	-0.0068	0.0165	-0.006	8.4
-0.0181	-0.0083	0.0532	-0.0053	8.5
-0.0308	-0.0053	0.0892	-0.0038	8.5
-0.0405	-0.0053	0.0825	-0.0068	8.6
-0.0405	-0.003	0.0562	-0.0083	8.7
-0.0465	-0.0083	0.039	-0.0091	8.7
-0.0398	-0.0188	0.0255	-0.0105	8.6
-0.0203	-0.0203	0.0172	-0.0083	8.5
-0.0165	-0.012	0.0232	-0.0046	8.5
-0.0158	-0.0038	0.0367	-0.0008	8.5
-0.0158	0.0052	0.0352	0.003	8.4
-0.0105	0.009	0.0337	0.0045	8.3
0.0082	0.0082	0.018	0.0015	8.3
0.0352	0.0105	-0.0068	-0.0008	8.2
0.0322	0.0082	-0.0188	-0.006	8.1
0.0082	0.0045	-0.024	-0.0098	8.1
0.0015	0.0052	-0.0225	-0.0068	8.1
0.0075	0.0082	-0.0203	-0.0053	8
0.0195	0.0067	-0.0165	-0.0046	8
0.0187	0.0045	-0.0008	-0.003	7.9
-0.0008	0.0037	0.0187	-0.0015	7.8
-0.0195	0.0015	0.018	-0.0038	7.8
-0.024	-0.0008	0.0007	-0.0068	7.7
-0.0315	-0.003	-0.0165	-0.0008	7.6
-0.0405	-0.0008	-0.0195	0.0067	7.6
-0.0368	-0.0023	-0.003	0.0127	7.6
-0.0248	-0.0023	-0.0023	0.0217	7.6
-0.021	-0.0023	-0.0015	0.0285	7.6
-0.0308	-0.0038	-0.0068	0.0292	7.6
-0.027	-0.0023	-0.027	0.0232	7.7
-0.0256	-0.003	-0.0293	0.015	7.7
-0.0225	0	-0.0248	0.012	7.7
-0.0091	0.003	-0.0188	0.006	7.8
-0.0015	0.0045	-0.0158	0.003	7.8
0.021	0.0082	-0.0158	0.0015	7.8
0.0442	0.0082	-0.024	-0.003	7.9
0.054	0.0105	-0.033	-0.0046	7.9
0.0517	0.009	-0.033	-0.0075	7.9
0.0442	0.003	-0.0285	-0.012	7.9
0.039	-0.0053	-0.0248	-0.0165	8
0.0352	-0.0053	-0.0346	-0.0143	8
0.0255	-0.0015	-0.0428	-0.0105	8
-0.0015	-0.0015	-0.0353	-0.012	8.1
-0.0256	0.0045	-0.024	-0.0098	8.1
-0.024	0.0075	-0.0203	-0.0053	8.1
-0.0053	0.0075	-0.0165	-0.003	8.2
0.0127	0.0097	-0.012	-0.0023	8.3
0.0367	0.0067	-0.0023	-0.0046	8.4
0.0592	-0.0015	0.0045	-0.0091	8.5
0.0502	-0.0046	-0.0068	-0.012	8.6
0.0315	0.0015	-0.0165	-0.0083	8.7
0.003	0.0097	-0.0195	-0.0068	8.8
-0.0135	0.0037	-0.0353	-0.0098	8.9
-0.003	-0.0091	-0.057	-0.012	9
0.0045	-0.0098	-0.075	-0.0091	9.1
0.0112	-0.003	-0.0668	-0.0053	9.2
0.0045	0.0052	-0.0593	-0.003	9.4
0.0112	0.009	-0.057	-0.003	9.4
0.0277	0.012	-0.0428	-0.003	9.5
0.0232	0.0112	-0.042	-0.006	9.7
0.0082	0.003	-0.0278	-0.006	9.8
0.0015	-0.0023	-0.0046	-0.0053	9.9
0.0045	-0.0023	0.0255	-0.0038	9.9
0.0007	-0.0046	0.0367	-0.0015	10.1
0.0015	-0.0091	0.0322	0.0015	10.2
-0.0015	-0.0083	0.0442	0.0052	10.3
-0.0083	-0.0023	0.0442	0.0082	10.3
-0.0105	0.003	0.0495	0.0105	10.4
-0.0128	0.0082	0.048	0.0097	10.5
-0.0091	0.0105	0.0405	0.0052	10.6
-0.0038	0.0045	0.039	0	10.7
-0.003	-0.0083	0.0442	-0.003	10.7
-0.0105	-0.0113	0.0577	-0.0023	10.8
-0.0165	-0.0075	0.06	-0.0008	10.9
-0.024	-0.0046	0.0547	0	11
-0.021	-0.003	0.0382	0.0007	11.1
-0.0158	0.0007	0.0217	0.0015	11.2
-0.0158	0.0015	0.0067	0.0015	11.2
-0.0135	-0.003	-0.0053	0	11.3
-0.0165	-0.0046	-0.0128	0	11.4
-0.0195	-0.0015	-0.0128	0.0007	11.5
-0.0285	-0.0008	-0.0068	0.003	11.6
-0.0346	0.0007	-0.003	0.003	11.6
-0.0308	-0.0008	-0.0015	0.0022	11.7
-0.024	-0.0046	0.0007	0.0022	11.8
-0.012	-0.0046	0.0007	0	11.7
-0.0008	-0.0015	-0.006	0.0007	11.7
0.0105	-0.0015	-0.0083	0	11.6
0.0202	0.0007	-0.0091	-0.003	11.5
0.0307	0.0045	-0.0038	-0.0008	11.5
0.0345	0.0045	0.012	0.0007	11.4
0.0382	0.0022	0.0195	0.0015	11.3
0.0382	0.0007	0.0247	-0.0008	11.2
0.0217	0.0007	0.0247	-0.0008	11.2
0.0135	-0.0008	0.0195	-0.0008	11.1
0.0075	-0.003	0.0157	-0.0008	11
0.0007	-0.0023	0.0097	-0.0015	10.9
-0.0008	-0.0015	0.003	-0.0023	10.9
-0.003	-0.0008	-0.0008	-0.003	10.8
-0.0053	0	-0.006	-0.0046	10.7
-0.012	-0.0008	-0.0083	-0.003	10.7
-0.021	0.0007	-0.0053	-0.0023	10.6
-0.0256	0.0007	-0.0068	-0.0023	10.5
-0.0203	-0.0015	-0.0068	-0.003	10.4
-0.0158	0.0007	-0.0128	-0.003	10.3
-0.0083	0.0015	-0.0158	-0.0023	10.3
-0.0008	0.0015	-0.0203	-0.003	10.3
0.0045	0.0015	-0.0346	-0.003	10.3
0.015	0.0052	-0.0368	-0.003	10.3
0.0195	0.003	-0.021	0	10.2
0.018	-0.0015	-0.0008	0.0045	10.2
0.0142	0	0.0165	0.0052	10.2
0.015	0	0.0195	0.0045	10.2
0.0127	0.0015	0.018	0.0037	10.1
-0.0046	0.0037	0.021	0.0052	10.1
-0.0181	0.003	0.024	0.0037	10.1
-0.0143	0	0.0322	0.0015	10
-0.0203	-0.0098	0.0292	-0.0008	10
-0.0278	-0.0113	0.0247	-0.0015	10
-0.0158	-0.0053	0.0277	0.0022	10
-0.0075	-0.0053	0.0255	0.0022	9.9
0.0052	-0.0068	0.0165	0.0037	9.9
0.021	-0.0113	0.0052	0.0045	9.9
0.0195	-0.015	0.0015	0.0045	9.9
0.0195	-0.0113	0.0142	0.0075	9.8
0.0142	-0.0091	0.033	0.0067	9.9
-0.0068	-0.0143	0.0465	0.0082	10
-0.0293	-0.0143	0.0562	0.0127	10.1
-0.0338	-0.0083	0.0592	0.0157	10.2
-0.0233	-0.0015	0.0615	0.0165	10.3
-0.0143	-0.0015	0.0532	0.0135	10.3
-0.0105	-0.0015	0.0345	0.0127	10.4
-0.012	-0.003	0.033	0.012	10.5
-0.0105	-0.0068	0.0307	0.012	10.6
-0.0083	-0.0068	0.0292	0.0112	10.7
-0.0143	-0.0083	0.0307	0.0075	10.8
-0.024	-0.0083	0.027	0.0067	10.9
-0.0218	-0.0083	0.0217	0.0082	11
-0.0218	-0.0075	0.0217	0.0097	11.1
-0.0181	-0.0046	0.0135	0.0075	11.2
0.003	-0.0038	0.0105	0.0045	11.3
0.0307	-0.0023	0.0262	0.006	11.4
0.039	0.0007	0.0195	0.0022	11.5
0.0285	0.003	0.0007	0.0015	11.6
0.018	0.0045	-0.015	0	11.7
0.003	0.003	-0.0353	-0.0038	11.7
-0.012	0.0045	-0.0458	-0.003	11.7
-0.0181	0.0097	-0.0555	-0.003	11.8
-0.0143	0.0127	-0.0615	-0.003	11.8
-0.0083	0.0165	-0.0653	-0.0068	11.9
-0.0046	0.012	-0.0683	-0.012	11.9
-0.0135	0.003	-0.0743	-0.0135	12
-0.0368	-0.0008	-0.0735	-0.0135	12
-0.0353	0.0015	-0.0721	-0.0105	12.1
-0.0128	0.009	-0.0788	-0.0098	12.1
0.0172	0.0112	-0.078	-0.0105	12.1
0.042	0.0135	-0.0773	-0.0105	12.2
0.0532	0.0157	-0.0698	-0.0098	12.2
0.0577	0.0127	-0.0578	-0.012	12.3
0.054	0.012	-0.0383	-0.0128	12.3
0.0517	0.0112	-0.0105	-0.0113	12.4
0.0555	0.009	0.0007	-0.012	12.4
0.0585	0.0052	-0.0053	-0.0135	12.5
0.0495	0.006	-0.0203	-0.0143	12.5
0.0367	0.0045	-0.0233	-0.012	12.6
0.0285	0.0037	-0.0233	-0.0083	12.6
0.027	0.006	-0.0315	-0.0053	12.6
0.024	0.0075	-0.0308	-0.0038	12.6
0.012	0.0052	-0.03	-0.0053	12.6
0.0037	0.0015	-0.0263	-0.0083	12.5
-0.0053	0	-0.0248	-0.0091	12.5
-0.0091	-0.0008	-0.0278	-0.0105	12.5
-0.0068	-0.0008	-0.024	-0.0075	12.5
-0.0083	0.0007	-0.0248	-0.0053	12.5
-0.0068	0.0037	-0.0256	-0.0053	12.4
-0.003	0.0045	-0.024	-0.0068	12.4
-0.003	0.0045	-0.0218	-0.0046	12.4
-0.0075	0.0052	-0.0173	-0.0046	12.4
-0.0068	0.0037	-0.0128	-0.0046	12.4
-0.0091	0.0022	-0.0068	0.0007	12.4
-0.0105	0.0007	0	0.0007	12.3
-0.0105	-0.0008	0.003	0.0007	12.3
-0.0135	-0.0046	0.0037	0	12.3
-0.0135	-0.0053	0.009	0	12.3
-0.0128	-0.0053	0.0112	0.0007	12.2
-0.006	-0.0038	0.006	0.0007	12.2
0	-0.0008	0.012	0.003	12.2
0.0067	0.0022	0.018	0.0037	12.1
0.0142	0.0052	0.0172	0.003	12.1
0.0225	0.0052	0.0217	0.0037	12.1
0.0262	0.0052	0.03	0.003	12
0.0195	0.0045	0.0345	0.0007	12
0.0097	0.003	0.033	-0.0008	11.9
-0.0008	0.0022	0.0292	0.0007	11.9
-0.0075	0.0007	0.0232	0.0015	11.8
-0.0173	-0.0038	0.0142	0.0015	11.7
-0.0218	-0.006	0.0105	-0.0008	11.7
-0.0195	-0.0068	0.009	-0.0008	11.7
-0.0181	-0.0091	0.0097	0.0007	11.6
-0.0158	-0.0105	0.012	0.0007	11.6
-0.0158	-0.0091	0.012	0.0015	11.5
-0.0158	-0.0075	0.015	0.0015	11.5
-0.0165	-0.0053	0.0195	0.0022	11.4
-0.0143	-0.006	0.0217	0.0037	11.4
-0.0135	-0.0075	0.0247	0.006	11.3
-0.0181	-0.0098	0.0307	0.0067	11.3
-0.0195	-0.0105	0.027	0.0052	11.2
-0.0173	-0.0083	0.0157	0.0037	11.2
-0.0105	-0.0053	0.0082	0.0015	11.2
-0.0075	-0.0015	-0.0083	-0.0015	11.2
0	0.0015	-0.0263	-0.0053	11.1
0.009	0.0052	-0.0368	-0.0068	11.1
0.0157	0.0082	-0.0458	-0.006	11.1
0.027	0.0075	-0.0495	-0.0083	11
0.0315	0.0075	-0.0511	-0.0075	11
0.033	0.0067	-0.0436	-0.0053	11
0.027	0.006	-0.0346	-0.0038	10.9
0.018	0.003	-0.0278	-0.0053	10.9
0.0082	0.0007	-0.0203	-0.0053	10.9
-0.0008	0.0022	-0.0181	-0.0053	10.8
0.0015	0.0007	-0.0181	-0.006	10.8
0	0.0015	-0.0218	-0.0038	10.7
-0.0015	0.003	-0.0195	-0.0038	10.7
-0.0008	0.003	-0.0158	-0.003	10.7
-0.0015	0.0037	-0.0165	-0.0008	10.6
0.0007	0.003	-0.015	-0.0008	10.6
-0.0015	0.003	-0.0083	0.0007	10.6
-0.0015	0.003	-0.0075	0.0015	10.6
-0.0008	0	-0.006	0.0022	10.6
-0.0015	-0.0015	0.003	0.003	10.6
-0.003	-0.003	0.0075	0.0045	10.5
-0.0068	-0.0046	0.018	0.0067	10.5
-0.0105	-0.0068	0.024	0.006	10.5
-0.0143	-0.006	0.0255	0.0052	10.5
-0.0128	-0.0068	0.0277	0.0045	10.4
-0.0113	-0.0068	0.0285	0.003	10.4
-0.0143	-0.0068	0.0345	0.0052	10.4
-0.0143	-0.0083	0.0367	0.0082	10.4
-0.0143	-0.0075	0.0412	0.006	10.4
-0.0143	-0.0091	0.0412	0.0045	10.3
-0.0105	-0.0091	0.0367	0.0037	10.3
-0.0105	-0.0083	0.036	0.003	10.3
-0.0083	-0.0075	0.033	0.003	10.3
-0.0068	-0.0068	0.0255	0.0015	10.3
-0.006	-0.0046	0.0195	-0.0008	10.2
-0.0046	-0.003	0.018	-0.0015	10.2
-0.0046	-0.003	0.0157	-0.0008	10.2
-0.003	-0.0023	0.0157	-0.0008	10.2
-0.0046	-0.003	0.0187	0.0015	10.2
-0.0068	-0.0008	0.0217	0.003	10.2
-0.0075	-0.0015	0.0232	0.0022	10.2
-0.0046	-0.0008	0.0255	0.003	10.2
-0.0015	-0.0015	0.0262	0.003	10.2
-0.003	-0.0023	0.0255	0.0022	10.2
-0.0015	-0.0015	0.021	0.0015	10.2
-0.0015	-0.003	0.018	-0.0008	10.2
-0.0038	-0.0015	0.0165	-0.0008	10.2
-0.0046	-0.0023	0.015	-0.0023	10.2
-0.0038	-0.003	0.0105	-0.0023	10.2
-0.0015	-0.0015	0.012	-0.0008	10.2
-0.0046	-0.003	0.0165	0.0007	10.2
-0.0053	-0.003	0.0142	0.0015	10.2
-0.0038	-0.0015	0.012	0.0007	10.2
0	0.0007	0.0105	0.0007	10.2
0.003	-0.0015	0.0052	-0.0008	10.2
0.003	0.0007	-0.0008	-0.0023	10.2
0.0045	0.0015	-0.0015	-0.0008	10.2
0.0037	0	-0.003	-0.0015	10.2
0.0067	0.0007	-0.0053	-0.0023	10.2
0.0105	0	-0.0068	-0.0015	10.2
0.0105	0.0015	-0.0105	-0.0015	10.1
0.0105	0.003	-0.0188	-0.0038	10.1
0.0112	0.003	-0.0233	-0.006	10.1
0.0127	0.0037	-0.021	-0.0068	10.1
0.0127	0.003	-0.0188	-0.0046	10
0.0082	0.003	-0.0143	-0.0023	10
0.0052	0.0045	-0.0135	-0.0015	10
0.0007	0.0045	-0.012	-0.003	10
0.0022	0.003	-0.012	-0.003	10
0.0015	0.003	-0.012	-0.003	9.9
0.0015	0.0037	-0.0091	-0.0015	9.9
0.003	0.0037	-0.0075	-0.0008	9.9
0.0015	0.003	-0.0053	0.0007	9.9
0.0037	0.0037	-0.0091	-0.0008	9.9
0.003	0.0022	-0.0098	-0.0008	9.8
0.003	0.0015	-0.0105	-0.0015	9.8
0.0045	0.0015	-0.0135	-0.0015	9.8
0.0052	0.003	-0.0128	-0.0015	9.7
0.0045	0.0037	-0.0135	-0.0015	9.7
0.0045	0.0037	-0.0158	-0.0023	9.7
0.0075	0.003	-0.0188	-0.003	9.6
0.0052	0.0007	-0.0188	-0.0015	9.6
0.0052	0.0015	-0.0158	-0.0023	9.5
0.0015	0.0007	-0.0105	-0.0008	9.5
0.0007	-0.0015	-0.0083	0.0015	9.4
0.0007	-0.0015	-0.0046	-0.0008	9.4
-0.003	-0.0008	-0.003	-0.0015	9.4
-0.0015	0	-0.0015	0	9.4
-0.0015	-0.003	0.003	0	9.3
-0.0023	-0.0046	0.0105	0.0007	9.3
-0.0046	-0.006	0.0187	0.0022	9.2
-0.0068	-0.0053	0.021	0.0015	9.2
-0.0053	-0.0046	0.0195	0.003	9.2
-0.0046	-0.0068	0.018	0.0007	9.1
-0.003	-0.0046	0.0127	0	9
-0.006	-0.0015	0.0105	0.0015	9
-0.0068	-0.0015	0.012	-0.0008	9
-0.0046	-0.003	0.0067	-0.0015	9
-0.0008	-0.0015	-0.0008	-0.003	9
0.0082	0.003	-0.024	-0.0068	8.9
0.0165	0.0052	-0.024	-0.0046	8.9
0.0112	-0.003	0.0157	0.0045	8.8
0.0007	-0.0075	0.024	0.0045	8.8
0.0007	-0.006	0.0225	0.0022	8.8
-0.0008	-0.0046	0.015	0.003	8.7
0.0007	-0.0046	0.015	0.0045	8.7
-0.0023	-0.006	0.0255	0.0045	8.6
-0.003	-0.0046	0.0157	0.0022	8.6
-0.0015	-0.003	0.0112	0.0015	8.6
-0.0023	-0.0023	0.0037	0.0007	8.5
-0.0015	-0.0015	0.0127	0.0015	8.5
-0.0053	-0.0015	0.006	-0.0015	8.5
-0.003	0.0007	-0.0015	-0.003	8.5
-0.003	0.0007	-0.003	-0.0015	8.4
-0.003	0.0015	-0.0091	0.0007	8.3
-0.0015	0.0007	0.0045	0.0037	8.3
-0.0023	0.0007	-0.0008	0.0015	8.3
-0.0015	-0.0008	0.0052	0.0015	8.3
-0.003	0.0007	0.009	0.0022	8.2
-0.0038	0.0007	0.0045	0.0015	8.2
-0.003	-0.0008	0.0045	0.0015	8.1
-0.0008	0.0015	0.0015	0	8.1
0.0007	0.0007	0.003	-0.0008	8.1
-0.0015	0.0015	0.006	0.0007	8.1
-0.0023	-0.0008	0.0127	0.003	8
-0.0053	-0.0015	0.0127	0.003	8
-0.0075	-0.0008	0.0105	0.003	7.9
-0.0068	0.0007	0.0082	0.0037	7.9
-0.0053	0	0.0127	0.0037	7.9
-0.0046	-0.0046	0.0165	0.0037	7.8
-0.0053	-0.0053	0.0195	0.0045	7.8
-0.0068	-0.0053	0.0172	0.003	7.7
-0.0053	-0.0015	0.012	0.0037	7.7
-0.0046	0.0007	0.0135	0.003	7.7
-0.0053	-0.0015	0.012	0.0007	7.6
-0.0046	-0.003	0.012	0.0015	7.6
-0.0038	-0.0046	0.0135	0.0007	7.6
-0.003	-0.0046	0.0127	0.0007	7.6
-0.0015	-0.0023	0.0105	0.0015	7.6
0.0007	-0.0023	0.0082	0.003	7.5
0	-0.0015	0.0105	0.003	7.5
-0.0015	-0.0038	0.0135	0.0015	7.5
-0.0008	-0.0053	0.0157	0.0022	7.5
0.0007	-0.0053	0.0105	0.0015	7.4
0.0007	-0.003	0.0007	-0.0015	7.4
0.0045	-0.0015	-0.0015	-0.0023	7.4
0.0022	-0.0015	-0.0008	-0.0023	7.3
0.0015	0	-0.0023	-0.003	7.3
0.0015	0	-0.003	-0.003	7.3
-0.0015	-0.0008	-0.0008	-0.0008	7.3
-0.0008	0	0	0.0007	7.2
-0.0008	-0.0008	0.0037	0	7.2
-0.0015	-0.0015	0.006	-0.0008	7.2
0.0007	-0.0015	0.0015	-0.0008	7.2
0.0022	0.0015	-0.003	-0.0008	7.1
0.0015	0.003	-0.006	-0.003	7.1
0.0015	0	-0.0053	-0.0023	7.1
0.003	0	-0.0053	-0.003	7.1
0.003	0.0007	-0.003	-0.0015	7.1
0.003	0.0015	0.0022	0.0015	7.1
-0.0008	0.0015	0.0067	0.0007	7.1
0.0015	0.0015	0.0067	0.0007	7
0.0015	0.0015	0.003	-0.0008	7
0.0015	-0.0008	0.0045	0.0015	7
0.0022	-0.0023	0.0045	0.0015	7
-0.0015	-0.0015	0.0037	0.0007	7
-0.003	0	0.0052	0.0007	6.9
-0.0015	-0.0008	0.0067	0	6.9
-0.0015	0	0.0082	0.0007	6.9
-0.003	-0.0015	0.0075	-0.0008	6.9
-0.0015	-0.0023	0.006	0.0015	6.9
0	-0.0015	0.0045	0.0007	6.8
0.0007	-0.003	0.0007	0	6.8
0.0015	-0.0008	0	0.0015	6.8
0.003	-0.0008	0.0045	0.0007	6.7
0.0015	-0.003	0.0045	0.0007	6.7
-0.0008	-0.0015	0.0045	0	6.7
-0.0008	-0.0008	0.0045	0.0015	6.7
-0.0015	0	-0.0015	0.0007	6.7
0.0015	0	-0.0038	0	6.7
0.0015	-0.0008	-0.0008	0.0007	6.7
-0.0008	-0.0008	-0.0046	-0.0008	6.7
0.0015	-0.0015	-0.0075	-0.0015	6.7
0.0007	0.0007	-0.0098	-0.003	6.7
0.0015	0.0007	-0.0128	-0.0015	6.6
0.003	0	-0.0091	-0.0008	6.6
0.0022	0.0015	-0.0046	0.0007	6.6
0.0007	-0.0008	-0.0015	0.0015	6.6
-0.0008	0.0007	0.0007	0.0007	6.6
0	0.0022	-0.0015	0.0007	6.6
0.003	0.003	-0.0068	0.0007	6.5
0.0045	0.003	-0.0165	-0.0038	6.5
0.0067	0.0067	-0.0308	-0.0053	6.5
0.0135	0.009	-0.0405	-0.0068	6.5
0.0157	0.0105	-0.045	-0.0075	6.4
0.0157	0.0112	-0.0458	-0.0083	6.4
0.0172	0.0105	-0.0503	-0.012	6.4
0.0187	0.0142	-0.057	-0.0158	6.4
0.0202	0.0127	-0.0623	-0.0158	6.4
0.0232	0.012	-0.0653	-0.0158	6.4
0.0217	0.0105	-0.0668	-0.0181	6.4
0.0225	0.006	-0.0721	-0.0173	6.4
0.0217	0.0052	-0.0668	-0.0143	6.3
0.0202	0.0052	-0.0593	-0.012	6.3
0.0202	0.0067	-0.0495	-0.0091	6.3
0.0165	0.0082	-0.0473	-0.0083	6.3
0.018	0.0082	-0.054	-0.0091	6.3
0.0195	0.0082	-0.0495	-0.0068	6.3
0.0172	0.0082	-0.0495	-0.006	6.3
0.018	0.0082	-0.048	-0.006	6.3
0.0157	0.009	-0.0488	-0.0053	6.2
0.0157	0.0097	-0.0488	-0.0053	6.2
0.0135	0.009	-0.042	-0.0038	6.2
0.0097	0.0097	-0.039	-0.0015	6.2
0.0082	0.0082	-0.033	-0.0023	6.1
0.0067	0.006	-0.0256	0	6.1
0.0052	0.003	-0.0181	0.0015	6.1
0.003	0.0015	-0.0091	0.0015	6.1
-0.0008	0.0007	-0.0008	0	6.1
-0.0015	-0.0015	0.003	0.0015	6.1
-0.0023	-0.0015	0.003	0.0037	6.1
-0.006	-0.003	0.0045	0.0037	6.1
-0.0083	-0.003	0.009	0.0037	6.1
-0.0083	-0.0015	0.0142	0.0022	6.1
-0.0075	-0.0008	0.0112	0.0015	6.1
-0.0053	-0.0008	0.0082	0.0007	6.1
-0.0068	-0.0023	0.0045	0.0007	6.1
-0.0046	-0.0015	-0.0008	0.0007	6
-0.003	-0.0008	-0.0008	0	6
-0.0015	-0.0015	-0.0008	0	6
-0.0008	-0.0015	0.0045	0.0007	6
-0.003	-0.0015	0.0075	0	6
-0.003	-0.0008	0.0097	0	6
-0.003	-0.0015	0.0127	0.0007	6
-0.006	-0.003	0.0127	0.0007	5.9
-0.0083	-0.0038	0.018	0.0007	5.9
-0.0105	-0.0046	0.0217	0.0022	5.9
-0.0105	-0.0068	0.0262	0.0045	5.9
-0.0091	-0.0068	0.0307	0.0052	5.9
-0.0083	-0.0053	0.0292	0.0037	5.9
-0.0083	-0.0075	0.0315	0.0045	5.9
-0.0083	-0.0075	0.0322	0.0052	5.9
-0.0091	-0.0053	0.0292	0.0045	5.9
-0.0105	-0.0046	0.0277	0.003	5.9
-0.0091	-0.0053	0.024	0.003	5.9
-0.0083	-0.0046	0.024	0.003	5.9
-0.0098	-0.003	0.0255	0.003	5.9
-0.0091	-0.0038	0.0255	0.0037	5.9
-0.0091	-0.0053	0.024	0.0045	5.9
-0.0068	-0.0046	0.0202	0.0045	5.9
-0.0068	-0.0023	0.0165	0.0045	5.9
-0.0068	-0.0038	0.0165	0.0045	5.8
-0.0046	-0.0053	0.0217	0.0022	5.8
-0.0038	-0.0053	0.0232	0.0015	5.8
-0.003	-0.0053	0.0255	0.0007	5.8
-0.0053	-0.0046	0.0292	0.003	5.8
-0.0091	-0.0046	0.0292	0.0052	5.8
-0.0105	-0.0053	0.0315	0.0037	5.8
-0.012	-0.0083	0.0322	0.0037	5.8
-0.0098	-0.0068	0.03	0.0052	5.8
-0.0091	-0.0053	0.0277	0.0052	5.8
-0.0083	-0.0046	0.0232	0.0067	5.8
-0.0068	-0.0015	0.021	0.0082	5.8
-0.0068	-0.0008	0.0195	0.009	5.8
-0.006	0.0007	0.0187	0.0097	5.8
-0.0068	0.0007	0.0217	0.0127	5.8
-0.0068	-0.0015	0.0232	0.0127	5.8
-0.0053	-0.0015	0.0255	0.006	5.8
-0.0046	-0.0015	0.0277	0.0015	5.8
-0.0023	-0.0068	0.0262	-0.0015	5.9
-0.0015	-0.0083	0.021	-0.0046	5.9
-0.0023	-0.006	0.018	-0.003	5.9
-0.0046	-0.0075	0.018	-0.0046	5.9
-0.003	-0.0068	0.0165	-0.0075	5.9
-0.0015	-0.0068	0.012	-0.0083	5.9
-0.0015	-0.0046	0.0082	-0.0083	5.9
0.0007	-0.0046	0.0045	-0.0105	5.9
0.0045	-0.003	0.0007	-0.0113	5.9
0.0067	-0.0015	-0.0038	-0.012	5.9
0.0045	-0.0015	-0.0098	-0.0113	5.9
0.003	0.0007	-0.0158	-0.0068	5.9
0.0022	0.0015	-0.0128	-0.003	5.9
0.0015	0.0007	-0.0083	-0.0008	5.9
0.0037	0.0015	-0.0075	0.0022	5.9
0.0052	-0.0008	-0.0075	-0.0008	5.9
0.0045	0.0015	-0.0083	-0.0015	5.9
0.0015	0.0037	-0.0046	-0.0015	5.9
0.0015	0.003	-0.0091	-0.006	5.9
0.0037	0.006	-0.0173	-0.006	5.9
0.0037	0.0075	-0.012	-0.003	6
0.003	0.003	-0.003	0.0015	6
-0.0015	-0.0015	0.0045	0.0075	6
-0.0046	-0.0015	0.009	0.012	6
-0.0038	0	0.0082	0.0112	6
-0.0053	0.0007	0.009	0.006	6
-0.0053	-0.0015	0.0105	0.006	6
-0.0046	-0.0075	0.012	0.0067	6
-0.0068	-0.0098	0.0157	0.0097	6
-0.0046	-0.006	0.0142	0.0082	6.1
-0.003	-0.0015	0.009	0.0022	6.1
-0.0046	0.0007	0.0105	0.0007	6.1
-0.003	0.0022	0.0127	-0.003	6.1
-0.0023	0.003	0.0105	-0.0008	6.2
-0.003	0.0015	0.012	0.003	6.2
-0.0046	-0.0008	0.012	0.0045	6.2
-0.0075	-0.003	0.012	0.0105	6.2
-0.0038	-0.003	0.0105	0.009	6.2
-0.0008	-0.003	0.0082	0.0052	6.3
0	-0.003	0.0067	0.003	6.3
0.0037	-0.003	0.0037	0.0007	6.3
0.0067	-0.0008	0.0015	0.0007	6.3
0.0067	-0.0008	0.0015	-0.0023	6.3
0.0052	-0.0015	0	-0.0046	6.3
0.0037	0	-0.0023	-0.0068	6.4
0.0037	-0.0015	0.0007	-0.0083	6.4
0.0037	-0.0015	-0.0023	-0.0083	6.4
0.003	-0.0008	-0.0015	-0.006	6.4
0.0007	0.0007	-0.0015	-0.0068	6.5
0.0007	0.0007	-0.0015	-0.0046	6.5
0.0015	-0.0008	0.0022	-0.003	6.5
0.0007	0.0007	-0.0008	-0.0046	6.6
-0.0015	0.0007	0.0007	-0.0053	6.6
-0.0008	-0.0008	0.0015	-0.0046	6.6
-0.0008	0	-0.0015	-0.003	6.6
-0.0008	-0.0008	-0.003	-0.0015	6.7
-0.0008	-0.0008	-0.0023	0.0007	6.7
-0.0008	-0.0008	-0.0046	0.0007	6.7
0.0007	-0.0008	-0.0075	-0.0008	6.7
0.0045	0.0022	-0.0091	0.0007	6.7
0.003	0.0007	-0.0083	0.0015	6.8
0.0015	-0.0008	-0.0083	0.0045	6.8
0.0022	0.003	-0.0068	0.006	6.8
0.0015	0.0022	-0.0105	0.006	6.9
0.0045	0.0007	-0.0165	0.0015	6.9
0.006	0.0037	-0.0195	-0.0008	6.9
0.009	0.003	-0.021	-0.0015	7
0.0097	0.003	-0.0195	-0.0008	7
0.0067	0.0037	-0.0165	-0.0008	7
0.006	0.003	-0.0128	-0.003	7.1
0.0037	0.0022	-0.012	-0.0053	7.1
0.0045	0.003	-0.0113	-0.006	7.2
0.0052	0.0022	-0.012	-0.0053	7.2
0.0052	0.0007	-0.0135	-0.0038	7.2
0.0022	0.0007	-0.0143	-0.0046	7.2
0.003	0.0015	-0.015	-0.0068	7.3
0.0045	0.0045	-0.0113	-0.0075	7.3
0.0045	0.0067	-0.0105	-0.0053	7.4
0.0052	0.0052	-0.0091	-0.0053	7.4
0.0067	0.0045	-0.0075	-0.0068	7.4
0.006	0.0037	-0.0053	-0.0053	7.5
0.003	0.0015	-0.0046	-0.0053	7.5
0.0022	0	-0.0038	-0.0038	7.6
0.0052	0.0007	-0.0068	-0.0015	7.6
0.0045	0.0037	-0.006	0.0045	7.6
0.0052	0.0015	-0.0015	0.012	7.6
0.003	-0.0008	-0.0068	0.0165	7.7
0.0052	0.0007	-0.0105	0.0232	7.7
0.0045	0.003	-0.006	0.0202	7.8
0.0007	0.0045	-0.0008	0.0187	7.8
0.0022	0.009	0.0007	0.0195	7.9
0.0015	0.0105	-0.0015	0.0135	7.9
0.0022	0.0075	-0.0015	0.0097	7.9
0.003	0.0037	-0.0015	0.0015	8
0	0.0007	-0.0068	-0.0053	8
0	-0.003	-0.0075	-0.0083	8.1
0.0007	-0.0083	-0.0083	-0.0098	8.1
0.0015	-0.0135	-0.0098	-0.0068	8.1
0.0022	-0.0143	-0.0128	-0.0165	8.2
0.0022	-0.0105	-0.0105	-0.0383	8.2
0.0007	-0.0098	-0.0075	-0.0428	8.3
0.0015	-0.012	-0.0083	-0.0398	8.3
-0.0008	-0.0068	-0.0083	-0.0383	8.3
-0.0023	-0.0053	-0.0105	-0.0308	8.4
0	-0.0068	-0.0083	-0.0256	8.4
0.0007	-0.006	-0.0083	-0.0203	8.5
-0.0008	-0.0046	-0.0068	-0.0053	8.5
0	-0.0008	-0.0083	0.0097	8.5
0.0015	0.0052	-0.0098	0.015	8.6
0.0045	0.012	-0.0091	0.0112	8.6
0.0052	0.0142	-0.0105	0.012	8.6
0.0045	0.0172	-0.0083	0.009	8.7
0.003	0.0195	-0.0053	0.0045	8.7
0.0052	0.018	-0.003	0.0105	8.8
0.003	0.0142	0.003	0.0157	8.8
0.0007	0.0105	0.0007	0.027	8.9
-0.0023	0.009	0	0.0457	8.9
-0.0046	0	0.0045	0.045	8.9
-0.0053	-0.0158	0.0045	0.0292	9
-0.0068	-0.03	0.0112	0.0202	9
-0.0046	-0.0361	0.0127	0.0075	9
-0.0023	-0.0353	0.0052	-0.0091	9.1
-0.0023	-0.03	0.003	-0.03	9.1
-0.0046	-0.0293	-0.0038	-0.0593	9.1
-0.0023	-0.0256	-0.0091	-0.0743	9.2
0.0007	-0.012	-0.0083	-0.0668	9.2
0.0045	0.0067	-0.0075	-0.0256	9.3
0.0052	0.0405	-0.0068	0.0277	9.3
0.0037	0.0667	-0.0068	0.057	9.3
0.003	0.0495	-0.012	0.054	9.4
0.0007	0.006	-0.0143	0.033	9.4
-0.0008	-0.0233	-0.0143	0.0105	9.4
0.0007	-0.0428	-0.0218	-0.0008	9.4
0.003	-0.0383	-0.027	0.003	9.5
0.0067	-0.03	-0.0293	0.021	9.5
0.0082	-0.0315	-0.0285	0.054	9.6
0.0075	0.0075	-0.0218	0.0637	9.6
0.0105	0.0495	-0.0225	0.048	9.6
0.0105	0.054	-0.0225	0.0427	9.7
0.009	0.0322	-0.0263	0.039	9.7
0.006	0.0195	-0.0323	0.018	9.7
0.0052	-0.0068	-0.033	-0.0361	9.8
0.0105	-0.0315	-0.033	-0.084	9.8
0.0157	0.0172	-0.0353	-0.0923	9.8
0.0202	0.069	-0.0361	-0.0856	9.9
0.0225	0.0615	-0.0353	-0.0803	9.9
0.0195	-0.0053	-0.0383	-0.0856	9.9
0.0127	-0.0548	-0.0405	-0.0848	10
0.0097	-0.0465	-0.039	-0.0691	10
0.0067	-0.0615	-0.0346	-0.0511	10.1
0.0067	-0.0615	-0.0315	-0.0375	10.1
0.006	-0.0398	-0.027	-0.0233	10.2
0.003	0.0007	-0.0218	0	10.2
0	0.0855	-0.0203	0.0135	10.3
-0.0046	0.1485	-0.015	0.0315	10.3
-0.0068	0.1275	-0.0091	0.042	10.3
-0.0075	0.0637	-0.0015	0.0382	10.3
-0.0053	0.039	0.003	0.039	10.4
-0.0068	0.0517	0.0007	0.021	10.4
-0.0091	0.057	0.003	-0.0015	10.5
-0.0053	0.0255	0.0165	-0.015	10.5
0	0.0097	0.03	-0.0195	10.6
0.0052	0.0052	0.0367	-0.012	10.6
0.0015	0.0217	0.0382	0.0045	10.7
-0.0053	0.0382	0.0337	0.0202	10.7
-0.0091	-0.0046	0.0352	0.0232	10.7
-0.0135	-0.0578	0.0367	0.009	10.8
-0.0128	-0.1013	0.0382	-0.0023	10.9
-0.0128	-0.105	0.0442	0.0157	11
-0.0158	-0.099	0.0427	0.0315	11.1
-0.0181	-0.0698	0.0465	0.0405	11.1
-0.0195	-0.0128	0.0532	0.0607	11.2
-0.0165	0.009	0.054	0.1005	11.3
-0.0158	0.006	0.0517	0.147	11.3
-0.0135	0.0067	0.048	0.1545	11.4
-0.0135	0.0277	0.0442	0.138	11.5
-0.015	0.0315	0.0405	0.1372	11.6
-0.015	0.024	0.0382	0.1282	11.7
-0.0143	0.0105	0.036	0.1005	11.7
-0.0113	-0.0173	0.0345	0.1177	11.8
-0.0128	-0.0593	0.0367	0.165	11.9
-0.012	-0.0998	0.0367	0.1672	11.9
-0.0135	-0.1418	0.0345	0.1117	12
-0.0165	-0.1785	0.0315	0.036	12.1
-0.0165	-0.1515	0.0292	-0.0188	12.1
-0.0158	-0.0825	0.027	-0.0653	12.2
-0.0165	-0.0128	0.0277	-0.1411	12.3
-0.0158	0.0247	0.0292	-0.2498	12.5
-0.0158	0.099	0.0277	-0.2955	12.6
-0.0165	0.1545	0.0292	-0.2603	12.7
-0.012	0.1515	0.0315	-0.273	12.8
-0.0105	0.1845	0.0285	-0.3383	12.9
-0.0105	0.1612	0.0172	-0.3645	13
-0.012	0.0892	0.0097	-0.3375	13.1
-0.0105	-0.015	0.0112	-0.3083	13.3
-0.0083	-0.078	0.012	-0.252	13.4
-0.0053	-0.0863	0.009	-0.1155	13.5
0.0007	-0.1006	0.0135	0.0472	13.6
0.0045	-0.0488	0.0195	0.1515	13.7
0.0052	-0.0368	0.0202	0.2182	13.8
0.0067	-0.0375	0.0232	0.2572	13.9
0.0067	-0.0285	0.0217	0.249	14
0.0075	-0.0308	0.0157	0.2422	14.2
0.0097	-0.024	0.0105	0.237	14.3
0.0082	-0.042	0.006	0.228	14.4
0.0082	-0.0495	0	0.2092	14.5
0.006	-0.063	-0.0083	0.141	14.7
0.003	-0.0698	-0.0165	0.0307	14.8
0.0045	-0.0706	-0.024	-0.0923	15
0.003	-0.054	-0.0293	-0.1583	15.2
0.0007	-0.027	-0.0278	-0.1763	15.3
-0.0008	-0.0308	-0.0256	-0.195	15.5
0.0007	-0.0413	-0.0256	-0.1958	15.7
0.0052	-0.0458	-0.0248	-0.1875	15.8
0.0142	-0.0008	-0.033	-0.1441	16
0.0217	0.0862	-0.0361	-0.0915	16.2
0.027	0.0975	-0.021	-0.0383	16.3
0.0277	0.015	-0.0083	0.0405	16.5
0.0232	-0.0743	-0.0075	0.1005	16.6
0.0195	-0.0998	-0.0105	0.1597	16.8
0.0157	-0.0721	-0.0135	0.177	17
0.0097	-0.048	-0.024	0.1192	17.1
0.0045	-0.0135	-0.0278	0.0637	17.3
0.0015	0.0367	-0.0293	0.018	17.5
0.0007	0.1485	-0.0375	-0.0158	17.6
0.0045	0.2647	-0.0413	-0.0225	17.8
0.0097	0.219	-0.0375	-0.0278	18
0.009	0.1312	-0.024	-0.0083	18.3
0.0052	0.114	-0.0181	0.033	18.4
0.0052	0.0765	-0.0091	0.0442	18.7
0.0037	0.0135	-0.0128	0.045	18.9
0.0067	-0.0233	-0.0263	0.0517	19.1
0.009	-0.0338	-0.0256	0.0532	19.3
0.0105	-0.0346	-0.0361	0.048	19.5
0.0142	-0.0203	-0.0315	0.0465	19.8
0.012	0.0202	-0.0225	0.048	20
0.009	0.033	-0.015	0.0502	20.2
0.0067	0.0052	-0.0098	0.0592	20.4
0.0075	0.0127	-0.0188	0.0697	20.6
0.0105	0.012	-0.0218	0.069	20.8
0.0082	-0.0053	-0.0203	0.054	21.1
0.0067	-0.0083	-0.0128	0.0345	21.3
0.0052	-0.0218	-0.0068	0.0217	21.5
0.003	-0.0203	0.0007	0.0045	21.7
0.0045	-0.0203	0	-0.0158	21.9
0.0052	-0.012	-0.0023	-0.0353	22.1
0.0045	0.0007	0.003	-0.0465	22.5
-0.0008	0.0015	0.006	-0.0293	22.7
-0.0038	0.0075	0.0037	-0.0278	23
-0.0038	0.0007	-0.0008	-0.0443	23.3
-0.0038	-0.0091	0.0022	-0.0511	23.6
-0.0038	-0.0225	0.0052	-0.0743	23.9
-0.0068	-0.0428	0.0075	-0.093	24.2
-0.0046	-0.0458	0.0105	-0.0878	24.5
-0.003	-0.0361	0.0097	-0.0765	24.8
-0.0008	-0.0278	0.0097	-0.0585	25.1
0.0007	-0.0233	0.0105	-0.0203	25.4
0	-0.0195	0.0082	0.0135	25.7
0.0015	-0.0143	0.0097	0.0352	26
-0.0015	-0.003	0.0165	0.0457	26.3
-0.0008	0.0067	0.021	0.0382	26.6
-0.0015	0.0097	0.0232	0.0345	26.9
-0.0023	0.009	0.021	0.0322	27.2
-0.0023	0.0082	0.0202	0.0247	27.5
-0.0023	0.0052	0.0195	0.0142	27.8
-0.0015	0.0052	0.0217	0.006	28.1
-0.0046	0.0067	0.027	0.0045	28.4
-0.0068	0.0067	0.033	0.0052	28.7
-0.012	0.006	0.0382	0.0082	29
-0.0128	0.0067	0.0405	0.0082	29.3
-0.0143	0.0075	0.0427	0.0112	29.7
-0.0158	0.0045	0.0427	0.0105	29.9
-0.0158	-0.0008	0.0465	0.006	30.2
-0.0181	-0.0053	0.0472	0.0075	30.6
-0.0173	-0.0083	0.0532	0.009	30.9
-0.0173	-0.0083	0.0555	0.0105	31.2
-0.0165	-0.0091	0.0577	0.0082	31.5
-0.0158	-0.0113	0.0667	0.0082	31.8
-0.0195	-0.012	0.0652	0.0067	32.1
-0.0195	-0.0143	0.0615	0.0037	32.4
-0.0195	-0.0143	0.0577	0.0015	32.8
-0.0181	-0.0128	0.0592	0.0007	33
-0.0158	-0.0128	0.0615	0.0015	33.3
-0.0165	-0.012	0.057	0.003	33.7
-0.0165	-0.012	0.0592	0.0045	34
-0.0143	-0.0091	0.0517	0.0015	34.3
-0.0091	-0.006	0.0405	-0.0038	34.5
-0.0046	-0.0046	0.0322	-0.0068	34.8
-0.0015	-0.0008	0.0195	-0.0113	35
0.0007	0	0.012	-0.0105	35.3
0.003	0.0007	0.0067	-0.0105	35.5
0.0067	-0.0008	0.0022	-0.012	35.8
0.0067	-0.0038	0.003	-0.0091	36
0.003	-0.003	0.003	-0.0046	36.3
0.0007	-0.0038	-0.0038	-0.0038	36.5
0.0015	0	-0.012	-0.0023	36.8
0.0022	0.0022	-0.0091	-0.0046	37
-0.0015	-0.0008	-0.006	-0.0075	37.3
0.0015	-0.0008	-0.0105	-0.006	37.5
0.0045	0.0015	-0.0165	-0.0083	37.8
0.0037	0.003	-0.0233	-0.0068	38
0.0067	0.0045	-0.0285	-0.006	38.2
0.0067	0.0015	-0.0293	-0.0068	38.5
0.0067	-0.0023	-0.0293	-0.0068	38.7
0.009	-0.0046	-0.0278	-0.0068	39
0.0097	-0.0053	-0.0218	-0.003	39.2
0.009	0	-0.0173	-0.0053	39.5
0.0067	0.0015	-0.0203	-0.0083	39.8
0.0067	0.0037	-0.0203	-0.0053	40.1
0.0082	0.0067	-0.0233	-0.0075	40.4
0.009	0.0052	-0.027	-0.0091	40.6
0.012	0.0082	-0.0315	-0.0091	40.9
0.0105	0.0082	-0.0368	-0.0083	41.2
0.0105	0.0067	-0.033	-0.0091	41.5
0.009	0.0045	-0.0278	-0.0075	41.8
0.0067	0.0052	-0.0256	-0.0068	42
0.0082	0.0067	-0.0315	-0.0105	42.3
0.0075	0.006	-0.0346	-0.0105	42.6
0.0105	0.0052	-0.0405	-0.012	42.9
0.0165	0.0075	-0.0555	-0.015	43.1
0.021	0.0105	-0.0645	-0.0143	43.4
0.0232	0.012	-0.0668	-0.0143	43.7
0.0202	0.0112	-0.0675	-0.0128	44
0.0202	0.012	-0.0645	-0.0128	44.3
0.0195	0.0127	-0.0645	-0.012	44.5
0.018	0.012	-0.0653	-0.012	44.8
0.0202	0.0097	-0.0593	-0.012	45.1
0.018	0.009	-0.0533	-0.0098	45.5
0.0172	0.0082	-0.0503	-0.0098	45.8
0.015	0.0075	-0.0488	-0.0098	46.2
0.0105	0.0067	-0.0518	-0.012	46.5
0.0135	0.0097	-0.06	-0.0135	46.8
0.0165	0.0105	-0.0585	-0.0128	47.2
0.012	0.0075	-0.048	-0.0091	47.5
0.0105	0.0075	-0.0503	-0.0091	47.9
0.0127	0.0052	-0.048	-0.0083	48.2
0.0127	0.0067	-0.0518	-0.0105	48.5
0.0165	0.0082	-0.054	-0.0105	48.9
0.0142	0.0045	-0.033	-0.0046	49.2
0.0105	0.003	-0.0263	-0.0038	49.5
0.006	0.0015	-0.0181	-0.0015	49.9
0.0007	0	-0.0105	-0.0008	50.2
0.0007	-0.0015	-0.0046	-0.0008	50.6
-0.0015	-0.003	0.0082	0.003	50.9
-0.0023	-0.003	0.0165	0.003	51.3
-0.0046	-0.0046	0.0202	0.0045	51.6
-0.0091	-0.006	0.0217	0.0052	51.9
-0.0105	-0.0068	0.0247	0.006	52.2
-0.012	-0.0075	0.0277	0.0052	52.6
-0.0128	-0.0083	0.0337	0.006	52.9
-0.0128	-0.0083	0.0382	0.0075	53.2
-0.0143	-0.006	0.0382	0.0075	53.5
-0.0128	-0.0053	0.0382	0.0067	53.9
-0.012	-0.006	0.036	0.0052	54.2
-0.012	-0.0053	0.0315	0.0022	54.6
-0.0083	-0.0038	0.0225	0.0015	54.9
-0.0053	-0.0008	0.015	0.0007	55.2
-0.0053	-0.0008	0.0112	-0.0008	55.6
-0.0053	-0.0015	0.0067	-0.0015	55.9
-0.0015	0	0.0015	-0.0008	56.2
-0.0008	0	-0.003	0	56.6
-0.0008	0.0015	-0.0046	-0.0008	56.9
0.0022	0.003	-0.012	-0.0023	57.2
0.0015	0.0022	-0.012	-0.0046	57.6
0.0015	0.0015	-0.0083	-0.0046	57.9
0.0052	0.0015	-0.012	-0.0046	58.2
0.0052	0.0007	-0.0091	-0.0053	58.5
0.0037	0	-0.0068	-0.0038	58.8
0.0022	0	-0.0038	-0.0015	59
0.0007	-0.0008	-0.0015	-0.0008	59.3
0.0022	-0.0008	-0.0023	-0.0023	59.6
0.0015	0.0007	0	-0.0038	59.8
0.0007	0.0007	0.0015	-0.0038	60.1
0.0015	-0.0008	0.0015	-0.003	60.4
0.0007	-0.0008	0	-0.0038	60.7
-0.0008	0.0007	-0.006	-0.0038	61
0.0007	-0.0008	-0.0046	-0.0008	61.2
-0.0015	-0.0023	0.006	0.0007	61.5
-0.0038	-0.0015	0.012	0.0037	61.8
-0.003	-0.003	0.0142	0.0045	62.1
-0.0053	-0.003	0.0142	0.0045	62.3
-0.0068	-0.003	0.015	0.0067	62.6
-0.0083	-0.0046	0.0187	0.0067	62.9
-0.0091	-0.003	0.0127	0.0052	63.1
-0.0083	-0.0008	0.0097	0.0045	63.4
-0.006	-0.0015	0.0097	0.0052	63.7
-0.0046	0	0.0052	0.0052	63.9
-0.0023	0	0.0037	0.0052	64.1
-0.0015	-0.0015	0.003	0.0045	64.3
-0.0008	-0.0008	0.0007	0.0015	64.6
0.0015	-0.0015	0.0007	0.0045	64.8
0.0007	0.0007	0.0022	0.0067	65
-0.0015	-0.0008	0.0082	0.0075	65.2
-0.0023	-0.0038	0.015	0.0082	65.4
-0.0015	-0.003	0.0172	0.0067	65.7
-0.0023	-0.0046	0.018	0.0082	65.9
-0.003	-0.0053	0.0172	0.009	66.1
-0.0046	-0.0068	0.0202	0.0097	66.3
-0.0053	-0.0068	0.024	0.0127	66.6
-0.0083	-0.0053	0.0292	0.015	66.8
-0.0105	-0.0053	0.0352	0.0165	67
-0.012	-0.0053	0.0382	0.018	67.2
-0.012	-0.0053	0.0405	0.0172	67.4
-0.0143	-0.0068	0.0427	0.018	67.6
-0.0158	-0.0075	0.0435	0.0187	67.9
-0.0143	-0.0083	0.042	0.0165	68.1
-0.0128	-0.0083	0.0405	0.0172	68.3
-0.0105	-0.0083	0.0367	0.0157	68.4
-0.012	-0.0083	0.0375	0.0157	68.6
-0.0128	-0.0083	0.0405	0.0172	68.8
-0.0128	-0.0091	0.042	0.015	68.9
-0.0135	-0.0083	0.0442	0.0142	69.1
-0.0113	-0.0098	0.048	0.012	69.3
-0.012	-0.0105	0.0502	0.012	69.4
-0.0143	-0.0105	0.0532	0.0112	69.6
-0.0165	-0.0091	0.0525	0.012	69.8
-0.015	-0.0083	0.0532	0.0135	69.9
-0.0158	-0.0091	0.0607	0.0105	70.1
-0.0181	-0.0091	0.0577	0.012	70.3
-0.0158	-0.0075	0.0525	0.0105	70.5
-0.0143	-0.0068	0.0427	0.006	70.6
-0.0083	-0.0053	0.036	0.0067	70.8
-0.0091	-0.0046	0.036	0.0067	71
-0.0098	-0.003	0.024	0.0037	71.1
-0.0053	-0.003	0.0202	0.0007	71.3
-0.0053	-0.003	0.018	0.0015	71.5
-0.0038	-0.0008	0.009	0.0007	71.5
0.0007	0.0007	-0.0008	-0.0015	71.6
0.0022	0.0015	-0.0128	-0.003	71.7
0.0082	0.0052	-0.027	-0.0068	71.8
0.0127	0.0082	-0.0323	-0.0083	71.9
0.012	0.0067	-0.03	-0.0068	71.9
0.0135	0.006	-0.0368	-0.0083	72
0.015	0.0052	-0.039	-0.0091	72.1
0.0127	0.006	-0.045	-0.0091	72.2
0.0195	0.0067	-0.0503	-0.0105	72.3
0.0217	0.0067	-0.0488	-0.0113	72.3
0.0195	0.009	-0.0533	-0.0098	72.4
0.0195	0.009	-0.0495	-0.0105	72.5
0.0165	0.0105	-0.0465	-0.0075	72.6
0.0165	0.0097	-0.0465	-0.0046	72.6
0.015	0.009	-0.0458	-0.0068	72.7
0.0165	0.0097	-0.0488	-0.0113	72.8
0.0165	0.0105	-0.0503	-0.0143	72.8
0.0157	0.0105	-0.0511	-0.0181	72.9
0.018	0.009	-0.0533	-0.0195	73
0.0172	0.006	-0.0495	-0.0158	73.1
0.0157	0.0067	-0.0458	-0.0091	73.1
0.0127	0.0067	-0.0405	-0.0053	73.1
0.0105	0.0037	-0.033	-0.0046	73.2
0.0067	0.0045	-0.0315	-0.0068	73.2
0.0067	0.0045	-0.0256	-0.006	73.2
0.0067	0.0037	-0.0195	-0.0023	73.3
0.0097	0.0037	-0.0195	-0.0046	73.3
0.0105	0.003	-0.0165	-0.003	73.3
0.009	0.0015	-0.0135	-0.003	73.3
0.006	0	-0.0128	-0.0053	73.4
0.0015	0	-0.0113	-0.0015	73.4
0.003	0.0015	-0.0091	-0.0015	73.4
0.0037	-0.0008	-0.0068	-0.003	73.5
0.0037	-0.0015	0.0015	-0.0008	73.5
0.0015	-0.0038	-0.0008	-0.0023	73.5
0	-0.0008	-0.0015	-0.0046	73.6
-0.0023	-0.0008	0.0052	-0.0023	73.6
-0.003	-0.0023	0.0097	0.0022	73.6
-0.0046	-0.003	0.0202	0.0045	73.7
-0.0075	-0.0053	0.024	0.003	73.7
-0.0046	-0.0046	0.0217	0.0015	73.6
-0.0046	-0.0038	0.0217	0.0007	73.6
-0.0053	-0.0046	0.0165	0	73.6
-0.003	-0.0046	0.0127	0	73.5
-0.0046	-0.0038	0.012	-0.0008	73.5
-0.0046	-0.0008	0.0082	-0.003	73.4
-0.0046	0.0015	0.0082	-0.0015	73.4
0.0007	0.0015	-0.0015	-0.003	73.4
0.003	0.003	-0.0113	-0.006	73.3
0.003	0.003	-0.0091	-0.0053	73.3
0.003	0.0022	-0.0105	-0.006	73.3
0.003	0.0045	-0.0165	-0.0053	73.3
0.0045	0.0045	-0.0188	-0.0083	73.2
0.0037	0.0045	-0.0218	-0.0105	73.2
0.003	0.003	-0.0158	-0.0083	73.1
0.0007	0.0007	-0.012	-0.0075	73.1
0.0007	0.0007	-0.0143	-0.0053	73.1
0.0022	0.0007	-0.0053	-0.0015	73
-0.0015	0.0007	-0.0015	-0.0008	72.9
-0.0008	-0.0008	0.0037	-0.0015	72.9
-0.0008	-0.0015	0.006	-0.0015	72.8
0	-0.0008	0.006	-0.0015	72.7
0.0007	0.0015	0.003	-0.0038	72.6
0.0067	0.0045	-0.0218	-0.0091	72.5
0.0142	0.0082	-0.039	-0.0098	72.4
0.0157	0.0075	-0.0383	-0.0083	72.3
0.012	0.0045	-0.024	-0.0053	72.2
0.006	0.0015	0.0007	-0.0008	72.1
-0.006	-0.0053	0.0345	0.0052	72
-0.0203	-0.0098	0.0555	0.0105	71.9
-0.0218	-0.0091	0.0517	0.009	71.8
-0.0181	-0.0068	0.0442	0.006	71.7
-0.0128	-0.0068	0.033	0.0045	71.6
-0.0068	-0.006	0.0187	-0.0015	71.5
-0.0008	-0.003	0.0007	-0.0046	71.5
0.0045	0.0007	-0.0128	-0.0053	71.3
0.006	0.003	-0.0195	-0.0053	71.2
0.0075	0.0037	-0.0188	-0.0053	71.1
0.003	0.0015	-0.0113	-0.003	71
0.0015	0.0007	-0.003	-0.0008	70.9
-0.0015	-0.0015	0.0037	0.0015	70.8
-0.0053	-0.0038	0.0082	0.0007	70.6
-0.003	-0.0015	-0.0023	-0.0038	70.5
0.003	0.0052	-0.0383	-0.0105	70.3
0.0157	0.0112	-0.057	-0.0105	70.2
0.0105	0.006	-0.0248	-0.003	70.1
-0.0015	-0.0008	0.0015	-0.0015	69.9
-0.0038	-0.0015	0.012	0.0022	69.7
-0.012	-0.006	0.0315	0.009	69.6
-0.0165	-0.0105	0.0435	0.009	69.5
-0.0203	-0.012	0.048	0.0082	69.3
-0.0195	-0.0091	0.0427	0.0082	69.2
-0.0143	-0.0053	0.0277	0.003	69
-0.0075	-0.003	0.0112	-0.0023	68.9
0	-0.0015	0.0045	-0.0023	68.8
0	-0.0015	0.0022	0	68.6
0.0045	-0.0008	-0.0023	0.0007	68.4
0.0067	0.0015	-0.0091	-0.0015	68.3
0.0052	-0.0008	-0.0075	-0.0008	68.1
0.003	-0.003	0.012	0.0015	68
-0.006	-0.0091	0.0382	0.0067	67.8
-0.012	-0.0143	0.0472	0.0075	67.6
-0.0158	-0.012	0.0555	0.0105	67.4
-0.0195	-0.012	0.0562	0.0082	67.2
-0.0135	-0.0075	0.0232	0.0007	67
-0.0008	-0.0015	-0.0053	-0.0023	66.8
0.0067	0.003	-0.0158	-0.0015	66.6
0.0142	0.0067	-0.0158	0.0045	66.4
0.0142	0.0082	-0.0143	0.006	66.1
0.0105	0.009	-0.0098	0.003	66
0.0082	0.0052	-0.0053	0.0007	65.8
0.003	0.003	-0.0015	-0.0023	65.6
0	0.0015	-0.0046	-0.0053	65.4
0.0007	0.0007	-0.0181	-0.0075	65.2
0.0067	0.0045	-0.0308	-0.0068	65
0.012	0.0082	-0.0503	-0.0091	64.8
0.0172	0.009	-0.0608	-0.0113	64.6
0.0187	0.009	-0.0675	-0.0135	64.3
0.0217	0.0142	-0.09	-0.021	64.1
0.036	0.0217	-0.132	-0.027	63.9
0.0465	0.0225	-0.1208	-0.0181	63.6
0.0307	0.009	-0.0555	-0.003	63.4
0.0135	0.003	-0.03	-0.0008	63.1
0.0007	-0.0008	0.0052	0.0045	62.9
-0.015	-0.0091	0.0345	0.0075	62.6
-0.0203	-0.012	0.057	0.009	62.3
-0.033	-0.0173	0.0802	0.0127	62.1
-0.0315	-0.0158	0.0645	0.0105	61.8
-0.0233	-0.0105	0.0525	0.0082	61.6
-0.0181	-0.0113	0.0382	-0.0008	61.3
-0.0091	-0.0083	0.0255	-0.0053	61
-0.0053	-0.0038	0.0045	-0.0068	60.8
0.003	0.0007	-0.0128	-0.0113	60.5
0.009	0.0052	-0.0383	-0.0173	60.3
0.0195	0.0127	-0.0728	-0.0218	60
0.0277	0.012	-0.0698	-0.0165	59.7
0.027	0.012	-0.0706	-0.0143	59.5
0.0277	0.0127	-0.0578	-0.0068	59.2
0.018	0.0052	-0.0195	0.018	58.9
0.0037	-0.0023	0.0172	0.0345	58.6
-0.0075	-0.0105	0.0427	0.0345	58.3
-0.0165	-0.0128	0.0532	0.0277	58
-0.0195	-0.0113	0.0502	0.0067	57.7
-0.0143	-0.0105	0.039	-0.0105	57.4
-0.0091	-0.0083	0.027	-0.0143	57.1
-0.003	-0.0046	0.0067	-0.0128	56.8
0.003	0.0007	-0.0143	-0.006	56.5
0.0045	0.0022	-0.0105	0.0022	56.2
0.0007	-0.0008	-0.0068	0.0052	55.9
0.0067	0.0022	-0.024	-0.0046	55.6
0.0067	0.0015	-0.0053	-0.0075	55.3
-0.0038	0.0007	0.0052	0.0007	55
-0.003	0	0.0022	0.003	54.7
-0.0075	-0.0038	0.0165	0.0052	54.4
-0.0075	-0.003	0.0045	0.0052	54
0.0052	0.0015	-0.0278	-0.0015	53.7
0.0112	0.0052	-0.0278	-0.0083	53.5
0.0045	0.0015	0.0082	-0.0105	53.1
-0.0068	-0.0015	0.027	-0.0113	52.8
-0.0143	-0.0053	0.0465	-0.0128	52.5
-0.0195	-0.0038	0.048	-0.0233	52.2
-0.0128	0.0015	0.0277	-0.0143	51.8
-0.003	0.003	0.0127	0.009	51.5
-0.0008	0.0007	0.0165	0.021	51.1
-0.003	-0.0046	0.0112	0.0292	50.8
0.0007	0	-0.0233	0.0112	50.4
0.0037	0.0007	-0.0158	-0.0091	50.1
0.0045	0	-0.0225	-0.003	49.8
0.0082	0.0052	-0.0353	-0.0008	49.4
0.0112	0.0045	-0.0465	-0.0188	49.1
0.0172	0.0082	-0.0668	-0.0323	48.7
0.0195	0.0082	-0.0608	-0.0293	48.4
0.0202	0.0082	-0.0691	-0.0248	48.1
0.0255	0.0142	-0.0818	-0.0165	47.7
0.0307	0.0165	-0.0885	0.0067	47.4
0.0277	0.0135	-0.0728	0.0307	47.1
0.024	0.0097	-0.0645	0.036	46.7
0.0255	0.006	-0.054	0.0292	46.4
0.0202	-0.0008	-0.0383	0.0127	46
0.0165	0.0045	-0.03	-0.003	45.6
0.012	0.0015	-0.0046	-0.003	45.2
0.006	-0.003	0.009	-0.003	44.8
0	0.0007	0.024	0.0007	44.5
-0.0053	-0.0015	0.0367	0.0052	44.1
-0.0098	-0.0015	0.0442	0	43.6
-0.0135	-0.0038	0.0465	-0.0053	43.2
-0.0143	-0.0053	0.0457	-0.0158	42.8
-0.0181	-0.006	0.0465	-0.0256	42.4
-0.0181	-0.0098	0.057	-0.0225	42
-0.0248	-0.0113	0.0735	-0.0068	41.7
-0.0278	-0.0083	0.0712	0.0082	41.3
-0.0218	-0.0046	0.0667	0.009	40.9
-0.0203	-0.0053	0.0517	0.0052	40.5
-0.0165	-0.0075	0.033	0.0052	40
-0.0158	-0.0098	0.0187	0.0067	39.6
-0.0128	-0.0091	0.0082	-0.0091	39.3
-0.0068	-0.0068	0.009	-0.0105	38.9
-0.0083	-0.0046	0.0075	0.0082	38.5
-0.0068	-0.003	0.0157	0.0045	38
-0.0068	-0.0008	0.0277	-0.0046	37.6
-0.0091	-0.0008	0.027	0.0165	37.2
-0.0091	-0.0068	0.021	0.0397	36.7
-0.0143	-0.0128	0.0202	0.0367	36.3
-0.0181	-0.0143	0.018	0.033	35.8
-0.0203	-0.0113	0.0142	0.033	35.4
-0.0181	-0.0105	0.006	0.0232	34.9
-0.0113	-0.0083	-0.0128	0.0105	34.5
-0.0046	-0.0075	-0.0158	0.0022	34
-0.0015	-0.0075	-0.0053	-0.012	33.6
0.0007	-0.0008	0.009	-0.0555	33.1
0.003	0.0052	0.0292	-0.0863	32.7
0.0007	0.0067	0.039	-0.0698	32.2
0.0052	0.0075	0.0375	-0.0428	31.8
0.0082	0.0105	0.0382	-0.0143	31.3
0.012	0.012	0.0315	0.0457	30.9
0.0187	0.0067	0.015	0.0877	30.4
0.0195	0.003	-0.0015	0.0765	30
0.0157	-0.0015	-0.006	0.0457	29.5
0.0157	-0.0135	0.0007	0.0277	29
0.0195	-0.0195	0.0037	0.0105	28.6
0.018	-0.0083	0.0037	-0.0068	28.1
0.0105	0.0022	-0.0008	0.0015	27.6
0.0045	0.0007	-0.0068	0.0157	27.1
-0.0053	-0.0008	-0.0068	0.018	26.6
-0.0143	0.0067	-0.0068	0.0165	26.2
-0.0135	0.0097	-0.0008	0.0315	25.7
-0.0143	0.0082	0.006	0.0367	25.2
-0.0128	0.0075	0.0052	0.0135	24.7
-0.0053	0	0.0067	-0.0053	24.3
-0.0046	-0.0053	0.0105	-0.015	23.8
-0.0008	-0.0053	0.003	-0.0181	23.3
0.0075	-0.0023	-0.0091	-0.0135	22.8
0.0127	-0.0008	-0.0113	-0.0068	22.3
0.0165	0.0022	-0.0188	-0.0098	21.8
0.0135	0.0052	-0.0165	-0.0158	21.4
0.0082	0.0007	-0.0046	-0.015	20.9
0.0022	-0.0008	-0.0128	-0.0143	20.4
-0.003	-0.0015	-0.0181	-0.012	19.9
-0.0083	-0.003	-0.0195	-0.0158	19.4
-0.012	0.0015	-0.0263	-0.0158	19
-0.0143	0.006	-0.03	-0.0181	18.5
-0.0128	0.009	-0.0413	-0.0353	18.1
-0.012	0.009	-0.048	-0.048	17.7
-0.0143	0.0082	-0.0548	-0.054	17.2
-0.0105	0.009	-0.0495	-0.0473	16.8
-0.0046	0.0067	-0.0293	-0.0158	16.3
-0.0023	0.0067	0.009	0.0352	15.9
-0.012	-0.0068	0.114	0.0787	15.4
-0.0353	-0.0195	0.141	0.0735	15
-0.015	0.0037	0.0007	0.033	14.6
0.0165	0.0127	-0.0128	0.0217	14.1
-0.0188	-0.0158	0.0952	0.0255	13.7
-0.0368	-0.0203	0.0667	0.0052	13.2
-0.027	-0.0158	0.0465	0.0007	12.8
-0.027	-0.012	0.0285	-0.0008	12.3
-0.006	0.0007	-0.0158	-0.0083	11.9
-0.0015	0.0015	0.0015	-0.0023	11.5
0.0075	0.003	-0.0053	-0.0046	11
0.0202	-0.0008	-0.0068	-0.0053	10.5
0.018	-0.0008	-0.0195	-0.0046	10.3
0.0277	0.0022	-0.0338	-0.0046	10
0.024	0	-0.0068	0.0007	9.7
0.024	0.0037	-0.0015	-0.0038	9.4
0.0367	0.003	-0.0195	-0.0083	9
0.039	-0.0015	-0.0068	-0.0075	8.8
0.0352	-0.0068	0.0067	-0.0083	8.5
0.0307	-0.0098	0.0067	-0.0068	8.1
0.021	-0.0091	0.015	-0.0023	7.8
0.0045	-0.0083	0.0075	-0.0053	7.5
-0.0038	-0.0023	0.0127	-0.0083	7.2
0.0142	-0.0023	0.0247	-0.0046	6.9
0.0217	-0.0083	0.0277	-0.0053	6.6
0.0097	-0.0068	0.0307	-0.0008	6.3
-0.006	-0.006	0.0285	0.0045	6
-0.027	-0.0023	0.0307	0.003	5.7
-0.0338	0.0022	0.0277	0.0075	5.4
-0.027	-0.0015	0.0345	0.0105	5.1
-0.0285	-0.0038	0.039	0.009	4.8
-0.0278	-0.0008	0.0352	0.0045	4.5
-0.0293	-0.003	0.042	-0.0008	4.4
-0.0203	-0.0053	0.0495	-0.0015	4.4
-0.0015	-0.0046	0.0487	-0.0046	4.3
0.0135	-0.0083	0.0345	-0.006	4.2
0.0127	-0.0143	0.0277	-0.0053	4.1
-0.0053	-0.0128	0.0255	-0.0068	4
-0.0143	-0.0038	0.0165	-0.0053	4
-0.0218	0.0075	0.009	-0.0083	3.9
-0.0233	0.009	0.0015	-0.012	3.8
-0.0195	0.006	-0.0113	-0.012	3.7
-0.0091	0.0067	-0.0263	-0.0113	3.6
0.0015	0.0097	-0.039	-0.0105	3.6
0.0007	0.009	-0.0495	-0.0105	3.5
-0.0083	0.0105	-0.06	-0.0091	3.4
0.0015	0.012	-0.0615	-0.0068	3.3
0.0202	0.012	-0.0428	-0.0075	3.2
0.033	0.0075	-0.0233	-0.012	3.1
0.0322	-0.0015	-0.0083	-0.015	3.1
0.0112	-0.0008	-0.003	-0.0128	3
0.003	0.006	-0.0105	-0.0105	2.9
0.0067	0.0052	-0.0225	-0.0083	2.9
0.0127	0.0052	-0.0315	-0.0046	2.9
0.0127	0.006	-0.0346	-0.003	3
0.0105	0.0045	-0.0465	-0.0038	3
0.009	-0.0091	-0.0488	-0.0068	3.1
0.0067	-0.0218	-0.057	-0.012	3.1
0.0195	-0.0181	-0.081	-0.0105	3.1
0.0217	-0.015	-0.0728	-0.0023	3.1
0.009	-0.0181	-0.048	0.0037	3.2
-0.0008	-0.0195	-0.0361	0.0045	3.2
-0.003	-0.0195	-0.033	0.0045	3.2
0.0037	-0.0218	-0.0398	-0.0015	3.3
0.0052	-0.0165	-0.045	-0.006	3.3
-0.0068	-0.0046	-0.0346	-0.0068	3.4
-0.012	0.0112	0.0045	0.0015	3.4
-0.0225	0.0142	0.057	0.018	3.4
-0.0405	0.012	0.0742	0.027	3.5
-0.0405	0.0217	0.0742	0.0315	3.5
-0.0293	0.0345	0.0525	0.027	3.5
-0.0181	0.0382	0.0217	0.0165	3.6
-0.0135	0.0255	0.027	0.012	3.6
-0.0105	0.003	0.0352	0.0067	3.7
-0.0158	-0.0203	0.0495	0.0045	3.8
-0.0195	-0.0256	0.0442	0.003	3.9
-0.0046	0.0007	0.033	0.003	4
0.018	0.018	0.03	0.0037	4.1
0.0405	0.0127	0.0202	0.0015	4.2
0.0532	0.0142	0.0337	0.0022	4.3
0.0525	0.0202	0.042	0.0007	4.4
0.0465	0.0247	0.0255	-0.0015	4.5
0.0412	0.0255	0.003	-0.0053	4.5
0.0285	0.0097	-0.0083	-0.0068	4.6
0.0225	0.0007	-0.012	-0.0015	4.7
0.0225	-0.0038	-0.0143	0.0067	4.8
0.0202	-0.0083	-0.0046	0.0097	4.9
0.009	-0.0083	-0.0046	0.0037	5
-0.0203	-0.0091	-0.0083	0.0015	5.1
-0.0488	-0.0098	-0.0128	0.0082	5.2
-0.0615	-0.0105	-0.027	0.012	5.3
-0.0585	-0.0068	-0.0465	0.012	5.3
-0.048	-0.006	-0.0593	0.0075	5.4
-0.0308	-0.003	-0.06	-0.0015	5.5
-0.0083	-0.0023	-0.0585	-0.0038	5.7
0.0157	-0.0046	-0.0503	-0.0038	5.8
0.0225	-0.0053	-0.0346	-0.0068	5.8
0.0202	-0.0083	-0.021	-0.0113	5.9
0.0337	-0.0038	-0.0263	-0.0143	6
0.0532	0.0015	-0.033	-0.0105	6.2
0.0532	0.0022	-0.0405	-0.0083	6.3
0.0457	-0.0015	-0.0375	-0.0091	6.3
0.0465	-0.0098	-0.0113	-0.0105	6.4
0.0322	-0.0135	0.0007	-0.0083	6.5
0.0277	-0.0046	-0.006	-0.0053	6.7
0.0247	0.0067	-0.0135	-0.0068	6.7
0.0232	0.009	0	-0.006	6.8
0.0217	0.0105	0.024	-0.0038	6.9
0.0142	0.0127	0.0165	-0.0015	7
0.0277	0.0135	-0.0128	0.0015	7.2
0.0375	0.0067	-0.0353	-0.0008	7.2
0.0255	0.0015	-0.0495	-0.0068	7.3
-0.0181	-0.0008	-0.06	-0.0091	7.3
-0.066	0.0015	-0.066	-0.0008	7.3
-0.0721	0.0097	-0.0653	0.009	7.3
-0.0503	0.0142	-0.0555	0.0045	7.3
-0.0173	0.018	-0.0293	0	7.3
0.0097	0.0142	-0.0091	-0.0008	7.2
0.009	0.0015	-0.0105	-0.0083	7.2
0	-0.006	-0.0053	-0.012	7.2
-0.012	-0.0083	-0.0046	-0.0113	7.2
-0.0098	-0.0075	0.0052	-0.006	7.2
0.0007	-0.0083	0.0172	-0.003	7.2
-0.003	-0.0091	0.0157	-0.0046	7.2
0.003	-0.003	0.012	-0.0098	7.1
0.003	0.0007	0.009	-0.0195	7.1
-0.0128	-0.0038	0.018	-0.0195	7.1
-0.024	-0.0053	0.0262	-0.0158	7.1
-0.0256	-0.003	0.0352	-0.0038	7
-0.0315	-0.0046	0.0465	0.0135	7
-0.0578	-0.0053	0.0465	0.0217	7
-0.0871	-0.0023	0.042	0.0202	6.9
-0.0863	0.003	0.0367	0.015	6.9
-0.0615	0.003	0.045	0.0105	6.9
-0.0353	-0.0053	0.0555	0.0082	6.9
-0.0091	-0.0128	0.057	0.012	6.9
0.006	-0.012	0.0615	0.0127	6.9
0.0217	-0.0091	0.0607	0.015	6.9
0.0345	-0.0128	0.06	0.018	6.9
0.0397	-0.0195	0.0615	0.0165	6.9
0.0397	-0.0218	0.0592	0.0097	6.9
0.0337	-0.0135	0.048	0.0045	7
0.0375	-0.003	0.033	0.0022	7
0.0277	0.003	0.0412	0.0037	7
0.0127	0.009	0.0532	0.0067	7
0.009	0.0075	0.0555	0.003	7
0.0075	-0.0023	0.0502	0.003	7
0.015	-0.0105	0.0322	0.003	7
0.012	-0.006	0.0157	0.0007	7
-0.003	0.003	0.0067	0.0015	7
-0.0068	-0.0046	-0.0038	-0.0008	7
-0.0015	-0.0068	-0.0165	-0.0038	7
0.0045	0.0007	-0.0195	-0.0091	7.1
0.0007	0.0015	-0.0113	-0.0195	7.2
-0.0046	0.0052	-0.0008	-0.0278	7.4
-0.0083	0.0037	-0.0083	-0.024	7.5
-0.0158	0.0045	-0.0233	-0.0068	7.6
-0.0143	0.0052	-0.0248	0.0112	7.8
0.0015	-0.0008	-0.0293	0.0277	7.9
0.021	-0.0015	-0.0285	0.0367	8.1
0.0165	0.0015	-0.0181	0.0345	8.2
0.0045	0.0022	-0.0181	0.0202	8.3
-0.0008	0.003	-0.0173	0.003	8.5
-0.0128	0.0052	-0.0195	-0.0053	8.6
-0.0046	0.0045	-0.024	-0.0105	8.7
-0.0008	0.0007	-0.0256	-0.0128	8.9
-0.0105	-0.003	-0.03	-0.0105	9
-0.006	-0.0008	-0.0293	-0.006	9.1
-0.0008	0.0022	-0.0308	-0.0046	9.3
0.003	0.003	-0.0346	-0.0008	9.4
0.009	0.0082	-0.0263	0.0015	9.5
0.03	0.012	-0.0113	-0.0008	9.7
0.0442	0.009	-0.015	-0.0053	9.8
0.027	0.0067	-0.0248	-0.0091	9.9
0	0.003	-0.0158	-0.012	9.9
-0.033	-0.003	-0.0008	-0.0143	10
-0.0443	-0.0038	0.0157	-0.012	10.1
-0.0383	-0.003	0.0292	-0.0083	10.2
-0.0405	-0.0046	0.0285	-0.0053	10.3
-0.0308	-0.0008	0.0247	-0.0046	10.4
-0.0203	0.0007	0.0232	-0.006	10.5
-0.0128	0	0.0105	-0.006	10.6
-0.0068	-0.0008	-0.0023	-0.0038	10.6
-0.003	-0.0015	-0.0015	-0.003	10.7
0.015	-0.0008	-0.0068	-0.003	10.8
0.0217	0	-0.0143	-0.0023	10.9
0.0217	0.0007	-0.0278	-0.003	11
0.021	0.0022	-0.0428	-0.0046	11.1
0.018	0.0045	-0.0533	-0.0046	11.2
0.0217	0.003	-0.06	-0.0046	11.2
0.03	0.003	-0.0578	-0.0038	11.3
0.042	0.0045	-0.0503	-0.0046	11.4
0.0457	0.003	-0.0405	-0.0046	11.4
0.0262	0.0015	-0.0293	-0.003	11.4
-0.0015	0.0015	-0.0233	-0.0023	11.4
-0.0113	0.0007	-0.024	-0.003	11.4
-0.0053	-0.003	-0.0256	-0.0015	11.4
0.0097	-0.0046	-0.0105	-0.0008	11.4
0.009	-0.0008	0.0082	-0.003	11.4
-0.0038	0.0007	0.0135	-0.003	11.4
0.0015	0.003	0.0142	-0.003	11.4
0.0097	0.0052	0.012	-0.0038	11.4
0.0217	0.0067	0.0105	-0.003	11.4
0.0337	0.0097	0.0082	-0.003	11.4
0.0352	0.0067	0.0015	-0.006	11.3
0.0322	-0.0015	-0.0091	-0.0105	11.3
0.0217	-0.0046	-0.0143	-0.0091	11.3
0.0045	-0.0015	-0.0015	-0.0046	11.3
-0.0195	-0.0015	0.0157	-0.0008	11.3
-0.033	-0.0038	0.03	0.003	11.3
-0.0353	-0.0068	0.0345	0.0045	11.3
-0.0315	-0.0083	0.0375	0.0037	11.2
-0.0256	-0.006	0.033	0.003	11.2
-0.021	-0.003	0.0217	0.0022	11.2
-0.0218	-0.0015	0.024	0.0022	11.1
-0.021	-0.0038	0.0217	0.0022	11
-0.0195	-0.003	0.018	0.0007	10.9
-0.0181	-0.0015	0.0142	0.0015	10.9
-0.0128	-0.0046	0.0157	0.003	10.8
-0.0068	-0.0015	0.0067	0.0015	10.7
-0.0015	-0.0008	0.0052	0.0022	10.7
-0.0015	-0.003	0.0105	0.003	10.6
-0.0046	-0.0008	0.0067	0.003	10.5
-0.0053	0.0007	0.0082	0.0052	10.4
-0.006	-0.0015	0.0075	0.0052	10.4
-0.0038	-0.0008	0.0075	0.0022	10.3
0.0037	-0.0015	0.0067	-0.0008	10.3
0.0112	-0.0015	0.012	-0.003	10.2
0.0165	-0.003	0.021	-0.0046	10.1
0.0202	-0.0015	0.0217	-0.0008	10
0.0202	-0.0008	0.0217	0.0022	10
0.0217	0	0.0165	-0.0008	9.9
0.0195	0.0037	0.0067	-0.0128	9.9
0.0135	0.0052	-0.0023	-0.0285	9.8
0.0075	0.0045	-0.0091	-0.0383	9.8
0.003	0.003	-0.0128	-0.0308	9.7
-0.0015	0.0015	-0.0158	-0.0158	9.6
-0.006	-0.0008	-0.0181	0.0052	9.6
-0.0053	0.0007	-0.0188	0.0217	9.5
-0.0068	-0.0008	-0.0165	0.0217	9.5
-0.0053	-0.003	-0.0128	0.0187	9.4
-0.0046	-0.003	-0.0091	0.0217	9.4
-0.003	-0.0046	-0.0038	0.0195	9.4
-0.0053	-0.003	-0.0008	0.0015	9.3
-0.0091	-0.0046	0	-0.0053	9.3
-0.0098	-0.0053	-0.0008	-0.0015	9.2
-0.0091	-0.003	-0.0083	-0.0046	9.1
-0.0068	-0.0023	-0.0098	-0.003	9.1
-0.0053	0	-0.0015	-0.003	9
-0.0015	0	0.0037	-0.0008	9
-0.0075	-0.0023	0.009	0	9
-0.0135	-0.003	0.0157	-0.0008	8.9
-0.0181	-0.0008	0.0255	0.003	8.9
-0.012	-0.0015	0.0345	0.0022	8.9
0	-0.0046	0.0412	0.0045	9
-0.0053	-0.0046	0.0472	0.0067	9
-0.0015	-0.003	0.042	0.0067	9
0	-0.0015	0.0367	0.0067	9
-0.0046	-0.0053	0.0375	0.0067	9
-0.0046	-0.0038	0.0367	0.0082	9
-0.0046	-0.0008	0.0367	0.009	9.1
0.0007	-0.0015	0.039	0.0105	9.1
-0.003	-0.0091	0.0337	0.0067	9.1
-0.0091	-0.0143	0.0277	0.0067	9.1
-0.0105	-0.0091	0.0255	0.0082	9.2
-0.0091	-0.0068	0.0142	0.006	9.2
-0.0091	-0.0053	0.0067	0.0067	9.2
-0.0053	-0.0023	0	0.0045	9.2
-0.0015	-0.0046	-0.0083	0.0037	9.2
-0.003	-0.0068	-0.0105	0.003	9.3
-0.0015	-0.003	-0.012	0.003	9.3
0	-0.0008	-0.0098	0.0045	9.3
0.0007	0.0007	-0.0105	0.003	9.3
0.0045	0.0045	-0.0143	0.0022	9.4
0.0105	0.006	-0.0173	0.0007	9.4
0.0165	0.0052	-0.021	0.0015	9.4
0.0142	0.0052	-0.0218	0.0015	9.4
0.0082	0.0052	-0.0203	-0.0008	9.4
0.0097	0.006	-0.0233	-0.0008	9.4
0.0165	0.0067	-0.024	-0.0015	9.4
0.0187	0.0082	-0.027	-0.0008	9.4
0.012	0.0082	-0.0308	0	9.5
0.0045	0.0067	-0.0285	-0.0008	9.5
0.006	0.0052	-0.0308	-0.0015	9.5
0.0127	0.003	-0.0368	-0.003	9.5
0.027	0.0037	-0.042	-0.003	9.5
0.033	0.006	-0.0495	-0.0046	9.5
0.0307	0.0067	-0.0518	-0.003	9.6
0.0277	0.006	-0.0503	-0.0038	9.6
0.021	0.0075	-0.048	-0.0038	9.6
0.0157	0.009	-0.0428	-0.003	9.6
0.0015	0.006	-0.0383	-0.0023	9.6
-0.0105	0.0037	-0.024	0.0015	9.6
-0.0143	0.0007	-0.0165	0.0022	9.6
-0.0165	0.0007	-0.0113	0.0015	9.6
-0.0188	-0.0015	-0.0083	0.0015	9.6
-0.0218	-0.0008	-0.0105	-0.0008	9.6
-0.0203	0.0007	-0.006	-0.0008	9.6
-0.0113	-0.0015	0.009	0.0045	9.6
-0.0068	-0.003	0.0292	0.0052	9.6
-0.0083	-0.006	0.0375	0.0045	9.5
-0.0105	-0.0053	0.0367	0.0045	9.5
-0.0083	-0.0023	0.0165	-0.0023	9.5
0.0045	0	-0.0015	-0.003	9.5
0.003	-0.0008	0.0045	-0.0008	9.5
0.0007	-0.0015	-0.0091	-0.0075	9.5
0.0082	0.003	-0.0218	-0.0091	9.4
0.0142	0.0022	-0.0181	-0.0091	9.4
0.0195	0.0022	-0.015	-0.0098	9.4
0.0172	0.0007	-0.0053	-0.0091	9.4
0.0157	0.0007	-0.0053	-0.0083	9.4
0.0105	0.0015	-0.0053	-0.006	9.4
0.0052	0.0015	-0.0098	-0.0053	9.4
0.0067	0.0052	-0.0203	-0.0046	9.4
0.0127	0.009	-0.0308	-0.0075	9.4
0.0172	0.0105	-0.0443	-0.0135	9.3
0.021	0.0127	-0.054	-0.0143	9.3
0.021	0.0105	-0.0548	-0.0143	9.3
0.0127	0.0045	-0.0495	-0.0128	9.3
0.0105	0.0045	-0.0495	-0.0105	9.2
0.0142	0.0067	-0.0495	-0.0083	9.2
0.0135	0.0052	-0.0495	-0.006	9.2
0.009	0.003	-0.042	-0.006	9.2
0.0045	0.003	-0.0405	-0.006	9.2
0.0045	0.0037	-0.0368	-0.0038	9.1
0.003	-0.0008	-0.0225	-0.0015	9.1
-0.0008	-0.0038	-0.0165	0	9.1
-0.003	-0.0015	-0.0143	0	9.1
-0.0015	0	-0.0158	-0.0015	9
-0.0015	-0.0008	-0.012	-0.0015	9
-0.0008	-0.0015	-0.0105	-0.0015	9
0	0.0015	-0.0143	-0.0008	9
0.0015	0.006	-0.0218	-0.003	9
0.0082	0.0052	-0.0233	-0.0046	9
0.0052	0.003	-0.0135	-0.0015	8.9
0.0015	0.0015	-0.0181	-0.0015	8.9
0.003	0.0007	-0.0195	-0.003	8.9
0.006	0.0007	-0.0195	-0.0023	8.8
0.009	0.0045	-0.0248	-0.0038	8.8
0.0105	0.0045	-0.0225	-0.0046	8.8
0.0105	0.0052	-0.0195	-0.0053	8.8
0.006	0.0045	-0.0143	-0.0053	8.7
0.0015	0.0045	-0.0105	-0.0038	8.7
0.0007	0.0045	-0.0098	-0.0015	8.7
0	0.003	-0.0091	-0.0023	8.6
-0.0008	0.0045	-0.0083	-0.003	8.6
-0.0015	0.0045	-0.0083	-0.0046	8.6
0.0015	0.0037	-0.0105	-0.003	8.5
0.0015	0.0045	-0.0075	-0.0008	8.5
-0.0015	0.003	-0.003	0	8.5
-0.0015	0	0.0045	0.0007	8.5
-0.0015	-0.0023	0.0127	0.003	8.4
-0.0038	-0.0053	0.0195	0.0052	8.4
-0.0068	-0.0068	0.024	0.0045	8.4
-0.0113	-0.0068	0.0345	0.006	8.4
-0.0165	-0.0091	0.045	0.0082	8.4
-0.0218	-0.0105	0.0555	0.0097	8.3
-0.0233	-0.0113	0.066	0.012	8.3
-0.0218	-0.0128	0.0727	0.0112	8.3
-0.024	-0.0143	0.0802	0.0157	8.3
-0.0256	-0.0143	0.0825	0.0127	8.2
-0.027	-0.0165	0.0862	0.012	8.2
-0.0308	-0.0181	0.0885	0.0127	8.2
-0.03	-0.0181	0.0802	0.0105	8.1
-0.0293	-0.0181	0.078	0.012	8.1
-0.027	-0.0143	0.078	0.0097	8.1
-0.0256	-0.0135	0.0772	0.009	8.1
-0.0256	-0.0143	0.0825	0.0097	8.1
-0.0233	-0.015	0.0862	0.009	8.1
-0.024	-0.0165	0.0922	0.0112	8
-0.0248	-0.0181	0.099	0.012	8
-0.0256	-0.0195	0.105	0.0142	7.9
-0.0293	-0.0203	0.1155	0.0157	7.9
-0.033	-0.0203	0.1177	0.0157	7.9
-0.0323	-0.0203	0.1177	0.0157	7.9
-0.03	-0.0181	0.1185	0.0157	7.8
-0.0308	-0.0181	0.114	0.0135	7.8
-0.027	-0.0158	0.105	0.012	7.8
-0.0248	-0.0128	0.093	0.0105	7.7
-0.0225	-0.012	0.078	0.0082	7.7
-0.0195	-0.0113	0.069	0.0052	7.7
-0.0165	-0.0113	0.0562	0.003	7.6
-0.0113	-0.0083	0.0427	0.003	7.6
-0.0068	-0.0046	0.033	0	7.6
0	-0.0038	0.0232	-0.0023	7.6
0.0022	0.0007	0.015	-0.0046	7.6
0.0052	0.003	0.0045	-0.0053	7.5
0.0075	0.0022	-0.003	-0.0053	7.5
0.009	0.0045	-0.0105	-0.006	7.5
0.0127	0.0052	-0.021	-0.0075	7.4
0.0142	0.0067	-0.0346	-0.0083	7.4
0.015	0.0067	-0.0278	-0.003	7.3
0.0097	0.003	-0.0143	-0.0008	7.3
0.0082	0.0052	-0.0285	-0.0046	7.3
0.0067	0.006	-0.0361	-0.006	7.3
0.0052	0.009	-0.048	-0.0075	7.2
0.0127	0.0127	-0.0585	-0.0083	7.2
0.0105	0.0112	-0.0615	-0.0068	7.2
0.0135	0.0127	-0.0728	-0.0105	7.2
0.0202	0.0105	-0.0788	-0.0128	7.1
0.0255	0.0097	-0.0795	-0.0105	7.1
0.03	0.0097	-0.0728	-0.0105	7
0.0352	0.0105	-0.0743	-0.0105	7
0.042	0.012	-0.0653	-0.0091	7
0.0435	0.0097	-0.06	-0.0091	6.9
0.0465	0.0082	-0.0578	-0.0098	6.9
0.0412	0.0097	-0.0503	-0.0091	6.9
0.0412	0.0142	-0.0563	-0.0091	6.8
0.045	0.0187	-0.0495	-0.0091	6.8
0.0442	0.0157	-0.0458	-0.0098	6.7
0.0367	0.0082	-0.0458	-0.0105	6.7
0.0255	0.0067	-0.0465	-0.0113	6.7
0.0172	0.009	-0.0518	-0.0098	6.7
0.009	0.0067	-0.0533	-0.0068	6.7
0.0037	0.0067	-0.0511	-0.0053	6.6
0.0022	0.006	-0.0518	-0.0046	6.6
0.003	0.0067	-0.0495	-0.0053	6.6
-0.0015	0.0067	-0.042	-0.0046	6.5
-0.0091	0.0045	-0.0368	-0.0046	6.5
-0.012	0.003	-0.0315	-0.0046	6.5
-0.0083	0.0022	-0.033	-0.0046	6.4
-0.0038	0.0022	-0.033	-0.0038	6.4
0.0007	0.0052	-0.03	-0.0015	6.4
0.0007	0.0052	-0.0218	0.0007	6.3
-0.0015	0.003	-0.0165	0.0007	6.3
0	0.0022	-0.0203	0.0007	6.3
0.0022	0.003	-0.0218	0	6.3
0.006	0.003	-0.0188	0.0007	6.3
0.003	0.0007	-0.0113	0.003	6.2
0	0.0007	-0.012	0.0022	6.2
0.0015	-0.0008	-0.0128	0	6.2
0.0037	-0.0015	-0.0135	-0.0008	6.1
0.0015	-0.0008	-0.0105	0.0015	6.1
-0.0015	-0.0008	-0.0091	0	6.1
0.0022	0.0022	-0.0158	-0.0015	6
0.0045	0.0045	-0.0165	-0.0008	6
0.0045	0.003	-0.0135	-0.0015	6
0	0.0022	-0.0068	-0.0008	6
-0.0023	0.0022	-0.0046	-0.0023	6
-0.003	0.0007	-0.0023	-0.0015	5.9
-0.0015	0.0007	0.006	0	5.9
-0.0015	0.0007	0.0082	-0.0008	5.9
-0.0046	0.0007	0.0112	0	5.9
-0.0046	0	0.0127	0.003	5.8
-0.0053	-0.0008	0.0105	0.0007	5.8
-0.0053	0.0015	0.009	-0.0008	5.8
-0.0023	0.0007	0.009	-0.0008	5.8
-0.003	-0.0008	0.012	-0.0008	5.8
-0.0053	-0.0015	0.0112	0	5.8
-0.0046	-0.0023	0.0045	-0.0015	5.7
-0.003	-0.0015	0	-0.0008	5.7
-0.0015	-0.0015	0.0007	-0.0015	5.6
-0.0008	-0.0008	0	-0.0023	5.6
0.0007	0.0007	-0.0023	-0.0023	5.6
0.003	0.0007	-0.0038	-0.0023	5.6
0.0007	-0.0008	-0.0008	-0.0023	5.6
0.0007	0	0.0022	-0.003	5.6
0.0007	-0.0023	0.006	0	5.6
-0.0023	-0.006	0.0075	0.0007	5.6
-0.0038	-0.0046	0.0067	-0.0008	5.5
-0.0046	-0.0053	0.0052	0.0007	5.5
-0.0053	-0.006	0.0075	-0.0008	5.5
-0.0015	-0.003	0.0067	-0.0023	5.5
-0.0023	-0.0038	0.0075	-0.0008	5.5
-0.0023	-0.003	0.0105	0	5.4
-0.0015	-0.003	0.006	0.0015	5.4
-0.0015	-0.0023	0.0052	0.0007	5.4
0	-0.0015	0.0075	0.0007	5.4
0	-0.0015	0.0082	0.0015	5.4
0	-0.0023	0.0052	0	5.4
-0.0023	-0.0015	0.0045	-0.0008	5.3
-0.0015	-0.0023	0.0052	0	5.3
0.0007	-0.0015	0.0045	0	5.3
0.0007	-0.0015	0.0067	-0.0008	5.3
-0.0008	-0.003	0.0105	0.0022	5.3
-0.0053	-0.0038	0.0202	0.0045	5.3
-0.0068	-0.0053	0.024	0.0052	5.3
-0.0083	-0.0068	0.0255	0.0052	5.3
-0.0105	-0.006	0.0255	0.0037	5.3
-0.0105	-0.006	0.0217	0.003	5.2
-0.0083	-0.0053	0.0187	0.003	5.2
-0.0053	-0.0038	0.015	0.003	5.2
-0.003	-0.0053	0.0165	0.0022	5.2
-0.0015	-0.003	0.0105	-0.0008	5.2
0	-0.0015	0.0075	0	5.1
-0.003	-0.003	0.0187	0.0022	5.1
-0.006	-0.0015	0.015	0.0015	5.1
-0.003	0.0015	0.0022	-0.0008	5.1
0.0007	0.0022	0.0067	0.0015	5.1
-0.0038	-0.0015	0.018	0.0052	5.1
-0.0083	-0.0046	0.0187	0.0022	5
-0.0038	-0.0015	0.0142	0.0007	5
0	-0.003	0.0157	0.003	5
-0.0015	-0.003	0.0157	0.0045	5
-0.0015	-0.003	0.0187	0.0045	4.9
-0.003	-0.0038	0.0142	0.003	4.9
-0.0008	-0.0015	0.0082	0.0015	4.9
-0.0008	-0.0008	0.0045	0.0015	4.9
-0.0038	-0.0015	0.0015	0.003	4.9
-0.0015	-0.0015	0	0.003	4.9
-0.0008	0.0007	-0.0083	0.0015	4.8
0.003	0.0045	-0.0181	-0.003	4.8
0.0127	0.0067	-0.0383	-0.0068	4.8
0.0187	0.0082	-0.0428	-0.0091	4.7
0.0142	0.0052	-0.0225	-0.0046	4.7
0.009	0.003	-0.0091	-0.0023	4.7
0.006	0.0007	0.0037	-0.0015	4.7
0.0007	-0.0008	0.0142	0.0015	4.6
-0.0046	-0.003	0.0172	0.003	4.6
-0.0083	-0.003	0.0232	0.0037	4.6
-0.012	-0.0053	0.0262	0.0045	4.6
-0.012	-0.0053	0.0217	0.0037	4.5
-0.0105	-0.0046	0.0195	0.0045	4.5
-0.0105	-0.0068	0.021	0.0067	4.5
-0.0091	-0.0046	0.0142	0.006	4.5
-0.0046	-0.0015	0.0067	0.003	4.5
-0.0008	-0.0023	0.009	0.0022	4.5
0.0007	-0.0008	0.0045	0.003	4.4
0.0052	0.0015	-0.0083	-0.0015	4.4
0.0075	0.003	-0.0165	-0.0038	4.4
0.006	0.0015	-0.0165	-0.003	4.4
0.0067	0.0007	-0.0165	-0.003	4.3
0.0067	0.003	-0.0195	-0.003	4.3
0.0082	0.0022	-0.0128	-0.0015	4.3
0.0052	0.0007	-0.0053	0.0007	4.3
0.0015	0.0015	-0.0053	0	4.3
0.003	0.0007	-0.006	0	4.2
-0.0008	-0.0008	-0.003	0.0007	4.2
-0.0023	0.0015	-0.0008	-0.0008	4.2
-0.0008	0	0.0007	0.003	4.2
-0.003	-0.0008	0.0022	0.003	4.1
-0.0008	0.0037	-0.003	-0.0008	4.1
0.0007	0.0045	-0.0046	-0.0008	4.1
0.0007	0.006	-0.0075	-0.0023	4.1
0.0052	0.0045	-0.0098	-0.0023	4.1
0.0045	0.0007	-0.0091	-0.0015	4
0.0045	0.0022	-0.0105	-0.0015	4
0.0045	0.0015	-0.0083	-0.0008	4
0.0015	0.0015	-0.006	-0.0015	4
0.0022	0.0015	-0.003	0.0007	4
-0.0008	0.0007	0.0015	0.0037	4
-0.0023	-0.0008	0.006	0.0037	3.9
-0.0008	-0.0038	0.0075	0.0015	3.9
-0.0015	-0.003	0.0075	0	3.9
-0.0015	-0.0015	0.0075	-0.0008	3.9
-0.0015	0.0007	0.003	-0.0015	3.9
0.0007	0.003	-0.0068	-0.0038	3.8
0.0045	0.003	-0.0143	-0.003	3.8
0.0052	0.0015	-0.015	-0.0023	3.8
0.006	0.0007	-0.021	-0.0046	3.8
0.009	0.0037	-0.021	-0.0046	3.7
0.0097	0.003	-0.0203	-0.003	3.7
0.0082	0.0015	-0.0218	-0.0015	3.7
0.0075	0.006	-0.0218	-0.0046	3.7
0.009	0.0052	-0.024	-0.0046	3.7
0.0097	0.0037	-0.0203	-0.0046	3.6
0.0082	0.0045	-0.0181	-0.003	3.6
0.0105	0.003	-0.0158	-0.0023	3.6
0.0067	0.003	-0.0083	-0.0008	3.6
0.003	0.003	-0.0075	-0.0015	3.6
0.0022	0.0007	-0.0053	-0.0023	3.6
-0.0008	0	-0.0008	-0.0008	3.5
0.0007	0.0015	0	0.0007	3.5
0.0015	0.0015	-0.0008	0	3.5
0.003	0.0007	-0.0068	-0.0008	3.5
0.003	0.003	-0.0128	-0.003	3.5
0.0037	0.0015	-0.0128	-0.0008	3.4
0.0045	0	-0.012	-0.0015	3.4
0.0015	0.0015	-0.0128	-0.0015	3.4
0.0045	0.0015	-0.0165	-0.0008	3.4
0.0045	0.0015	-0.0158	-0.0008	3.3
0.0022	0.0015	-0.0128	0.0007	3.3
0.0015	0.0007	-0.012	-0.0008	3.3
-0.0015	0.0015	-0.0098	-0.0015	3.3
-0.0008	0.0007	-0.0105	0	3.3
-0.0008	0.0007	-0.0053	0.0015	3.3
-0.0015	0	-0.0015	0.0015	3.3
-0.0015	0.0007	0.0007	0	3.3
-0.0015	0	0.0007	-0.0008	3.2
0.0007	0.0007	0	-0.0008	3.2
-0.003	0	0.003	0	3.2
-0.0023	-0.0015	0.0052	0	3.2
-0.0015	-0.0015	0.0082	0	3.2
-0.0015	-0.0023	0.0082	0.0007	3.2
-0.0023	-0.003	0.0082	0.0022	3.2
-0.0053	-0.0038	0.0097	0.0015	3.1
-0.003	-0.0046	0.0082	0.0007	3.1
-0.0046	-0.0053	0.0105	0.0015	3.1
-0.0046	-0.0053	0.0105	0.003	3.1
-0.0053	-0.0053	0.0142	0.003	3.1
-0.006	-0.0053	0.0165	0.0015	3.1
-0.0046	-0.0038	0.0142	0.0007	3.1
-0.0053	-0.0038	0.0157	0.0007	3.1
-0.0053	-0.0038	0.0165	0.0015	3.1
-0.006	-0.0046	0.015	0.0007	3.1
-0.0038	-0.0053	0.0142	-0.0008	3.1
0	-0.0053	0.0135	-0.0015	3.1
-0.0008	-0.0046	0.0142	-0.0015	3.1
-0.0015	-0.003	0.0135	-0.003	3.1
0.0015	-0.0008	0.0082	-0.0046	3.1
0.0037	0	0.003	-0.0046	3.1
0.0075	0.0015	-0.003	-0.0053	3.1
0.0097	0.003	-0.0128	-0.0068	3.1
0.0067	0.0007	-0.0053	-0.003	3.1
0.0015	-0.0015	0.003	0.0007	3.1
0.0015	-0.0015	0.003	0.0007	3.1
-0.0008	-0.003	0.0165	0.003	3.1
-0.0046	-0.0023	0.0142	0.0015	3.1
-0.0053	-0.0023	0.0135	0.003	3.1
-0.0091	-0.003	0.0202	0.006	3.1
-0.0075	-0.0023	0.0172	0.006	3.1
-0.0083	-0.0015	0.0202	0.006	3.1
-0.0068	-0.0023	0.0195	0.003	3.1
-0.003	-0.003	0.0142	0.0022	3.1
-0.0046	-0.003	0.0157	0.0015	3.1
-0.003	-0.006	0.018	0.0022	3.1
-0.003	-0.0038	0.0142	0.003	3.1
-0.003	-0.0008	0.012	0.003	3.2
-0.0038	-0.0008	0.0082	0.0037	3.2
-0.0015	0.0015	0.0052	0.0037	3.2
0.0007	0.0007	0.0067	0.003	3.2
0	0.0015	0.0037	0.0022	3.3
-0.0008	0	0.0082	0.0015	3.3
-0.0015	0	0.0112	0	3.3
-0.0023	0.0007	0.009	-0.0015	3.3
-0.003	-0.0015	0.009	0	3.3
-0.003	-0.0015	0.0082	0.003	3.4
-0.003	-0.0038	0.0105	0.0007	3.4
-0.003	-0.0038	0.0105	0.0007	3.4
-0.003	-0.0008	0.0082	0.003	3.4
-0.0008	-0.0008	0.006	0.0007	3.5
-0.0015	-0.0015	0.0037	-0.0008	3.5
-0.0015	-0.003	-0.0008	-0.0015	3.5
0.0015	0	-0.0008	-0.0023	3.6
0	0	-0.0015	-0.0023	3.6
0.0022	-0.0015	-0.006	-0.0038	3.6
0.0045	-0.0008	-0.006	-0.0046	3.7
0.0015	-0.0008	-0.0068	-0.006	3.7
0.003	0.0007	-0.0046	-0.0075	3.8
0.003	0.0015	-0.0008	-0.006	3.8
0.003	0	0.003	-0.0053	3.9
0.0015	-0.0023	0.0105	-0.0053	3.9
-0.003	-0.0023	0.012	-0.003	3.9
-0.0023	0	0.0097	-0.0015	4
-0.003	0.0007	0.003	-0.0015	4
-0.0008	0.0007	-0.003	-0.003	4
-0.0008	0.0015	-0.0008	-0.0038	4.1
-0.0008	0	0.0015	-0.0008	4.1
-0.003	0.0007	0	-0.0008	4.2
-0.0015	0.0007	-0.0053	-0.0023	4.2
0.003	0.003	-0.0128	-0.0015	4.3
0.0045	0.0015	-0.0135	-0.003	4.3
0.006	0	-0.0143	-0.0015	4.4
0.0052	0.0007	-0.0165	-0.003	4.4
0.0052	0.0007	-0.015	-0.0046	4.5
0.0007	-0.0008	-0.0105	-0.0015	4.5
-0.0015	0	-0.0068	-0.0015	4.6
-0.0008	-0.0008	-0.006	-0.0008	4.6
-0.003	-0.0015	-0.0046	-0.0008	4.7
-0.0023	-0.0015	-0.003	0.0007	4.8
-0.003	-0.0015	-0.0023	0.0015	4.8
-0.0008	-0.0015	-0.0038	0.0015	4.9
-0.0008	-0.0023	-0.0015	0.003	4.9
-0.003	-0.0015	-0.0053	0	5
0.0037	0.0015	-0.012	-0.0008	5
0.0045	0.0007	-0.0091	0.0007	5.1
0.0052	0.0007	-0.0053	0	5.2
0.009	0.0037	-0.0008	0.0022	5.2
0.0105	0.006	-0.0008	0.003	5.3
0.015	0.0105	-0.003	0.003	5.3
0.018	0.0127	-0.0053	0.003	5.4
0.018	0.0097	-0.0105	-0.0008	5.4
0.0157	0.0052	-0.0098	-0.0008	5.5
0.0112	0.0007	-0.0068	-0.003	5.6
0.0067	0	-0.0053	-0.0046	5.6
0.0045	0	-0.0181	-0.0083	5.7
0.0105	0.0037	-0.0405	-0.0113	5.8
0.0157	0.0075	-0.0405	-0.0068	5.8
0.009	0.0022	-0.0165	-0.0015	5.9
-0.0008	-0.003	0.0022	0.0015	6
-0.0068	-0.0053	0.0142	0.0037	6
-0.012	-0.0068	0.0202	0.0045	6.1
-0.0143	-0.006	0.0232	0.006	6.2
-0.0128	-0.0083	0.0277	0.0075	6.2
-0.0143	-0.0083	0.0255	0.0067	6.3
-0.0135	-0.0068	0.0232	0.0045	6.3
-0.0105	-0.0075	0.0202	0.003	6.4
-0.0091	-0.0053	0.0157	0.0007	6.5
-0.0091	-0.0038	0.009	0.0007	6.6
-0.0091	-0.0053	0.0082	0.0007	6.6
-0.0083	-0.0038	0.0045	-0.0008	6.7
-0.0053	-0.0015	0.0007	-0.0015	6.7
-0.0015	0.0007	-0.0008	-0.0038	6.8
0.0007	0.0007	-0.0046	-0.0023	6.9
0.0007	0	-0.0038	-0.0023	7
0.0022	0.0007	-0.0105	-0.003	7
0.0007	0.0015	-0.012	-0.0015	7.1
0.0015	0.003	-0.012	-0.003	7.2
0.0037	0.0037	-0.0165	-0.0015	7.2
0.0022	0.003	-0.0203	-0.003	7.3
0.006	0.0045	-0.0225	-0.0046	7.4
0.0082	0.0022	-0.0218	-0.0053	7.5
0.0082	0.003	-0.0225	-0.0053	7.6
0.009	0.0045	-0.0203	-0.003	7.6
0.0075	0.0052	-0.0195	-0.003	7.7
0.0067	0.0052	-0.0203	-0.0046	7.7
0.0067	0.003	-0.0218	-0.0053	7.8
0.0052	0.003	-0.015	-0.0053	7.9
0.0007	0.0007	-0.0053	-0.0053	8
-0.0023	-0.0008	-0.0038	-0.0046	8.1
-0.0046	-0.0015	-0.0015	-0.003	8.1
-0.0053	-0.003	0.003	-0.0023	8.2
-0.0046	-0.003	0.0022	-0.003	8.3
-0.003	-0.003	0	-0.0023	8.4
-0.003	-0.0023	0	0.0007	8.5
-0.0015	-0.0046	-0.003	0	8.5
0.0022	-0.006	-0.006	0.0015	8.6
0.003	-0.003	-0.0083	0.0015	8.7
0.0007	-0.0015	-0.0083	-0.0008	8.8
0.0022	0.0007	-0.0068	-0.0008	8.9
0.003	0.003	-0.0015	-0.0008	9
0.0015	0.0037	0.0075	0.0015	9.1
0.0052	0.006	0.0082	0.003	9.2
0.0052	0.0052	0.0105	0.003	9.3
0.0015	0.0015	0.009	0.0015	9.4
0.0015	-0.0008	0.0015	0	9.4
-0.0008	-0.0008	0.0007	0	9.5
-0.0008	0	-0.0046	-0.0008	9.6
0	0	-0.0098	-0.0008	9.7
0.0007	-0.0023	-0.0128	-0.0038	9.8
0.0045	-0.0015	-0.0173	-0.006	9.9
0.0052	0.0007	-0.021	-0.0053	10
0.0067	0.0022	-0.0203	-0.0046	10.1
0.0082	0.003	-0.0218	-0.003	10.2
0.0067	0.0052	-0.027	-0.0015	10.3
0.0105	0.0067	-0.03	-0.0023	10.4
0.0105	0.0045	-0.033	-0.003	10.6
0.009	0.0015	-0.0293	-0.0046	10.7
0.012	0	-0.0293	-0.0046	10.8
0.009	-0.0015	-0.0293	-0.0015	10.9
0.0067	-0.003	-0.0188	0.0007	11
0.0037	-0.003	-0.0135	0.0022	11.2
0.0045	-0.0046	-0.0143	0.003	11.2
0.0015	-0.0053	-0.0083	0.0045	11.4
-0.0038	-0.003	-0.0068	0.0022	11.5
0	-0.0008	-0.0158	-0.0015	11.6
0.003	0.0015	-0.0143	-0.0015	11.7
0.003	0.0052	-0.0091	-0.0015	11.8
0.0037	0.0105	-0.0046	0	11.9
0.0007	0.0105	0.0007	0	12.1
-0.003	0.0067	0.0037	-0.0008	12.1
-0.0068	0.003	0.0105	0.0022	12.3
-0.0083	0.0015	0.0097	0.0015	12.4
-0.006	0.0015	0.009	0.0007	12.6
-0.006	-0.0015	0.0187	0.0022	12.7
-0.0068	-0.003	0.024	0.0022	12.9
-0.0098	-0.0046	0.0292	0.0052	13
-0.0098	-0.0046	0.0345	0.0075	13.1
-0.0091	-0.006	0.033	0.0052	13.3
-0.0098	-0.0075	0.0315	0.0045	13.5
-0.0091	-0.0053	0.0345	0.0052	13.6
-0.0091	-0.0053	0.0405	0.009	13.8
-0.0068	-0.0046	0.0435	0.012	13.9
-0.0068	-0.0053	0.0412	0.009	14
-0.0091	-0.0068	0.039	0.0052	14.2
-0.0075	-0.0068	0.0367	0.003	14.4
-0.0091	-0.0075	0.039	0.003	14.5
-0.0105	-0.0068	0.042	0.0022	14.6
-0.0091	-0.0068	0.039	0.0045	14.8
-0.0091	-0.0053	0.0397	0.0045	14.9
-0.0083	-0.003	0.0367	0.003	15.1
-0.006	-0.0015	0.024	0.0015	15.2
-0.0046	-0.0008	0.0082	-0.0015	15.4
-0.0008	-0.0015	-0.0038	-0.0038	15.6
0.003	0.0015	-0.0075	-0.0046	15.7
0.0045	0.0007	-0.0015	-0.0046	15.9
0.0015	-0.0008	0.0052	-0.0015	16.2
0	-0.0008	0.0007	-0.0008	16.3
0.0022	0.0007	-0.012	-0.0023	16.5
0.0045	0.0045	-0.0158	-0.0023	16.7
0.003	0.0022	-0.0046	0	16.9
0.0022	0.0007	-0.0046	-0.0015	17
0.0045	0.0007	-0.0068	0	17.2
0.0045	-0.0008	0	0.0037	17.4
0.0052	0.0022	-0.0068	0.0015	17.6
0.0067	-0.0015	0.0067	0.0045	17.8
0.0015	-0.006	0.0135	0.003	18
0.0015	-0.006	0.006	0.0015	18.2
0.0007	-0.006	0.003	0.0007	18.4
0.0015	-0.0008	-0.0105	-0.003	18.5
0.003	-0.0015	-0.0083	-0.0015	18.7
0.0015	-0.0015	-0.0091	-0.0038	18.9
0.0022	0.0007	-0.0083	-0.003	19.1
-0.0008	0.0022	-0.006	-0.0015	19.3
-0.0008	0.0045	-0.0128	-0.0038	19.6
-0.0008	0.003	-0.012	-0.0023	19.8
0.003	0.003	-0.0113	-0.0038	20
0.003	0.0015	-0.012	-0.0023	20.2
0.0015	0.0007	-0.0098	-0.0015	20.4
0.0015	0.0022	-0.0068	-0.003	20.7
-0.0015	0.0037	-0.0068	-0.0008	20.9
-0.0008	0.003	-0.0046	-0.0008	21.1
-0.0008	-0.0008	0.0007	-0.0008	21.3
-0.0023	-0.0008	0.0022	-0.0008	21.5
0.0007	-0.0008	0.0015	-0.0015	21.8
-0.0008	-0.0015	0.0015	0	22
0	0.0007	0.0007	-0.0008	22.2
0.0007	0.0015	0.0067	-0.0008	22.4
-0.0023	0.0007	0.0082	-0.0023	22.6
0	0.0052	0.003	-0.0023	22.9
0.0007	0.0015	0.0052	-0.0008	23.1
0.0007	0.0015	0	-0.0023	23.3
0.0007	0.0037	-0.0053	-0.0015	23.6
0.0007	0.0015	-0.0046	-0.0015	23.8
0.003	0.0022	-0.006	-0.0015	24.1
0.0052	0.0007	-0.0075	-0.0023	24.3
0.0052	-0.0015	-0.0091	-0.0008	24.6
0.0022	-0.0038	-0.0091	-0.0008	24.8
0.0037	-0.0038	-0.0098	-0.0015	25.1
0.003	0	-0.012	-0.0015	25.4
0.0045	0.0007	-0.015	-0.0015	25.6
0.0045	0.0015	-0.0098	0.0007	25.9
0.0015	-0.0015	-0.0083	0.0007	26.1
0.003	-0.0046	-0.0083	-0.0008	26.4
0.0015	-0.0053	-0.003	-0.0008	26.7
0.0007	-0.0038	-0.0015	-0.0008	27
0.003	-0.0038	0.003	0.0007	27.2
0.0022	-0.0046	0.0015	-0.0008	27.4
0.0037	-0.003	0.0015	-0.0023	27.7
0.003	-0.003	0.0022	-0.0015	28
0.0015	-0.0008	0.0007	-0.0015	28.2
0.003	0.003	0	-0.003	28.5
0.0015	0.0037	0.003	-0.003	28.8
-0.0008	0.003	0.0067	-0.003	29
-0.0015	0.0037	0.006	-0.003	29.2
-0.0023	0.0022	0.009	-0.0008	29.5
-0.0015	0.0015	0.0127	0	29.7
-0.0023	0.0007	0.0135	0.0015	30
-0.0038	-0.0015	0.018	0.003	30.2
-0.0068	-0.0053	0.0262	0.003	30.5
-0.0105	-0.0083	0.0307	0.003	30.7
-0.012	-0.0083	0.0315	0.003	31
-0.012	-0.0098	0.0292	0.003	31.2
-0.0105	-0.0098	0.0277	0.0022	31.5
-0.0053	-0.0068	0.024	0.003	31.7
-0.0015	-0.003	0.015	0.0015	32
0	-0.0023	0.0127	0.0015	32.2
-0.003	-0.0023	0.0135	0.0015	32.5
-0.0053	-0.0023	0.009	-0.0008	32.7
-0.0046	-0.0023	0.0097	-0.0008	33
-0.0015	0	0.0082	-0.0015	33.2
-0.0015	0.0007	0.0067	-0.0015	33.5
-0.0015	0.0007	0.0075	-0.0008	33.7
-0.0015	0.0007	0.0067	0.0007	33.9
0	0.0007	0.003	0	34.1
0.0015	0.0022	-0.0008	-0.0015	34.4
0.003	0.0022	-0.0046	-0.0008	34.6
0.0037	0.0022	-0.0008	0	34.8
0.0015	0.0015	0.009	0	35.1
0.0007	0.0015	0.009	-0.0008	35.3
0.0015	0.0045	0.0067	0	35.5
0.0007	0.0052	0.0067	0.0015	35.7
-0.0008	0.0022	0.0045	0.003	36
0.0007	0.0015	0.003	0.0045	36.2
0.0015	0.0007	-0.003	0.0045	36.4
0.0045	0	-0.0075	0.0045	36.6
0.0067	0.0007	-0.0128	0.0015	36.9
0.0045	0.0015	-0.0158	0.0015	37.1
0.0037	0	-0.012	0.0015	37.3
0.0022	-0.0008	-0.0068	0	37.5
0.0015	-0.0008	-0.0046	0.0022	37.8
0	-0.0008	-0.0015	0.0037	38
0.0015	-0.0008	-0.003	0.003	38.2
0.0022	-0.0008	-0.0083	0.0015	38.3
0.0015	-0.0015	-0.0075	0.0015	38.6
0.003	-0.0023	-0.0083	0.0015	38.7
0.0045	-0.0015	-0.0128	-0.0015	38.9
0.0052	-0.0008	-0.015	-0.0015	39.1
0.003	0	-0.0158	-0.0038	39.3
0.003	0.0015	-0.0165	-0.0053	39.5
0.003	0.0045	-0.0233	-0.006	39.7
0.0067	0.0052	-0.0285	-0.0083	39.9
0.009	0.003	-0.0323	-0.0083	40
0.012	0.003	-0.0383	-0.0113	40.2
0.0157	0.0052	-0.0443	-0.012	40.5
0.0165	0.0067	-0.0465	-0.012	40.6
0.018	0.0082	-0.0503	-0.0128	40.8
0.0172	0.0052	-0.0495	-0.0128	41
0.0142	0.0052	-0.0428	-0.012	41.2
0.0112	0.0067	-0.0383	-0.0091	41.4
0.0105	0.0067	-0.0323	-0.0105	41.6
0.0067	0.0067	-0.0263	-0.0091	41.8
0.0007	0.0067	-0.027	-0.0083	41.9
0.0015	0.0097	-0.027	-0.0083	42.1
0.0037	0.0105	-0.027	-0.0083	42.3
0.003	0.009	-0.0248	-0.0098	42.4
0.003	0.0045	-0.0256	-0.0083	42.6
0.006	0.0015	-0.0278	-0.0105	42.8
0.0067	0.0015	-0.0263	-0.0113	43
0.0045	-0.0015	-0.027	-0.0113	43.1
0.003	-0.0023	-0.0218	-0.0113	43.3
0.0015	-0.006	-0.0143	-0.0068	43.5
-0.0008	-0.0068	-0.0083	-0.0053	43.6
-0.0015	-0.0038	-0.0038	-0.0038	43.8
-0.0015	-0.0015	-0.003	-0.0023	44
-0.0008	-0.0015	-0.0008	-0.003	44.2
0.0007	-0.0053	0.0022	-0.0015	44.4
0.0015	-0.0046	0.0045	-0.0015	44.5
-0.0015	-0.0008	0.0045	-0.0015	44.7
-0.0015	0.0007	0.0052	-0.003	44.9
-0.0023	0.0007	0.003	-0.0023	45
-0.0023	0.0015	0.0022	0.0007	45.2
-0.0038	0.0022	0.0037	0.0015	45.4
-0.003	-0.0008	-0.0015	0.0007	45.6
-0.0008	-0.0023	-0.0046	-0.0008	45.8
0.0007	-0.0046	-0.006	-0.0008	45.9
-0.0008	-0.0091	-0.0046	-0.0015	46.1
-0.003	-0.0105	0.0007	-0.0015	46.3
-0.0008	-0.0105	0.003	0.0015	46.4
0.0022	-0.0105	0.0067	0.0045	46.6
0.0007	-0.0098	0.0165	0.006	46.8
-0.0053	-0.0113	0.0262	0.0067	47
-0.0083	-0.006	0.0315	0.0082	47.1
-0.0091	-0.003	0.0337	0.0082	47.3
-0.0083	-0.0068	0.0367	0.009	47.5
-0.0098	-0.0091	0.039	0.0105	47.6
-0.0098	-0.0038	0.0382	0.0127	47.8
-0.0091	0.009	0.0382	0.0127	48
-0.0105	0.0165	0.0375	0.012	48.1
-0.012	0.0157	0.0352	0.012	48.3
-0.012	0.0105	0.0345	0.0105	48.5
-0.012	0.0082	0.0315	0.009	48.7
-0.0113	0.006	0.0292	0.012	48.8
-0.0083	-0.0008	0.0255	0.0105	49
-0.006	-0.0128	0.0262	0.009	49.1
-0.0091	-0.027	0.03	0.0045	49.2
-0.0113	-0.0383	0.0225	-0.0053	49.4
-0.0105	-0.0458	0.0157	-0.0083	49.5
-0.012	-0.039	0.0157	-0.0046	49.6
-0.0143	-0.0308	0.0127	-0.0038	49.8
-0.012	-0.033	0.0097	-0.0046	49.9
-0.012	-0.0383	0.015	-0.003	50
-0.0128	-0.0346	0.0165	-0.0008	50.1
-0.012	-0.0075	0.0135	0.0022	50.3
-0.0098	0.0307	0.012	0.009	50.4
-0.0075	0.054	0.0097	0.0157	50.5
-0.0053	0.0637	0.0105	0.018	50.7
-0.0015	0.0307	0.012	0.0232	50.8
0.0015	-0.0518	0.0172	0.0195	50.9
0.0045	-0.0638	0.018	0.0195	51.1
0.0067	-0.024	0.018	0.03	51.2
0.0067	-0.0128	0.0195	0.0225	51.3
0.009	-0.042	0.0217	0.0045	51.4
0.0105	-0.0361	0.0217	-0.0053	51.4
0.0105	0.0817	0.0217	-0.0128	51.5
0.0135	0.1312	0.0255	-0.0158	51.6
0.0142	0.093	0.0225	-0.0068	51.6
0.012	0.084	0.018	0.0007	51.7
0.0037	0.0787	0.009	0.0015	51.7
-0.0008	0.0457	0.0007	0.0015	51.8
-0.003	-0.0248	0.0007	-0.0128	51.8
-0.006	-0.0743	-0.0091	-0.0293	51.9
-0.0075	-0.1006	-0.0143	-0.0203	52
-0.0091	-0.1193	-0.0158	-0.0083	52
-0.0083	-0.1215	-0.0181	-0.0098	52.1
-0.0068	-0.1223	-0.0165	-0.0083	52.2
-0.0046	-0.1118	-0.0143	0.0045	52.2
-0.0053	-0.1043	-0.0105	0.0187	52.2
-0.0053	-0.1013	-0.0113	0.0352	52.3
-0.003	0.018	-0.0068	0.0637	52.4
-0.0008	0.3075	-0.0008	0.0817	52.4
0.0045	0.447	0.006	0.0667	52.5
0.006	0.2872	0.009	0.0382	52.5
0.0082	0.1447	0.0097	0.018	52.5
0.0067	0.0532	0.009	0	52.6
0.0045	-0.021	0.003	-0.0113	52.6
0.0037	-0.0015	0.0007	-0.012	52.6
0.0075	0.0105	-0.0008	-0.0188	52.6
0.0112	-0.0181	-0.0038	-0.0218	52.6
0.012	-0.0653	-0.0105	-0.0278	52.7
0.0135	-0.0608	-0.0181	-0.0383	52.7
0.0105	-0.0293	-0.0256	-0.039	52.7
0.009	-0.0675	-0.0353	-0.0488	52.8
0.0082	-0.108	-0.0375	-0.0443	52.8
0.0045	-0.093	-0.0353	-0.0263	52.8
0.0015	-0.0765	-0.033	-0.0165	52.8
0.0007	-0.0593	-0.0338	-0.006	52.9
0	-0.0083	-0.0285	0.0037	52.9
0.0022	0.0675	-0.0195	0.0165	52.9
0.0045	0.0765	-0.0068	0.0247	53
0.0082	0.0195	0.0037	0.0142	53
0.0097	0	0.0075	0.0037	53
0.009	-0.0256	0.0067	-0.0075	53
0.0082	-0.0398	-0.0015	-0.0105	53
0.0045	-0.033	-0.0015	-0.0015	53
0.0045	-0.0375	-0.0015	-0.0046	53.1
0.0045	-0.0285	-0.0091	-0.0083	53.1
0.0015	-0.0181	-0.012	-0.0046	53.1
0.0007	-0.0068	-0.0165	-0.006	53.1
0	0.003	-0.0165	-0.0075	53.1
-0.0008	0.0202	-0.0158	-0.006	53.1
-0.0008	0.0322	-0.0181	-0.0083	53.1
-0.0023	0.0255	-0.0181	-0.0105	53.1
-0.0023	0.006	-0.0143	-0.0083	53.1
-0.0038	-0.003	-0.0075	-0.012	53.1
-0.003	0.006	0.0007	-0.0083	53.1
-0.003	0	0.009	0.0015	53.1
-0.0038	0.0105	0.0165	0.0052	53.1
-0.0015	0.0202	0.0232	0.0202	53.1
-0.003	-0.0046	0.0232	0.0247	53.1
-0.0023	-0.027	0.0217	0.0142	53.1
-0.0046	-0.0488	0.0217	-0.0053	53.1
-0.0068	-0.0735	0.0142	-0.024	53.1
-0.003	-0.0691	0.0105	-0.0218	53.1
0.0022	-0.0465	0.009	-0.0165	53.1
0.003	-0.0405	0.0052	-0.0233	53.1
0.003	-0.0008	-0.0008	-0.0233	53.1
0.003	0.054	-0.0091	-0.0158	53.1
0.003	0.0652	-0.0091	0.0015	53.1
0.003	0.063	-0.003	0.0105	53.1
0.0015	0.075	-0.003	0.0105	53.1
0.003	0.0585	-0.006	0.0172	53.1
0.0022	0.018	-0.0083	0.0052	53.1
0	0.033	-0.012	-0.0015	53
-0.0008	0.0277	-0.0128	0.0082	53
0.0015	-0.0023	-0.0091	0.0097	53
0.0007	-0.0218	-0.0068	0.0187	53
0.003	-0.042	-0.006	0.0232	53
0.0022	-0.0308	-0.0075	0.0307	53
0	-0.0533	-0.0128	0.018	53
0.0022	-0.0465	-0.0158	-0.0091	52.9
0.0015	0	-0.0128	-0.0158	52.9
0.0052	0.048	-0.012	-0.0263	52.8
0.0067	0.0547	-0.006	-0.027	52.7
0.0067	-0.0128	-0.0053	-0.024	52.6
0.0082	-0.0308	-0.0091	-0.0203	52.6
0.006	-0.0443	-0.0068	-0.012	52.4
0.0037	-0.075	-0.0098	-0.0068	52.3
-0.0015	-0.0525	-0.0068	0.0232	52.2
-0.003	0.0067	-0.003	0.0442	52.2
-0.0023	0.0337	0.003	0.024	52.1
-0.003	0	0.009	0.0052	52
-0.0046	-0.0008	0.0067	-0.0046	51.9
-0.0083	-0.021	0.009	-0.0083	51.8
-0.0075	-0.0368	0.006	0.0015	51.7
-0.0083	0.0127	0.0082	0.0007	51.6
-0.006	0.045	0.009	-0.0038	51.5
-0.0015	0.0442	0.012	-0.0008	51.4
-0.0015	0.0075	0.0082	-0.0075	51.3
-0.0015	0.0157	-0.0023	-0.0091	51.2
-0.003	0.0292	0	-0.0068	51.1
-0.0008	0.0082	0.003	-0.0068	51
0.0007	0.0097	-0.003	-0.0083	50.9
0.0045	0.003	-0.024	-0.0143	50.8
0.0067	0.0022	-0.0165	-0.0075	50.6
-0.0015	-0.0053	-0.0015	-0.0053	50.5
0.0007	-0.0091	-0.0195	-0.012	50.4
0.0022	-0.0091	-0.0068	-0.0068	50.2
-0.0015	-0.0105	0.0037	0.0007	50.1
0.0045	-0.003	-0.003	0.0015	49.9
0.0052	-0.0068	-0.0046	-0.0015	49.8
0.0022	-0.0068	-0.0038	-0.0023	49.7
0.0015	-0.0083	-0.003	-0.0008	49.6
0.0067	-0.0068	-0.0008	0.0022	49.5
0.0067	-0.006	0.0067	0.0045	49.3
0.0052	-0.0091	0.003	0.0007	49.2
0.0045	-0.0083	0.0015	0.0007	49
0.0007	-0.0068	0.0015	0.0007	48.9
-0.0008	-0.0046	-0.0015	-0.0015	48.8
-0.0038	0.0015	-0.0008	-0.0008	48.6
-0.0046	0.012	-0.003	0	48.5
-0.0015	0.0142	-0.0068	0	48.3
-0.0008	0.012	-0.0098	-0.0023	48.2
0.0007	0.0045	-0.0068	-0.0023	48.1
0.0015	-0.0015	-0.0068	-0.0008	47.9
0.0015	0.0007	-0.0046	-0.0015	47.7
0.0007	-0.0015	0.0015	-0.0008	47.5
-0.0008	0.0022	0.0015	-0.0008	47.4
0.0015	0.0052	0.0022	-0.0015	47.2
0.003	0.0082	0.0045	-0.0008	47
0.0007	0.0082	0.0075	-0.0015	46.8
0.0007	0.003	0.006	-0.0023	46.7
-0.0008	0.0015	0.0015	-0.0046	46.5
-0.0046	-0.003	0.0015	-0.006	46.3
-0.0038	-0.0053	0.0007	-0.0046	46.2
-0.0053	-0.0083	-0.0008	-0.0053	46
-0.0068	-0.0075	0.0015	-0.0053	45.9
-0.0075	-0.0053	0.0052	-0.0038	45.7
-0.0083	-0.0068	0.0105	-0.0015	45.5
-0.0068	-0.0083	0.0135	0.0015	45.3
-0.0046	-0.0083	0.018	0.0015	45.2
-0.0023	-0.0068	0.0217	0.006	45
0.0045	-0.0008	0.0217	0.009	44.7
0.0067	0.009	0.0247	0.0082	44.5
0.0075	0.0112	0.0255	0.0067	44.2
0.0082	0.0105	0.0202	0.0037	44
0.0067	0.009	0.0202	-0.0008	43.7
0.003	0.0067	0.0187	-0.0038	43.5
0	0.0007	0.0172	-0.006	43.2
-0.0046	-0.0098	0.0202	-0.0046	43
-0.0068	-0.0143	0.0165	-0.0053	42.7
-0.0083	-0.0083	0.0105	-0.0098	42.5
-0.0053	0.003	0.006	-0.0098	42.3
-0.0053	0.0037	0.0045	-0.0083	42
-0.006	-0.0015	0.0045	-0.0083	41.8
-0.0068	-0.003	0.0037	-0.0068	41.5
-0.0068	-0.012	0.0082	-0.0046	41.3
-0.0083	-0.012	0.015	-0.0008	41
-0.0105	-0.0075	0.0127	-0.0046	40.8
-0.0038	-0.0008	-0.0046	-0.0128	40.5
0.0067	0.0112	-0.0165	-0.0203	40.3
0.0097	0.012	-0.0203	-0.024	40
0.0112	0.0105	-0.0233	-0.0203	39.7
0.012	0.009	-0.0256	-0.0143	39.4
0.0105	0.0082	-0.0263	-0.003	39.1
0.009	0.0082	-0.021	0.0187	38.8
0.0045	0.003	-0.015	0.033	38.6
0.0022	-0.0046	-0.0083	0.027	38.3
0.0045	-0.012	-0.0008	0.0135	38
0.0022	-0.015	0.003	0.0135	37.7
0.0015	-0.0105	0.0097	0.0195	37.4
0.0015	-0.0098	0.0195	0.0157	37.1
-0.003	-0.0113	0.0217	0.0007	36.9
-0.0046	-0.0188	0.0195	-0.0068	36.5
-0.0068	-0.0315	0.0187	-0.012	36.3
-0.0128	-0.033	0.0202	-0.0181	36
-0.0135	-0.027	0.018	-0.0105	35.7
-0.0105	-0.003	0.0112	0.0045	35.4
-0.0068	0.0345	0.0052	0.0127	35.1
-0.0046	0.0375	0.0007	0.0127	34.8
-0.003	0.0202	-0.0053	0.0142	34.5
-0.0008	0.0187	-0.0105	0.0187	34.2
0.0015	0.0195	-0.0143	0.018	34
0.0037	0.0202	-0.0158	0.0277	33.7
0.0052	0.027	-0.0158	0.0352	33.4
0.006	0.0277	-0.0195	0.018	33.1
0.0037	0.0157	-0.0195	0.0015	32.8
0.0045	0.0052	-0.0165	0.0045	32.5
0.0037	0.018	-0.0135	0.0067	32.2
0.0045	0.0067	-0.0015	0.0067	31.9
0.0067	-0.012	0.0052	0.0067	31.6
0.0075	-0.0068	0.003	-0.0015	31.4
0.003	-0.0105	0.0015	-0.0091	31.1
0.0037	-0.0068	-0.0008	-0.0091	30.8
0.0045	-0.0046	-0.0023	-0.0075	30.5
-0.0008	-0.0053	0.0015	-0.003	30.2
-0.0038	-0.0068	0.0097	-0.0023	29.9
-0.0068	-0.0105	0.0105	-0.0046	29.7
-0.0046	-0.0075	0.0022	-0.0068	29.3
-0.0015	-0.0083	0.0045	-0.0046	29.1
-0.0015	-0.006	-0.0015	-0.0068	28.8
0.0015	-0.0046	-0.0083	-0.0105	28.4
-0.003	-0.0046	-0.0015	-0.006	28.2
-0.0038	-0.0046	-0.0023	-0.0053	27.9
-0.003	-0.0046	-0.006	-0.0046	27.7
-0.0023	-0.003	-0.0023	-0.0008	27.4
-0.0023	-0.0008	0.0007	0.0045	27.1
-0.003	-0.0008	-0.0015	0.0067	26.9
0.0022	-0.0015	0.0007	0.003	26.6
0.0015	-0.003	0.0037	0.0015	26.4
0	-0.0046	0.0037	-0.003	26.1
0.003	-0.0023	0.0022	-0.0038	25.8
0.003	0.0007	0.0007	-0.003	25.6
0.0052	0.0022	-0.0038	-0.003	25.3
0.0037	0.0045	-0.0091	-0.003	25
-0.0046	0.0045	-0.0143	-0.0053	24.7
-0.0105	0.003	-0.0188	-0.0068	24.5
-0.0091	0.0052	-0.0158	-0.0075	24.3
-0.0015	0.0052	-0.0075	-0.0053	24
0.003	0.0052	-0.0008	-0.003	23.7
0.003	0.0045	-0.0023	-0.0046	23.4
0.0045	0.0015	-0.0015	-0.0015	23.1
0.0075	0.0037	-0.0023	0.0015	22.9
0.0045	0.0045	-0.0023	0.0045	22.7
0.0015	0.0015	0.0082	0.0082	22.4
0	0.0022	0.0112	0.0082	22.2
0.0015	0.0007	0.0022	-0.0038	21.9
0.0105	0	-0.0046	-0.0098	21.7
0.0165	0.003	-0.0083	-0.0038	21.5
0.0225	0.003	-0.0083	0.003	21.2
0.0217	0.0007	-0.0143	0.0052	21
0.0195	0.0007	-0.0203	-0.0068	20.7
0.0165	0.0007	-0.0203	-0.0203	20.4
0.0105	0.0015	-0.0181	-0.021	20.2
0.0097	0.003	-0.0181	-0.0143	19.9
0.0067	0.003	-0.0158	0.0007	19.7
0.0052	0.003	-0.0158	0.0262	19.4
0.0052	0.0007	-0.0181	0.042	19.2
0	-0.003	-0.0143	0.0315	19
-0.0053	-0.0046	-0.0113	0.0157	18.7
-0.0083	-0.003	-0.0083	0.006	18.5
-0.0075	-0.003	-0.0038	-0.0015	18.2
-0.0068	-0.0053	-0.003	-0.006	18
-0.0068	-0.0015	0	-0.0105	17.8
-0.006	-0.0008	0.003	-0.0091	17.5
-0.0053	-0.0008	0.003	-0.0075	17.3
-0.0046	0.0007	0.0015	-0.0068	17
-0.0053	0	0.003	-0.003	16.8
-0.0046	-0.003	0.003	-0.0053	16.6
-0.0008	-0.0068	0.0037	-0.0038	16.4
0.0037	-0.0053	0.0075	-0.0023	16.2
0.0045	-0.0008	0.009	-0.0023	15.9
0.003	0.003	0.0067	0.0015	15.7
0.0015	0.0007	0.0105	0.0052	15.5
0.0007	0	0.0135	0.0015	15.3
0.0007	-0.0015	0.012	0.0007	15
-0.003	0.0007	0.0142	0.0067	14.8
-0.0068	-0.0008	0.0105	0.0022	14.5
-0.0083	-0.0038	0.0045	-0.0083	14.3
-0.0083	-0.0038	0	-0.0105	14.1
-0.0091	-0.0015	-0.0015	-0.006	13.9
-0.0105	0.0015	0.0007	-0.0053	13.6
-0.0075	0	0.0015	-0.0015	13.4
-0.0046	0.0007	0.0015	0.0045	13.2
-0.0015	0.0007	0.0007	0.0007	13
-0.0015	-0.0008	-0.0015	-0.0091	12.8
-0.0015	0.0007	-0.003	-0.0181	12.6
-0.0008	0.0007	-0.0008	-0.0128	12.4
-0.0008	0.0007	0.0045	-0.0053	12.2
-0.0023	-0.0015	0.0067	-0.0008	12
-0.003	-0.003	0.0082	0.0082	11.8
-0.0023	-0.0053	0.0082	0.0127	11.6
-0.003	-0.006	0.006	0.0165	11.3
-0.0023	-0.0038	0.003	0.0165	11.2
-0.0046	-0.003	0.0067	0.0105	10.9
-0.0038	-0.003	0.0097	0.0045	10.7
-0.0015	-0.0053	0.009	-0.003	10.5
0.0007	-0.0053	0.0075	-0.0083	10.3
0.003	-0.0038	0.0052	-0.0098	10.1
0.0045	-0.0008	0.0045	-0.0128	9.9
0.0045	0.0007	-0.0015	-0.0158	9.7
0.0015	0.0015	-0.0083	-0.015	9.4
0.0022	0.0022	-0.012	-0.0143	9.3
0.0037	0.0007	-0.0113	-0.0105	9.1
0.0045	0.0015	-0.0083	-0.0068	9
0.0052	0.0015	-0.003	-0.0046	8.8
0.0045	0.003	0.0007	-0.003	8.6
0.0045	0.003	0.0097	0	8.5
0.0052	0.003	0.0165	0.0015	8.3
0.0045	0.0052	0.015	-0.0015	8.1
0.0045	0.0052	0.0165	-0.0015	7.9
0.003	0.0045	0.009	-0.003	7.7
0.0022	0.003	0	-0.0015	7.6
0.006	0	-0.0015	0.0052	7.4
0.0052	-0.0008	-0.006	0.0052	7.2
0.003	-0.0008	-0.0091	0.0045	7.1
0.0015	-0.0008	-0.012	-0.0023	6.9
0.0007	0	-0.0165	-0.0143	6.7
-0.003	0.0015	-0.0203	-0.0173	6.6
-0.0046	0.003	-0.024	-0.012	6.4
0.0015	0.003	-0.0278	-0.006	6.2
0.0037	0.0022	-0.0218	0.0052	6
0.0045	0.0007	-0.012	0.0187	5.9
0.0045	-0.0008	-0.0015	0.0225	5.8
0.0052	-0.0046	0.015	0.021	5.7
0.0037	-0.0113	0.0255	0.0157	5.6
0.0007	-0.0128	0.033	0.0105	5.5
-0.003	-0.0083	0.0382	0.0112	5.4
-0.0083	-0.0075	0.0412	0.0165	5.3
-0.0113	-0.0046	0.0367	0.0142	5.2
-0.0068	0.0007	0.024	0.0015	5.1
-0.0023	0.0007	0.021	-0.0091	4.9
-0.003	0.003	0.0127	-0.0195	4.9
-0.0008	0.0045	0.0022	-0.024	4.8
-0.003	0.0022	-0.0015	-0.0195	4.6
-0.0083	0.0015	-0.0038	-0.0113	4.5
-0.012	-0.003	-0.0046	-0.0053	4.5
-0.012	-0.0015	-0.0105	-0.0046	4.3
-0.0046	0.0007	-0.0195	-0.012	4.2
0.003	0.0007	-0.0293	-0.0256	4.1
0.0075	0.0015	-0.0323	-0.027	4
0.0097	-0.0015	-0.0375	-0.0248	3.9
0.009	-0.0015	-0.0353	-0.0195	3.9
0.0052	-0.0015	-0.0195	-0.003	3.8
0.0037	-0.003	-0.012	0.009	3.7
0.0037	-0.003	-0.0008	0.0127	3.6
0.003	0.0007	0.009	0.0135	3.6
0.0015	0.0052	0.0157	0.0165	3.5
0	0.0007	0.0217	0.0135	3.5
0.0007	-0.003	0.027	0.0142	3.4
-0.0015	-0.0046	0.0277	0.0202	3.3
-0.0068	-0.003	0.0255	0.024	3.2
-0.0083	-0.0046	0.0277	0.0277	3.2
-0.0083	-0.0091	0.0247	0.027	3.1
-0.0083	-0.0083	0.024	0.018	3.1
-0.0083	-0.0053	0.015	0.0045	3
-0.006	-0.0015	0.0082	0.0007	2.9
-0.0053	0.0007	0.012	-0.003	2.9
-0.0053	0.0015	0.0067	-0.0128	2.8
-0.003	0.003	0.0082	-0.0278	2.7
-0.0046	0.006	0.006	-0.0503	2.6
-0.0046	0.012	0.0007	-0.0653	2.6
-0.003	0.0157	-0.0023	-0.06	2.6
-0.0015	0.0165	-0.0128	-0.0308	2.6
-0.0023	0.0142	-0.0181	-0.0038	2.5
-0.003	0.0127	-0.0218	0.0195	2.5
-0.0015	0.0097	-0.0203	0.0615	2.5
0.0007	0.0022	-0.0105	0.0825	2.5
0.0007	-0.0135	-0.0046	0.0607	2.5
-0.0008	-0.027	0.012	0.0345	2.4
0.0015	-0.0278	0.039	0.0187	2.4
0.0015	-0.0203	0.057	0.0045	2.4
0.0007	-0.0165	0.0622	-0.0135	2.3
0.0015	-0.0091	0.063	-0.0293	2.3
0	-0.0008	0.0532	-0.0346	2.3
-0.0038	0.003	0.0442	-0.0308	2.3
-0.0091	0.0015	0.0307	-0.0233	2.2
-0.0113	-0.0015	0.0225	0.006	2.2
-0.0165	-0.006	0.0217	0.0427	2.2
-0.0233	-0.0158	0.003	0.0652	2.2
-0.021	-0.0218	-0.0203	0.0825	2.2
-0.015	-0.0218	-0.0256	0.0705	2.1
-0.0091	-0.0218	-0.0128	0.0315	2.1
-0.0015	-0.0165	-0.0098	-0.003	2.2
0.0067	-0.0068	-0.0053	-0.0181	2.2
0.0165	0.0052	-0.0038	-0.0143	2.2
0.0255	0.0157	-0.0158	-0.0068	2.2
0.0345	0.0195	-0.0256	-0.0083	2.2
0.0352	0.021	-0.0278	-0.0105	2.2
0.0322	0.0232	-0.024	-0.0053	2.3
0.027	0.0202	-0.027	-0.0068	2.3
0.0195	0.0127	-0.0285	-0.0143	2.3
0.0127	0.006	-0.0353	-0.03	2.3
0.0045	0.0037	-0.0398	-0.0465	2.3
-0.0046	0.0015	-0.0293	-0.054	2.4
-0.0105	0.0007	-0.0165	-0.0638	2.4
-0.006	0.0067	-0.0105	-0.0518	2.4
0.0142	0.012	-0.0165	-0.039	2.4
0.027	0.018	-0.0225	-0.027	2.5
0.0247	0.0225	-0.027	-0.0008	2.5
0.0195	0.0172	-0.0436	0.0067	2.5
0.0187	0.0142	-0.0668	0.0015	2.5
0.0247	0.0157	-0.0788	0.003	2.6
0.0255	0.0112	-0.0593	0.0202	2.6
0.012	0.003	-0.0623	0.0142	2.6
0.0052	0.003	-0.081	-0.0135	2.7
0.003	0.0022	-0.0706	-0.0143	2.7
-0.003	0	-0.0615	-0.0068	2.8
-0.0038	0.0037	-0.0555	-0.0053	2.8
-0.0046	0.0045	-0.0488	-0.0046	2.9
-0.0068	0.0045	-0.0361	0.009	2.9
-0.0068	0.0037	-0.0285	0.0105	3
0	0.0082	-0.0195	0.0022	3
0.0082	0.0157	-0.0098	0.012	3.1
0.0165	0.0142	-0.0143	0.0217	3.1
0.0157	0.0075	-0.012	0.0255	3.1
0.0082	0.0045	-0.0098	0.0307	3.2
-0.0015	-0.0023	0.0015	0.045	3.2
-0.0165	-0.0098	0.0157	0.06	3.3
-0.0143	-0.0181	0.0202	0.0495	3.3
-0.0091	-0.0278	0.0292	0.0142	3.4
-0.0068	-0.0308	0.0352	-0.0165	3.4
-0.006	-0.0323	0.0375	-0.0375	3.5
-0.0068	-0.0323	0.0375	-0.0473	3.5
-0.0053	-0.0248	0.0382	-0.0473	3.6
-0.0046	-0.015	0.036	-0.0346	3.6
-0.0046	-0.006	0.039	-0.0195	3.7
-0.0015	-0.003	0.0367	-0.0181	3.7
0.0135	-0.0038	0.0277	-0.0248	3.8
0.018	0.0015	0.0232	-0.0308	3.8
0.0165	0.0195	0.0172	-0.039	3.9
0.0127	0.0255	0.0195	-0.0346	4
0.0067	0.0112	0.0172	-0.0091	4
0.003	0.0075	0.0127	0.0142	4
0.0015	0.0082	0.0067	0.0337	4.1
0.0007	0.0052	0.0067	0.0495	4.1
-0.003	0.0067	0.0165	0.0525	4.2
-0.0008	0.0045	0.039	0.0562	4.2
-0.0053	0.003	0.054	0.0525	4.3
-0.0158	0.0007	0.0442	0.0345	4.4
-0.0233	-0.003	0.0292	0.015	4.4
-0.024	-0.003	0.0067	0.0015	4.5
-0.0128	-0.0053	-0.0143	-0.0105	4.5
-0.012	-0.0105	-0.0256	-0.0128	4.6
-0.0225	-0.0158	-0.027	-0.0098	4.7
-0.0405	-0.0188	-0.0128	-0.0135	4.7
-0.0428	-0.0203	0.0052	-0.0143	4.8
-0.0315	-0.0218	0.024	-0.0075	4.9
-0.0181	-0.0218	0.0345	0.0007	4.9
-0.0053	-0.0158	0.0457	0.0022	5
-0.0008	-0.0091	0.0532	0.0015	5
0.0082	-0.0008	0.048	0.0015	5.1
0.0082	0.0082	0.0405	-0.0046	5.2
0.0037	0.0097	0.0367	-0.012	5.3
0.0007	0.0037	0.039	-0.0195	5.3
0.0015	0.0007	0.033	-0.0203	5.4
0.015	0	0.021	-0.0143	5.5
0.03	-0.0015	0.0225	-0.0091	5.5
0.033	-0.003	0.0315	0.0007	5.6
0.0157	-0.0023	0.0277	0.012	5.7
0.0022	0.0015	0.0142	0.0165	5.7
-0.0046	0.0045	-0.0053	0.012	5.8
-0.0143	0.0075	-0.0188	0.0007	5.8
-0.0135	0.009	-0.0143	-0.0203	5.9
0.0075	0.0082	-0.0083	-0.0398	6
0.0337	0.0105	-0.0181	-0.0346	6
0.03	0.0157	-0.0181	-0.0218	6.1
0.0082	0.015	-0.0091	-0.0015	6.2
-0.0091	0.0082	-0.0113	0.0277	6.2
-0.027	-0.0023	-0.0113	0.045	6.3
-0.0383	-0.0113	-0.0173	0.0495	6.3
-0.0436	-0.0128	-0.0233	0.0442	6.4
-0.033	-0.0105	-0.0188	0.0262	6.4
0	-0.0038	-0.012	0.0142	6.5
0.0217	0.003	0.0007	0.0127	6.5
0.0247	0.0052	0.0052	0.006	6.6
0.0285	0.006	0.0082	0.0015	6.7
0.0217	0.0015	0.012	-0.0046	6.7
0.0007	-0.0068	0.0127	-0.0203	6.7
-0.0203	-0.0128	0.0247	-0.0533	6.8
-0.0233	-0.0113	0.0352	-0.0885	6.9
-0.0083	-0.0053	0.0277	-0.093	6.9
0.0127	0.0075	0.0097	-0.054	7
0.0195	0.0135	-0.006	0.003	7.2
-0.0046	0.0067	-0.0158	0.0405	7.2
-0.027	-0.0008	-0.0165	0.0802	7.4
-0.0443	-0.0008	-0.0256	0.108	7.5
-0.0503	-0.0075	-0.0263	0.078	7.6
-0.0375	-0.0158	-0.015	0.0315	7.7
-0.0233	-0.0105	-0.0105	0.0007	7.8
-0.0113	-0.0128	-0.003	-0.0091	7.9
-0.0075	-0.0128	-0.003	-0.0091	8.1
-0.0105	-0.0046	-0.006	-0.0091	8.1
-0.0068	0.0015	-0.006	-0.0068	8.2
0.0022	0.0007	-0.006	-0.0105	8.4
0.0127	-0.0015	-0.0053	-0.015	8.5
0.0187	0.0022	-0.0053	-0.012	8.6
0.0142	0.0007	-0.006	-0.0091	8.7
0.009	-0.0008	-0.0083	-0.0083	8.8
0.0007	0.0015	-0.0075	-0.0091	8.9
0.0015	0.0007	-0.0128	-0.0091	9
0.0112	-0.0008	-0.0105	-0.0098	9.1
0.0157	-0.0038	0.0007	-0.0091	9.3
0.0202	-0.0038	0.0127	-0.0083	9.4
0.0142	-0.003	0.024	-0.0053	9.6
0.0127	-0.0023	0.0232	-0.0046	9.7
0.0135	-0.0038	0.0247	-0.0046	9.9
0.009	-0.0046	0.0285	-0.0038	10
0.006	-0.0023	0.0255	-0.0046	10.2
-0.0008	0	0.0285	-0.003	10.3
-0.0015	0.0015	0.0157	-0.0015	10.4
-0.003	0.0015	-0.0083	-0.0015	10.6
-0.0128	0.0067	-0.0188	-0.0008	10.7
-0.024	0.0075	-0.024	-0.0008	10.9
-0.0278	0.0045	-0.027	0	11
-0.0143	0.0037	-0.0383	-0.003	11.2
0.0007	0.003	-0.0375	-0.006	11.3
0.0045	0.0045	-0.027	-0.0105	11.5
0.0105	0.0052	-0.0315	-0.012	11.6
0.0247	0.0082	-0.0278	-0.0046	11.8
0.042	0.0082	-0.0308	0.0045	11.9
0.0517	0.009	-0.0458	0.0045	12.1
0.0615	0.0157	-0.0495	0	12.1
0.069	0.0127	-0.039	-0.003	12.1
0.0607	0.0052	-0.0293	-0.0068	12.2
0.0457	0.0015	-0.0323	-0.0098	12.2
0.018	-0.0008	-0.0233	-0.0098	12.2
-0.0038	0.0007	-0.0218	-0.0091	12.3
-0.0075	0	-0.0285	-0.0075	12.3
-0.0068	-0.0008	-0.0353	-0.0098	12.4
-0.0195	-0.0023	-0.039	-0.0128	12.4
-0.0368	-0.0008	-0.0353	-0.0091	12.5
-0.0361	0.0045	-0.0375	-0.0083	12.5
-0.0263	0.0052	-0.039	-0.0083	12.5
-0.015	0.0067	-0.039	-0.0046	12.6
0.0015	0.0082	-0.0443	-0.003	12.6
0.018	0.0082	-0.0443	-0.003	12.6
0.0322	0.0082	-0.0353	-0.0015	12.7
0.0435	0.0075	-0.027	0.0015	12.7
0.0502	0.0082	-0.0181	0.0052	12.7
0.0502	0.0082	-0.0053	0.0067	12.8
0.042	0.0015	0.0142	0.0052	12.8
0.0217	-0.003	0.0285	0.0022	12.8
-0.0091	-0.0105	0.0337	0	12.6
-0.0308	-0.0143	0.0382	0.0015	12.6
-0.0398	-0.012	0.0367	0.0022	12.5
-0.0405	-0.0105	0.0315	0.0045	12.3
-0.039	-0.0068	0.0307	0.0067	12.2
-0.033	-0.0053	0.042	0.0067	12.1
-0.0308	-0.0046	0.048	0.0067	12
-0.0346	-0.0053	0.0442	0.0045	11.9
-0.0315	-0.0068	0.0352	0.0007	11.8
-0.024	-0.0038	0.0217	0.0007	11.7
-0.0128	0	0.0112	-0.0008	11.6
0.0052	0.0052	0.0015	0	11.5
0.0277	0.0082	0.0015	0.0015	11.4
0.042	0.003	-0.0015	-0.0015	11.3
0.0412	-0.0046	-0.0053	-0.0038	11.2
0.0195	-0.0053	-0.003	-0.003	11.1
-0.0083	0.0007	-0.0053	-0.0015	11
-0.015	0.006	-0.0165	-0.0046	10.8
-0.0105	0.006	-0.027	-0.0053	10.7
0	0.0037	-0.0068	-0.0015	10.7
0.0007	-0.0023	0.0142	0.0015	10.5
-0.0046	-0.0046	0.0225	0.0022	10.4
-0.0038	-0.0053	0.0285	0.006	10.3
-0.0105	-0.0068	0.0195	0.0067	10.2
-0.0143	-0.006	0.018	0.0082	10.1
-0.0105	-0.0068	0.0345	0.0097	10
-0.003	-0.0068	0.042	0.0082	9.9
-0.0015	-0.0046	0.0382	0.0075	9.8
-0.0053	-0.0046	0.0412	0.0082	9.6
-0.006	-0.0053	0.0405	0.0075	9.5
-0.0075	-0.0053	0.039	0.0082	9.4
-0.0091	-0.0053	0.0442	0.009	9.3
-0.0091	-0.0053	0.0442	0.009	9.2
-0.006	-0.0053	0.042	0.009	9.1
-0.006	-0.0046	0.039	0.0067	9
-0.0105	-0.0068	0.0345	0.003	8.9
-0.012	-0.0053	0.036	0.0045	8.8
-0.015	-0.0046	0.0367	0.0052	8.6
-0.0195	-0.0068	0.0307	0.006	8.5
-0.0256	-0.0038	0.0255	0.0075	8.5
-0.033	-0.0023	0.0232	0.0045	8.5
-0.024	-0.003	0.0217	0.003	8.5
-0.006	-0.0008	0.0142	0.0022	8.5
0.0022	0.0007	0.003	0.0015	8.4
0.0037	0.0037	-0.0083	0.0015	8.4
-0.0008	0.0075	-0.0195	0	8.4
-0.0068	0.0067	-0.0233	-0.0015	8.3
-0.0091	0.0045	-0.0233	0	8.3
-0.006	0.003	-0.0165	-0.0008	8.3
-0.0023	0.0022	-0.0083	-0.0023	8.2
0.0105	0.0007	-0.0046	-0.0015	8.2
0.021	-0.0008	0.003	-0.0015	8.2
0.0262	0.0007	0.0157	-0.0015	8.2
0.036	0.0007	0.0217	0.0015	8.1
0.0352	-0.003	0.0165	0.0045	8.1
0.0315	-0.006	0.012	0.0015	8.1
0.033	-0.0083	0.0082	-0.0008	8.1
0.0315	-0.0091	0.0067	-0.0038	8.1
0.0195	-0.0046	0.012	-0.0023	8
0.006	-0.0046	0.0127	-0.003	8
-0.0068	-0.003	0.0142	-0.0015	8.1
-0.0195	-0.0015	0.012	-0.0023	8.1
-0.03	-0.003	0.0045	-0.003	8.1
-0.033	-0.0023	-0.0038	-0.0015	8.1
-0.027	-0.0008	-0.0158	-0.003	8.2
-0.0248	0.0022	-0.0248	-0.0046	8.2
-0.0203	0.003	-0.0285	-0.0046	8.2
-0.0225	0.0007	-0.0218	-0.0015	8.3
-0.0278	-0.0023	-0.0143	0	8.3
-0.0248	-0.0015	-0.0173	-0.003	8.4
-0.0181	0.003	-0.0158	-0.0008	8.4
-0.0008	0.0022	-0.0181	0.0015	8.4
0.0022	0.0015	-0.0181	0.0007	8.5
0.0022	0.0037	-0.0158	0.0015	8.5
0.0082	0.0022	-0.015	0.0007	8.5
0.0157	0.0045	-0.015	-0.003	8.6
0.0352	0.0105	-0.0181	-0.0046	8.6
0.051	0.0097	-0.0143	-0.0083	8.6
0.057	0.0067	-0.0083	-0.0105	8.7
0.0457	0.0037	-0.0023	-0.0098	8.7
0.024	0.0015	-0.006	-0.0098	8.7
0.003	0.0015	-0.0233	-0.0091	8.8
-0.0158	0.0015	-0.0315	-0.0083	8.8
-0.0195	0.0015	-0.0203	-0.0038	8.8
-0.0128	0	-0.0091	-0.0008	8.8
-0.0008	0.0007	-0.0113	-0.003	8.8
0.009	0	-0.0181	-0.0023	8.9
0.0052	0.0007	-0.0308	-0.0023	8.9
-0.0046	0.0007	-0.0495	-0.0046	8.9
-0.015	0	-0.063	-0.0068	9
-0.0143	0.003	-0.0713	-0.0083	9
0.003	0.0037	-0.0773	-0.0068	9
0.0255	0.009	-0.0743	-0.0083	9
0.0337	0.0075	-0.0623	-0.0113	9
0.0262	0.0045	-0.0578	-0.0098	9
0.018	0.0105	-0.06	-0.0068	9
0.0292	0.0172	-0.0698	-0.006	9.1
0.0562	0.0217	-0.0713	-0.0068	9.1
0.0652	0.0157	-0.0645	-0.012	9.1
0.0517	0.0105	-0.0638	-0.0165	9.1
0.0277	0.0105	-0.0585	-0.0158	9.1
0.012	0.0105	-0.0555	-0.0165	9.1
0.009	0.0105	-0.0593	-0.0173	9.1
0.009	0.0097	-0.063	-0.0143	9.1
0.012	0.0105	-0.0578	-0.0113	9.1
0.018	0.0052	-0.0443	-0.0068	9.1
0.0172	-0.0008	-0.0263	-0.0023	9.1
0.0052	-0.003	-0.0128	0.0007	9.1
0.003	-0.0015	-0.0113	0.003	9.1
-0.003	-0.0015	-0.0068	0.0015	9.1
-0.0128	-0.003	-0.0046	0.003	9.1
-0.0091	-0.0046	-0.0038	0.003	9.1
-0.0128	-0.003	0.003	0.0022	9.1
-0.0203	-0.0015	-0.0015	0.0022	9.1
-0.0203	0.0015	-0.0068	-0.0008	9.1
-0.0165	0.0045	-0.0143	-0.003	9.1
-0.0083	0.0067	-0.0203	-0.0038	9.1
0.0007	0.0052	-0.0068	0.0007	9.1
0.006	0.0022	-0.0015	0.0022	9
0.0127	0.0007	0.0082	0.0007	9
0.0105	-0.0038	0.0262	0.003	9
0.006	-0.0046	0.0315	0.003	9
0.006	-0.0046	0.039	0.0037	9
-0.0008	-0.0046	0.0367	0.0052	9
-0.0083	-0.0046	0.0405	0.0067	9
-0.0143	-0.0083	0.0517	0.0105	9
-0.0195	-0.0083	0.057	0.012	9
-0.0293	-0.0105	0.0667	0.0127	9
-0.0315	-0.0113	0.0705	0.0127	9
-0.0338	-0.0105	0.0705	0.012	9
-0.0353	-0.0113	0.0705	0.0127	9
-0.0315	-0.0113	0.0675	0.012	9
-0.0278	-0.0091	0.0637	0.009	9
-0.0203	-0.0098	0.063	0.009	9
-0.0173	-0.012	0.0637	0.0097	9
-0.0143	-0.0105	0.0667	0.0105	9
-0.0128	-0.0105	0.0675	0.0105	8.9
-0.006	-0.0113	0.0645	0.009	8.9
0	-0.0083	0.0607	0.0082	8.9
0.0022	-0.0046	0.051	0.006	8.9
0.0037	-0.003	0.0382	0.0045	8.8
-0.0008	-0.0046	0.0367	0.0052	8.8
-0.0068	-0.003	0.0382	0.006	8.8
-0.0105	-0.0046	0.036	0.006	8.7
-0.0091	-0.006	0.0322	0.0052	8.7
-0.0098	-0.0046	0.018	0.0052	8.6
-0.012	-0.003	0.0097	0.0045	8.6
-0.012	-0.0015	0.0075	0.0022	8.6
-0.0091	-0.0015	0.009	0.0022	8.5
-0.0091	-0.0046	0.0157	0.0015	8.5
-0.0091	-0.003	0.015	0.003	8.5
-0.0068	-0.0046	0.0202	0.0022	8.5
-0.0053	-0.0015	0.0165	-0.0015	8.4
-0.0023	0.0015	0.0075	-0.0015	8.4
-0.0015	-0.0008	0.0007	-0.0015	8.3
-0.0023	0.0015	-0.0008	-0.0008	8.3
-0.0046	-0.0008	0.0052	0.003	8.3
-0.0038	-0.0015	0.0082	0.0037	8.2
-0.003	-0.0008	0.0097	0.003	8.1
-0.0046	-0.0023	0.0082	0.0015	8.1
0.0015	-0.003	0.0097	0.0015	8.1
0.003	-0.0038	0.0142	0.0015	8.1
-0.0008	-0.0038	0.012	-0.0008	8.1
-0.003	-0.0038	0.0105	0.0007	8.1
-0.0068	-0.003	0.015	0.0015	8.1
-0.0075	-0.0053	0.0195	0.0007	8.1
-0.0068	-0.0113	0.0157	0.0015	8.1
-0.012	-0.0173	0.0195	0.0015	8.1
-0.0105	-0.0195	0.0165	0.0007	8.1
-0.0053	-0.0203	0.0127	0.0007	8.1
-0.0023	-0.0203	0.0135	0.0007	8.1
0.0007	-0.0143	0.0067	0.0015	8.1
-0.0008	-0.012	0.003	0.0015	8.1
0.003	-0.0105	-0.0015	-0.0008	8.1
0.006	-0.0046	-0.0083	-0.0023	8.1
0.009	0	-0.0158	-0.0053	8.1
0.0172	0.0067	-0.0203	-0.0083	8.1
0.0217	0.0217	-0.0203	-0.0075	8.1
0.0225	0.039	-0.0188	-0.0038	8.1
0.018	0.048	-0.0091	-0.0023	8.1
0.0157	0.045	-0.0068	-0.0015	8.1
0.0105	0.0405	-0.0053	-0.0015	8.1
0.0067	0.027	-0.003	-0.0046	8.1
0.0067	0.0232	-0.0008	-0.003	8.1
0.0015	0.0322	-0.003	-0.0008	8.1
-0.0008	0.0202	-0.0098	-0.003	8.1
-0.0015	-0.0023	-0.0113	-0.003	8.1
0.0007	-0.012	-0.0143	-0.006	8.1
0.0052	-0.0128	-0.0181	-0.0083	8.1
0.006	-0.0143	-0.0233	-0.0083	8.1
0.0075	-0.0113	-0.0293	-0.0091	8
0.0067	-0.0091	-0.027	-0.0068	8
0.0037	-0.0091	-0.0203	-0.0038	8
0	-0.0068	-0.0158	-0.0023	8
0.0015	-0.0083	-0.0143	-0.0015	8
0.0052	-0.0083	-0.0105	-0.003	8
0.0015	-0.0068	-0.0091	-0.0038	8
-0.0023	-0.0105	-0.0128	-0.0023	7.9
-0.003	-0.0105	-0.0165	-0.0015	7.9
-0.0015	-0.0098	-0.0135	-0.0015	7.9
0.0007	-0.0083	-0.0105	-0.0015	7.8
0.0045	-0.0038	-0.0083	-0.0015	7.8
0.0075	-0.0046	-0.0083	-0.0038	7.7
0.0097	-0.0023	-0.0135	-0.0053	7.7
0.012	-0.0008	-0.0203	-0.0046	7.6
0.0135	0.0007	-0.0256	-0.0038	7.6
0.015	0.0022	-0.027	-0.0046	7.6
0.0135	0.0015	-0.0218	-0.0038	7.5
0.0105	0.0015	-0.0165	-0.0038	7.4
0.0052	0	-0.0105	-0.0023	7.4
0.0015	-0.0008	-0.0008	0	7.3
0.0007	0.0015	0.0045	0.0007	7.3
-0.006	0.0007	0.0045	0	7.2
-0.0083	0.0007	0.0067	0.0007	7.2
-0.0068	-0.0008	0.0052	0.0007	7.2
-0.0075	0	0.0052	0.0007	7.1
-0.0046	0	0.0075	0.0007	7.1
-0.0068	-0.0015	0.0097	0.0022	7
-0.0083	0.0007	0.0082	0.0015	6.9
-0.0053	0.0015	-0.0008	-0.0008	6.9
-0.0015	0.0015	-0.0046	-0.0023	6.9
0.0015	0.0015	-0.0091	-0.003	6.8
0.0007	0.0037	-0.0113	-0.0015	6.7
0.0015	0.0045	-0.0083	-0.0015	6.7
0.0045	0.003	-0.0053	-0.0015	6.6
0.0037	0.0037	-0.0105	-0.0008	6.6
0.003	0.0022	-0.0098	0.0007	6.5
0.0022	0.0015	-0.0075	0.0015	6.5
0.0022	0.0007	-0.003	0.0007	6.4
0.003	-0.0015	0.0052	0.0007	6.3
-0.0008	-0.0008	0.0082	0.0015	6.3
-0.0015	-0.0008	0.0127	0.0007	6.3
-0.0015	-0.0023	0.0067	0.0007	6.2
-0.0008	0	-0.0023	0.003	6.1
-0.0008	0.0007	-0.0015	0.0052	6.1
-0.0015	0.0007	0.003	0.0037	6
-0.0015	-0.0023	0.0142	0.0045	5.9
-0.0015	-0.0053	0.0195	0.0067	5.9
-0.0053	-0.0068	0.0217	0.0052	5.8
-0.012	-0.0068	0.03	0.0067	5.8
-0.0143	-0.0075	0.0307	0.0067	5.8
-0.0135	-0.0075	0.0307	0.003	5.7
-0.0105	-0.0075	0.03	-0.0008	5.7
-0.0068	-0.0091	0.0232	-0.0008	5.6
-0.0068	-0.0053	0.0232	0.003	5.6
-0.0068	-0.0046	0.0225	0.0052	5.6
-0.0068	-0.0046	0.0165	0.003	5.5
-0.0053	-0.003	0.0165	0.0015	5.5
-0.0046	-0.0023	0.0157	0.0037	5.4
-0.0053	-0.0023	0.0142	0.0045	5.4
-0.0068	-0.0038	0.015	0.0037	5.3
-0.006	-0.003	0.0105	0.0022	5.3
-0.0046	0.0007	0.0037	0.0007	5.3
0.0015	0.0022	-0.0015	-0.0008	5.2
0.0052	0.0052	-0.0105	-0.0023	5.2
0.0045	0.0037	-0.0135	-0.0038	5.2
0.0052	0.0037	-0.0143	-0.0046	5.1
0.006	0.006	-0.0225	-0.0046	5.1
0.009	0.0067	-0.0158	-0.0038	5
0.0045	0.003	-0.0015	0.0015	5
-0.0008	-0.0008	0	0.0007	5
0.0015	-0.0008	-0.0046	-0.0008	4.9
0.003	-0.0015	-0.0023	0.0022	4.9
0.0015	-0.0023	0.0052	0.003	4.9
-0.0008	-0.0015	0.003	0.0022	4.9
0.0007	0.0015	-0.0038	0.0015	4.9
0	0.0015	-0.0083	0	4.9
0.003	0.0007	-0.0128	-0.0008	4.9
0.0015	0.0015	-0.0158	-0.0015	4.8
0.0045	0.0037	-0.0225	-0.0046	4.8
0.006	0.0037	-0.0263	-0.0038	4.8
0.0052	0.0045	-0.0293	-0.0053	4.7
0.012	0.0052	-0.0353	-0.0068	4.7
0.0105	0.0052	-0.0361	-0.0083	4.7
0.0127	0.0045	-0.0346	-0.0083	4.7
0.0127	0.0067	-0.0315	-0.0053	4.7
0.0097	0.006	-0.0315	-0.0053	4.6
0.0097	0.0052	-0.0293	-0.0038	4.6
0.0067	0.0052	-0.024	-0.003	4.5
0.0067	0.003	-0.0233	-0.003	4.5
0.0052	0.003	-0.021	-0.003	4.5
0.0067	0.0045	-0.0256	-0.0053	4.5
0.0097	0.0052	-0.024	-0.0038	4.5
0.0067	0.003	-0.0105	0.0015	4.5
-0.0015	-0.0008	-0.0008	0.003	4.5
-0.0046	-0.0015	0.003	0.0022	4.5
-0.0046	-0.0015	0.003	0.0007	4.5
-0.003	0.0007	0.0007	-0.0008	4.5
-0.003	-0.0008	0.006	0.0015	4.5
-0.0046	-0.0015	0.0127	0.003	4.5
-0.0015	-0.0008	0.012	0.0022	4.4
0.003	-0.003	0.012	0.0022	4.4
0.0045	-0.003	0.012	0.0015	4.4
0.003	-0.0046	0.018	0.0015	4.4
-0.0015	-0.0046	0.0217	0	4.4
-0.0015	-0.0053	0.0217	0.0007	4.4
-0.0038	-0.0075	0.0202	0.0007	4.4
-0.0015	-0.0053	0.0097	-0.0008	4.3
0.0015	-0.003	0.0082	0.0007	4.3
-0.0008	-0.0023	0.0082	0.0022	4.3
-0.0015	-0.0008	-0.0015	-0.0008	4.3
0.0007	0.0015	-0.0046	-0.003	4.3
0.0007	0.0015	0.003	-0.0015	4.3
-0.0046	0	0.0045	-0.0038	4.3
-0.003	0	-0.0046	-0.0068	4.3
-0.0046	-0.0008	-0.006	-0.0053	4.3
-0.003	-0.0015	-0.0091	-0.0068	4.2
-0.0008	0.0007	-0.0113	-0.0091	4.2
-0.0015	-0.0008	-0.0091	-0.0091	4.2
0.0015	0.0015	-0.0098	-0.0091	4.2
0.0007	0.0015	-0.0113	-0.0105	4.2
-0.003	-0.0008	-0.012	-0.012	4.2
-0.0015	0.0015	-0.0083	-0.0083	4.2
0.0007	0.0015	-0.0083	-0.0046	4.2
0.0052	0.0037	-0.0075	-0.0053	4.2
0.0075	0.003	-0.0053	-0.0083	4.2
0.0097	0.0015	-0.0233	-0.0143	4.1
0.0157	0.0082	-0.0465	-0.0158	4.1
0.012	0.0075	-0.0263	-0.006	4.1
0.0052	0.0015	0.0112	0.0015	4.1
0.0052	-0.0008	0.0232	0.0037	4.1
0.0015	-0.0023	0.0367	0.006	4.1
-0.0046	-0.0053	0.0397	0.0052	4.1
-0.0075	-0.0068	0.0465	0.0067	4.1
-0.0143	-0.0083	0.0442	0.006	4.1
-0.0143	-0.0083	0.0292	0.0037	4.1
-0.0128	-0.0075	0.0217	0.0045	4.1
-0.0083	-0.0068	0.0082	0.0007	4.1
-0.0053	-0.0046	0.012	0.0015	4
-0.0068	-0.0046	0.012	0.0022	4
-0.0053	-0.0015	0.0157	0.0022	4
-0.0083	-0.003	0.018	0.003	4
-0.0068	-0.0038	0.0082	0.0022	4
-0.0046	-0.0015	0.0097	0.003	4
-0.0053	-0.003	0.018	0.0052	4
-0.0068	-0.003	0.0157	0.0045	4
-0.0053	-0.0008	0.0067	0.003	4
-0.0046	-0.0015	0.0045	0.0037	4
-0.0015	0.0007	0.0007	0.0015	4
-0.0008	0.0015	-0.0008	0.0022	4
-0.0015	0.0007	-0.0008	0.0045	4
-0.003	0	0.0007	0.0045	4
-0.006	-0.0008	0	0.003	4
-0.003	0.0007	-0.0015	0.003	4
-0.0038	0	0.0045	0.0045	4
-0.0053	-0.0015	0.0105	0.0045	4
-0.0053	-0.003	0.0195	0.0067	4
-0.0053	-0.0068	0.0217	0.0052	4
-0.0046	-0.0075	0.0232	0.0052	4
-0.0068	-0.0075	0.0255	0.0067	4
-0.0053	-0.0068	0.0217	0.0045	4
0.0015	-0.0046	0.0172	0.0045	4
0.0037	-0.0046	0.012	0.0052	4
0.0067	-0.0008	0.0045	0.0045	4
0.009	0.0015	-0.003	0.0015	4
0.0082	0.0015	-0.0008	0.0007	4.1
0.006	0.0015	0.0007	0.0007	4.1
0.0067	0.003	0.0007	0	4.1
0.0082	0.0007	0.0052	0.0007	4.1
0.0052	-0.0008	0.0067	0.0007	4.1
0.0052	-0.0015	0.0052	0.0007	4.1
0.0045	0.0007	0.0067	0.0007	4.1
0.0007	0.0007	0.012	0.0015	4.1
-0.0023	-0.0023	0.0142	0.003	4.1
-0.0053	-0.0038	0.0105	0.003	4.2
-0.003	-0.0046	0.0105	0.0045	4.2
-0.0046	-0.0046	0.0082	0.003	4.2
-0.0015	-0.0023	0.0015	0.0015	4.2
-0.0008	-0.0008	-0.0046	0	4.2
-0.0008	0.0015	-0.0075	0.0007	4.2
0.0015	0.0022	-0.006	0.0007	4.2
0.0015	0.0015	-0.0068	-0.0015	4.2
0.003	0.0007	-0.0091	-0.0023	4.2
0.0037	-0.0008	-0.0091	-0.003	4.3
0.0045	0.0007	-0.0098	-0.0015	4.3
0.0045	0.0045	-0.0158	-0.0015	4.3
0.0052	0.0067	-0.0233	-0.003	4.3
0.0082	0.0075	-0.027	-0.0023	4.3
0.0082	0.006	-0.024	-0.003	4.3
0.0037	0.0015	-0.0203	-0.0038	4.3
0.0052	0.0007	-0.0256	-0.0068	4.3
0.0097	0.0015	-0.0263	-0.0053	4.4
0.0105	0.0045	-0.027	-0.003	4.4
0.0105	0.006	-0.0263	-0.003	4.4
0.012	0.0067	-0.027	-0.003	4.4
0.0112	0.0067	-0.0285	-0.0046	4.4
0.0082	0.0052	-0.0256	-0.0046	4.4
0.0067	0.0075	-0.0278	-0.006	4.4
0.0075	0.0082	-0.0353	-0.0075	4.4
0.009	0.0067	-0.0353	-0.0053	4.4
0.0097	0.0052	-0.0368	-0.006	4.4
0.009	0.0067	-0.0383	-0.006	4.5
0.0082	0.0067	-0.033	-0.0053	4.5
0.0067	0.003	-0.0308	-0.0068	4.5
0.0082	0.0022	-0.0263	-0.0053	4.5
0.0067	0.003	-0.0203	-0.003	4.5
0.0045	0.0045	-0.0173	-0.0015	4.5
0.0045	0.0037	-0.0158	-0.0008	4.5
0.003	0.0022	-0.012	0	4.5
0.0015	0.0022	-0.0105	-0.0008	4.5
0.0022	0.0015	-0.0091	0.0007	4.5
0.0045	0	-0.006	-0.0008	4.6
0.0037	-0.0015	-0.0083	-0.003	4.6
0.003	-0.0008	-0.012	-0.003	4.6
0.0045	0.0037	-0.0143	-0.0046	4.6
0.0052	0.003	-0.0143	-0.0038	4.7
0.0045	0.0015	-0.0135	-0.003	4.7
0.003	0.0007	-0.0113	-0.0053	4.7
0.0037	0.0007	-0.0098	-0.006	4.8
0.0045	0.0007	-0.0083	-0.0046	4.8
0.0052	-0.0008	-0.0046	-0.0053	4.8
0.0037	-0.0008	0	-0.003	4.8
-0.0008	-0.0023	0.0052	-0.0015	4.9
-0.0046	-0.0023	0.009	-0.0015	4.9
-0.0068	-0.0023	0.0127	-0.003	4.9
-0.0046	-0.0023	0.0157	-0.0023	4.9
-0.0053	-0.0015	0.0187	-0.0008	4.9
-0.0053	-0.0015	0.024	0.0015	4.9
-0.0053	-0.0015	0.0255	0.003	5
-0.0083	-0.0046	0.0255	0.003	5
-0.0091	-0.0053	0.0187	0.003	5.1
-0.0083	-0.0046	0.018	0.0037	5.1
-0.0105	-0.0053	0.0232	0.003	5.1
-0.0091	-0.0053	0.024	0.0022	5.2
-0.0083	-0.006	0.0262	0.0022	5.2
-0.0068	-0.0068	0.0255	0.003	5.3
-0.0068	-0.0068	0.0277	0.003	5.3
-0.0083	-0.0075	0.0315	0.0037	5.3
-0.0091	-0.0098	0.0352	0.0052	5.4
-0.012	-0.0105	0.039	0.0082	5.4
-0.015	-0.0083	0.0367	0.009	5.4
-0.0158	-0.0075	0.0345	0.006	5.5
-0.0158	-0.0083	0.0352	0.0045	5.5
-0.0173	-0.0075	0.0315	0.0037	5.6
-0.015	-0.0053	0.0277	0.003	5.6
-0.0113	-0.0046	0.0217	0.0015	5.6
-0.0053	-0.003	0.0105	-0.0008	5.7
0.0022	0.0007	0.0052	-0.0008	5.7
0.0045	0.0015	0.0015	-0.0008	5.8
0.003	0.0015	-0.0008	-0.0015	5.8
0.0052	0.003	-0.003	-0.003	5.8
0.0082	0.003	-0.0091	-0.003	5.9
0.0052	0.003	-0.0068	-0.0015	6
0.0052	0.0022	-0.0023	-0.003	6
0.0052	0	-0.006	-0.0053	6.1
0.0045	-0.0008	-0.003	-0.0053	6.2
0.0022	-0.0015	0.003	-0.0038	6.2
0.0015	-0.0015	0.0045	-0.003	6.3
0.0022	-0.0008	-0.0015	-0.003	6.3
-0.0008	0.0007	-0.0083	-0.003	6.4
-0.003	0	-0.0083	-0.0015	6.4
-0.003	-0.0008	-0.0083	-0.0008	6.5
0	0	-0.0113	-0.0023	6.5
0.0015	0.0007	-0.0158	-0.0023	6.6
0.0037	0.0015	-0.0181	-0.0015	6.7
0.0052	0.0015	-0.0188	-0.003	6.7
0.006	0.0015	-0.0195	-0.003	6.8
0.006	0.0045	-0.0203	-0.0053	6.8
0.0075	0.0045	-0.0195	-0.0068	6.9
0.0082	0.0045	-0.0181	-0.0053	7
0.009	0.0045	-0.012	-0.003	7
0.0082	0.0022	-0.0053	-0.0015	7.1
0.0097	0.0045	-0.0113	-0.003	7.2
0.0105	0.0037	-0.0083	-0.003	7.2
0.0045	0.0015	0.0037	-0.0008	7.3
0.0037	0.0015	0.0015	-0.0015	7.4
0.0015	0.0007	-0.003	-0.0046	7.4
-0.0015	-0.0008	-0.0015	-0.0046	7.5
0.0007	-0.0015	-0.0015	-0.003	7.6
0.0007	-0.0023	-0.0105	-0.0038	7.6
0.0067	0	-0.0188	-0.0046	7.7
0.0067	0	-0.0173	-0.0023	7.8
0.0022	-0.0008	-0.0128	-0.003	7.9
0.0015	0.0015	-0.0143	-0.0046	7.9
0	0.0037	-0.0135	-0.003	8
-0.0015	0.003	-0.0046	0	8.1
-0.0046	0.0007	0	0.0007	8.1
-0.0023	0.0007	0	0.0015	8.2
-0.0008	0.0015	0.003	0.0015	8.3
-0.0053	-0.0015	0.009	0.0037	8.4
-0.0038	-0.0053	0.009	0.003	8.5
-0.003	-0.003	0.0082	0.0015	8.5
-0.0038	-0.0023	0.012	0.0007	8.6
-0.0038	-0.0046	0.012	0	8.7
-0.0015	-0.003	0.0097	-0.0008	8.8
0.0045	-0.0008	0.0075	0.0007	8.9
0.0082	-0.0023	0.0067	-0.0008	8.9
0.0082	-0.0015	0.006	-0.0008	9
0.0082	-0.0008	0.0022	-0.0008	9.1
0.0075	-0.0008	0.0007	0	9.2
0.0075	-0.0008	-0.003	0.0015	9.3
0.0082	-0.0015	-0.0038	0.0007	9.3
0.006	-0.0008	-0.0046	0.0015	9.4
0.0037	-0.0008	-0.0038	0.003	9.5
-0.0008	-0.0008	-0.0008	0.0015	9.6
-0.0053	0.0015	-0.0008	0.0007	9.7
-0.0091	-0.0008	0.0022	0.0015	9.7
-0.0181	-0.0023	0.0022	0.0007	9.8
-0.0233	-0.003	-0.0008	0	9.9
-0.0173	-0.0015	-0.0053	-0.0008	10
-0.0068	-0.0023	-0.012	0.0007	10.1
0.0007	-0.0008	-0.012	0.0015	10.1
0.003	-0.0008	-0.0135	-0.0008	10.2
0.003	0.0007	-0.0203	0	10.3
0.0045	0.003	-0.0218	0	10.4
0.0082	0.0037	-0.0203	-0.0015	10.5
0.0105	0.0045	-0.0218	-0.0015	10.5
0.0112	0.003	-0.0195	0.0007	10.6
0.009	0.0015	-0.0143	0.0045	10.7
0.006	0.0007	-0.0135	0.0037	10.8
0.0037	0.0022	-0.012	0.0022	10.9
0.0007	0.0015	-0.0068	0.0015	10.9
0	0.0007	0.0007	0.0007	11
0.0007	0.0007	0.0015	0.0015	11.1
-0.0008	0	0.0007	0.0052	11.2
0.0007	0.0007	0.003	0.0045	11.3
0.0007	0.0007	0.006	0.0015	11.3
0.0015	-0.0008	0.0052	0.0007	11.4
0.0022	0.0007	0.0045	0.0015	11.5
0.003	0.0015	0.0045	0.0007	11.6
0.0067	0.0015	0.0015	0.0007	11.7
0.0082	0.0015	0.0015	0.0007	11.8
0.0097	0.0022	0.0015	0.0015	12
0.012	0.0015	0.0022	0.003	12.1
0.0067	0.003	0.0015	0.0007	12.2
0.0037	0.0022	0.0007	0.0007	12.3
0.0022	0.0015	0.0052	0.0015	12.4
-0.0008	0.0015	0.0067	0.0015	12.5
-0.0023	0.0007	0.0082	0.0022	12.6
-0.0068	-0.003	0.0097	0.003	12.7
-0.0083	-0.003	0.0105	0.006	12.8
-0.0105	-0.0015	0.0165	0.0052	13
-0.0128	-0.0008	0.0165	0.0022	13
-0.012	-0.0015	0.0112	0.0007	13.2
-0.012	-0.003	0.0082	0.0007	13.3
-0.0113	-0.003	0.009	0.003	13.4
-0.0098	-0.003	0.0172	0.003	13.5
-0.012	-0.0053	0.0285	0.0037	13.6
-0.015	-0.0083	0.021	0.003	13.7
-0.012	-0.0083	0.0052	0.0022	13.9
-0.006	-0.006	-0.003	0.0007	14
-0.0008	-0.003	-0.0068	-0.0008	14.1
0	-0.0008	-0.0091	0.0007	14.3
0.003	-0.0008	-0.0143	0	14.4
0.0045	0.0007	-0.0105	0.0015	14.6
-0.0008	-0.0015	-0.0068	0.0015	14.7
0	-0.003	-0.003	0.0022	14.8
-0.0015	-0.003	0.0052	0.0045	15
-0.0015	-0.0038	0.0082	0.0045	15.2
-0.0023	-0.0046	0.012	0.0037	15.3
-0.0008	-0.003	0.0105	0.0015	15.4
0.0015	0	0.0067	-0.0008	15.6
0.0045	-0.0038	0.0052	-0.003	15.7
0.0082	-0.0075	0	-0.006	15.8
0.0067	-0.0083	-0.0053	-0.0053	16
0.0067	-0.0046	-0.0015	-0.0046	16.2
0.0015	-0.0008	0.0052	-0.0053	16.3
0	-0.0008	0.0052	-0.0053	16.4
-0.0015	-0.0015	0.0082	-0.006	16.6
-0.006	-0.0008	0.0105	-0.0046	16.7
-0.006	0.0015	0.012	-0.0023	16.9
-0.006	0.0007	0.012	0	17.1
-0.0023	0.0007	0.0045	0.003	17.3
0.0007	0	-0.003	0.0045	17.5
-0.0008	-0.0015	0.0075	0.0045	17.7
-0.0091	0	0.03	0.0067	17.9
-0.0128	-0.0008	0.0367	0.0067	18
-0.0173	-0.0038	0.0367	0.006	18.2
-0.0181	-0.0008	0.0315	0.003	18.4
-0.0143	0.0015	0.0202	-0.0015	18.6
-0.015	0.0045	0.0142	-0.0008	18.8
-0.0098	0.0052	0.0045	0.0007	18.9
0.0007	0.0045	-0.0046	0.0007	19.1
0.0135	0.0045	-0.0143	0	19.3
