File Name: 2Npie.log
Channel 1: 'RF', 14520 values, engineering units: mV, no filters.
Channel 2: 'BF', 14520 values, engineering units: mV, no filters.
Channel 3: 'VM', 14520 values, engineering units: mV, no filters.
Channel 4: 'ST', 14520 values, engineering units: mV, no filters.
Channel 5: 'FX', 726 values, engineering units: deg, no filters, extrapolated from 50 to 1000 samples per second.

0.0015	-0.0008	-0.0046	0.0007	3
0.003	0.0045	-0.0158	-0.0008	3
0.0037	0.0045	-0.0165	-0.0008	3
0	0.0037	-0.0173	-0.0015	3
-0.0008	0.0007	-0.012	-0.0015	3
0	0.0007	-0.0068	0.0007	3
-0.0008	0.0007	-0.0023	0.0007	3
0.0007	-0.003	-0.0015	0.0007	3
-0.0046	-0.006	-0.0008	0	3
-0.006	-0.0046	0.0112	-0.0008	3
-0.0053	-0.0008	0.0195	-0.0008	3
-0.0046	0.0007	0.0255	0.0007	3
-0.0053	0.0045	0.0315	0.0007	3
-0.0053	0.0045	0.0315	-0.0008	3
0.003	0.0015	0.0255	-0.0008	3
0.003	0.003	0.0187	0	3
0.0007	0.0015	0.0157	0	3
0.0052	0.0015	0.0082	-0.003	3
0.0037	-0.0008	0.0015	-0.0038	3
0.0067	0	-0.0023	0	3
0.006	0.003	-0.0053	0.0015	3
0.0015	0.0015	-0.0075	0	3
-0.0053	0.0007	-0.0091	-0.0008	3
-0.0143	0.0015	-0.0068	0.0007	3
-0.0143	-0.0008	-0.003	0.0007	3
-0.0158	-0.0023	-0.003	-0.0008	3
-0.0165	-0.0008	-0.006	0.0007	3
-0.0128	-0.0008	-0.0053	0.0007	3
-0.0053	-0.0008	-0.0053	0.0007	3
-0.0038	-0.0008	-0.0091	0.0007	3
0.0015	-0.0008	-0.0105	0.0015	3
0.0172	-0.0008	-0.0091	0.0037	3
0.0255	0.003	-0.0075	0.0045	3
0.0352	0.0045	-0.0046	0.0015	3
0.03	0.003	-0.0091	-0.003	3
0.0127	0	-0.0098	-0.0053	3
0	-0.003	-0.0053	-0.0053	3
-0.006	-0.003	-0.0053	-0.0038	3
-0.003	-0.0046	-0.0023	-0.003	3
-0.0128	-0.0046	-0.0015	-0.003	3
-0.0143	-0.0015	0.0045	0	3
-0.0091	-0.0015	0.0105	0.0007	3
-0.0023	-0.0038	0.009	0.0007	3
0.0105	-0.0038	0.009	0	3
0.021	-0.0038	0.0067	-0.0015	3
0.024	-0.0038	0.0052	-0.0008	3
0.0157	-0.0015	0.0045	0.0007	3
0.0157	-0.0008	0.0045	0.0007	3
0.015	-0.0046	0.0015	-0.0008	3
0.0172	-0.0068	-0.0015	-0.0015	3
0.0045	-0.0023	0.0022	-0.003	3
-0.0128	-0.0015	0.006	-0.0015	3
-0.0165	-0.0008	0	-0.0015	3
-0.0203	0.0007	-0.0068	0	3
-0.0225	0	-0.0083	0.0015	3
-0.0233	-0.0008	-0.0091	0.0007	3
-0.0135	-0.0008	-0.0083	0.0007	3
-0.0091	0.0015	-0.012	0.0015	3
-0.012	0	-0.0105	0.0022	3
-0.012	-0.0008	-0.0098	0.0007	3
-0.0158	0.0015	-0.0068	-0.0008	3
-0.0113	0.0007	0.0007	0	3
-0.0075	0.0007	0.0045	0.0015	3
0.0007	-0.0008	0.0105	-0.0008	3
0.0097	-0.0008	0.012	-0.0015	3
0.012	0.0022	0.012	-0.0008	3
0.0135	0.0022	0.012	-0.0015	3
0.0127	-0.0015	0.0037	-0.0015	3
0.0112	-0.0053	-0.0015	-0.0038	3
0.0142	-0.003	0.0007	-0.0023	3
0.0127	0.0007	0.0037	0.003	3
0.0067	0.0007	0.003	0.0007	3
0.0067	0.0015	-0.0068	0	3
0.0105	0.003	-0.0098	-0.0008	3
0.0045	0.003	-0.0053	-0.0015	3
-0.003	0.003	-0.0008	0.0015	3
-0.0038	0.003	0.0037	0.0015	3
-0.0053	0	0.003	0.0015	3
-0.006	-0.0008	0.003	0.0007	3
-0.0023	-0.0008	-0.0008	0.0007	3
-0.0008	-0.003	0.0015	0	3
0	-0.003	0.012	0.0007	3
-0.0008	-0.0038	0.012	0.0015	3
-0.0015	-0.003	0.0022	0.0007	3
-0.0075	-0.0023	-0.0015	0	3
-0.0083	-0.0023	0	0	3
-0.006	0.0007	0.0052	0.0015	3
-0.006	0.0015	-0.0008	0.0007	3
-0.003	0	-0.0083	-0.0015	3
0.0082	0.0015	-0.0068	-0.0008	3
0.0112	0.006	-0.0046	0	3
0.0045	0.0045	0.006	0	3
0.0015	0.0022	0.0067	0	3
-0.0046	-0.0046	-0.0046	-0.0008	3
-0.006	-0.006	-0.0083	-0.0015	3
0.0007	-0.0015	-0.0068	-0.0008	3
0.0082	-0.0015	-0.0091	-0.0008	3
0.0082	0.0007	-0.0105	-0.0015	3
-0.0023	0	-0.0098	-0.0015	3
-0.0091	-0.0038	-0.0113	-0.0046	3
-0.0188	-0.003	-0.0128	-0.003	3
-0.0203	-0.0008	-0.0158	-0.003	3
-0.0015	0.0007	-0.0158	-0.003	3
0.0112	0.0037	-0.0105	0	3
0.0202	0.0052	-0.0091	-0.0008	3
0.0202	0.0015	-0.0053	-0.0015	3
0.012	-0.0015	0.003	-0.0023	3
0.0135	-0.0015	0.0105	-0.0008	3
0.0127	0.0007	0.015	-0.0008	3
0.0075	0.0007	0.0165	-0.0008	3
0.0067	-0.0008	0.018	-0.0008	3
-0.0008	-0.0015	0.0157	0	3
-0.003	-0.0008	0.0172	0.0015	3
0.0037	0.0022	0.0172	0.003	3
0.0045	0.0045	0.0067	0.0015	3
0.0052	0.0052	-0.0008	0	3
-0.0015	0.003	-0.0015	-0.0023	3
-0.0083	-0.0008	0.0007	-0.0046	3
-0.0105	-0.0023	-0.0038	-0.0046	3
-0.021	-0.0038	-0.0053	-0.0038	3
-0.024	-0.0015	-0.003	-0.0015	3
-0.0218	-0.0015	-0.0068	-0.0008	3
-0.0181	-0.0015	-0.0053	0	3
-0.0053	0	-0.0053	0.0015	3
-0.003	0	-0.006	0.0015	3
-0.0023	0.0015	-0.003	0.0015	3
0.009	0.003	-0.0008	0.0045	3
0.0232	0.0022	0.0045	0.0037	3
0.0345	0.0015	0.0082	0.0022	3
0.0345	0.0015	0.0105	0.0007	3
0.0337	0.0007	0.012	-0.0008	3
0.0195	-0.0015	0.0082	-0.0015	3
0.0007	-0.0038	0.0007	-0.003	3
-0.0068	-0.0053	-0.0068	-0.0038	3
-0.0143	-0.0053	-0.0068	-0.003	3
-0.0203	-0.0008	-0.0053	-0.0015	3
-0.0218	0	-0.0053	-0.0015	3
-0.0195	0	-0.0015	0.0007	3
-0.0143	-0.0008	0.0007	0	3
-0.0053	-0.0015	0.003	-0.0015	3
0.0037	0.0015	0.0037	0.0007	3
0.0105	0.0007	0.0037	0	3
0.009	0	0.0045	-0.0008	3
0.0015	0.0007	0.0037	0	3
0.0022	-0.0015	0.006	0.0015	3
0.0037	-0.0008	0.012	0.0037	3
0.0007	-0.0015	0.0067	0.0007	3
0.0022	-0.0015	-0.0023	0.0007	3
0.003	-0.0015	-0.0053	0.0007	3
0.003	-0.0015	-0.0075	-0.0008	3
0.0007	-0.0015	-0.0075	-0.003	3
-0.0046	-0.0008	-0.0091	-0.0038	3
-0.0053	0.0007	-0.0091	-0.003	3
-0.0046	-0.0008	-0.0091	-0.003	3
-0.0098	-0.0008	-0.0038	-0.0008	3
-0.0158	-0.0015	0.0067	0	3
-0.0068	-0.0015	0.0195	0.0007	3
0.0052	0	0.0225	0.003	3
0.0007	0.0015	0.0112	0.003	3
-0.0015	0.003	0.0052	0.0015	3
-0.0023	0.0007	0	0.0022	3
-0.0046	0.0015	-0.0038	0.0007	3
0.003	-0.0008	-0.0053	0.0007	3
0.0105	-0.0068	-0.0015	-0.0008	3
0.0165	-0.0083	0.0135	-0.003	3
0.0142	-0.0046	0.0247	-0.003	3
0.0007	0.0015	0.0142	-0.0015	3
-0.0068	0.0052	-0.0083	-0.0015	3
-0.0068	0.006	-0.0248	-0.0038	3
0.0007	0.0007	-0.0338	-0.0046	3
0.009	-0.0015	-0.0361	-0.003	3
0.0105	0	-0.033	-0.0008	3
0.006	-0.0008	-0.0285	0.0015	3
0.0015	0.0022	-0.0218	0.0022	3
-0.0015	0.0045	-0.0135	0.003	3
-0.003	0.0037	-0.0083	0.0015	3
-0.0113	0.0037	-0.0046	0.0015	3
-0.0278	0.0007	-0.0008	0.0007	3
-0.0278	-0.0015	0.0015	0.0015	3
-0.0203	0	0.0037	0.003	3
-0.0143	-0.0008	0.003	0.0015	3
-0.003	-0.0015	0.0052	-0.0008	3
0.0015	-0.0046	0.0075	-0.0015	3
0.009	-0.0046	0.0067	-0.0008	3
0.0195	-0.0023	0.0045	-0.0015	3
0.0247	-0.0008	0.0045	-0.0015	3
0.0292	-0.0008	0.009	-0.0015	3
0.0285	-0.0008	0.0172	-0.0008	3
0.0202	-0.0008	0.0187	0.0007	3
0.0142	-0.0008	0.0112	0.0015	3
0.0127	0.0007	0.009	0.003	3
0.0082	0.0045	0.0082	0.0015	3
-0.0015	0.0067	0.0082	0.0007	3
-0.0113	0.006	0.0045	0.0015	3
-0.0098	0.0045	0.003	0	3
-0.0053	0.003	0.0082	-0.0008	3
-0.0091	-0.0008	0.0045	-0.0023	3
-0.0098	-0.0015	0.0037	-0.0023	3
-0.0068	0.0007	0.0037	-0.0023	3
-0.0015	0.0015	0.003	-0.003	3
0.0037	-0.0015	-0.0015	-0.003	3
0.0037	-0.0075	-0.0091	-0.003	3
-0.006	-0.0083	-0.006	-0.0023	3
-0.0113	-0.0046	-0.0008	-0.0015	3
-0.0105	-0.003	0.006	0	3
-0.0098	-0.0023	0.006	0.0007	3
-0.003	-0.0008	0.0022	-0.0008	3
-0.003	-0.0015	-0.003	0.0015	3
-0.0046	-0.003	-0.012	0.0022	3
-0.0098	-0.003	-0.0158	0.0015	3
-0.0195	-0.003	-0.0113	0.0015	3
-0.0165	-0.003	-0.003	0.0015	3
-0.0135	-0.0015	0.003	0.0015	3
-0.0083	0.0007	0.0052	0.0007	3
-0.0038	0.0037	0.006	0	3
0.0097	0.003	0.0045	0.0007	3
0.0375	0.003	0.0022	0.0007	3
0.0592	0.006	0.0052	-0.0015	3
0.078	0.0037	0.0075	-0.0015	3
0.0757	0.0015	0.0075	-0.003	3
0.0405	-0.0008	0.0105	-0.0046	3
0.0015	-0.0046	0.0127	-0.003	3
-0.021	-0.0038	0.0067	-0.0038	3
-0.0353	-0.0038	-0.0053	-0.0023	3
-0.0368	-0.0023	-0.0105	-0.0015	3
-0.03	-0.0015	-0.0135	-0.0008	3
-0.027	-0.0015	-0.0128	-0.0008	3
-0.0278	-0.0015	-0.0083	0	3
-0.0278	-0.0023	-0.003	0.003	3
-0.021	-0.0023	-0.003	0.0022	3
-0.0128	0	-0.003	0.0022	3
-0.0075	0.0007	-0.0068	0.0007	3
-0.0008	0.0007	-0.0068	-0.0023	3
0.0067	0	-0.0046	-0.0008	3
0.0165	0.0007	-0.0083	0.0015	3
0.0232	0.003	-0.0068	0.0022	3
0.0232	0.0037	-0.0083	0.0007	3
0.0217	0.0015	0.0007	-0.0015	3
0.0127	-0.0053	0.012	-0.0015	3
0.0105	-0.0068	0.0127	-0.0015	3
0.0045	-0.003	0.018	-0.0008	3
-0.0105	-0.0023	0.0195	0.0007	3
-0.0083	0	0.012	0.0007	3
-0.0068	-0.0015	0.0007	0	3
-0.006	0.0007	0.0045	0.0015	3
-0.0068	-0.0008	0.0037	0.0015	3
-0.012	-0.0008	-0.003	0.0022	3
-0.012	-0.0008	-0.0068	0.0007	3
-0.0128	-0.0023	-0.0091	0	3
-0.0105	-0.0008	-0.0083	0.0007	3
-0.0158	-0.0015	-0.0091	-0.0015	3
-0.0233	-0.0008	-0.0128	-0.0008	3
-0.0195	0.0007	-0.012	-0.0023	3
-0.0135	0.0022	-0.0083	-0.0023	3
-0.0053	-0.0008	-0.0038	-0.0015	3
0.0082	-0.0008	0	-0.0015	3
0.0157	0.003	0.0022	0	3
0.0172	0.0015	0.003	0	3
0.018	0.0007	0.003	-0.0008	3
0.0187	0	0.006	-0.0008	3
0.0225	-0.0023	0.0015	-0.0008	3
0.0195	0	0.0052	0.0007	3
0.0127	0.0007	0.018	0.0007	3
0.012	0.0007	0.0217	0.0015	3
0.012	0.003	0.0187	0.0007	3
0.0067	0.0022	0.021	-0.0008	3
0.0015	0.0015	0.0195	-0.0023	3
-0.0083	0.0022	0.0015	-0.0046	3
-0.0105	0.003	-0.0105	-0.0015	3
-0.0091	0.0022	-0.0188	-0.003	3
-0.0128	0.0015	-0.0225	-0.0023	3
-0.0091	0.0015	-0.0256	0	3
-0.0098	0	-0.033	-0.0015	3
-0.0068	-0.0015	-0.0315	-0.0015	3
-0.0008	-0.0015	-0.0323	-0.0015	3
0.0045	-0.0008	-0.027	0.0007	3
0.0112	-0.0008	-0.0173	0.003	3
0.0082	0.0007	-0.0105	-0.0008	3
0.003	-0.0023	-0.0015	-0.0015	3
0.0052	-0.0053	0.0007	0.0007	3
0.012	-0.0053	0.003	0.0007	3
0.0135	-0.0053	0.006	0	3
0.0127	-0.0015	0.0112	0.0007	3
0.0127	-0.0008	0.0165	-0.0023	3
0.0105	0	0.018	-0.003	3
0.0045	0.0015	0.0195	-0.0015	3
-0.0008	0	0.018	-0.0015	3
-0.0053	-0.0008	0.0165	-0.0008	3
-0.0091	-0.0008	0.012	-0.0008	3
-0.0135	0	0.0082	0.0007	3
-0.0181	0	0.0052	0.0007	3
-0.0278	-0.0038	-0.0046	0	3
-0.0375	-0.003	-0.0068	0.0015	3
-0.0293	-0.0008	-0.0105	0.0015	3
-0.0203	-0.0015	-0.0091	0.0007	3
-0.012	-0.0008	-0.0023	0.0015	3
0	0.003	-0.003	0.0022	3
0.018	0.003	-0.0008	0.0007	3
0.042	0.003	0.0067	0.0007	3
0.0585	0.003	0.0112	0.0007	3
0.0667	0.0067	0.012	-0.0015	3
0.0525	0.0052	0.0097	-0.0046	3
0.015	-0.006	0.0112	-0.0083	3
-0.0181	-0.0075	0.0195	-0.0068	3
-0.0158	-0.003	0.024	-0.0015	3
-0.0053	-0.0015	0.0142	0.0015	3.1
-0.0068	0.0015	0.0052	0.003	3.1
-0.0046	0.0007	0.0015	0.0015	3.1
-0.0008	-0.0008	-0.0008	0.0007	3.1
-0.003	-0.0053	-0.0015	-0.0015	3.1
-0.0075	-0.006	-0.0008	-0.0008	3.1
-0.0135	-0.0008	0.0022	0.0007	3.1
-0.0203	-0.0015	0.0045	0.0007	3.1
-0.0218	0	0.0067	0.0007	3.1
-0.0203	0.0015	0.0015	-0.0008	3.1
-0.0181	0.0015	-0.006	-0.0008	3.1
-0.0128	0.0015	-0.012	-0.0008	3.1
-0.0075	0.0015	-0.0181	-0.0015	3.1
-0.003	0.0037	-0.0233	-0.0015	3.1
-0.003	0.0022	-0.0233	-0.0038	3.1
-0.0046	0.003	-0.021	-0.0038	3.1
-0.0038	0.0007	-0.0181	0	3.1
0.0007	-0.0008	-0.0181	0.0007	3.1
0.009	0.0022	-0.0165	0.0015	3.1
0.0142	0.0007	-0.0158	0.0022	3.1
0.018	-0.0008	-0.0128	0.0007	3.1
0.0232	-0.0008	-0.0068	0.0007	3.1
0.0232	-0.0015	0.0015	0.0007	3.1
0.0142	-0.003	0.0202	0.0015	3.1
0.0082	-0.0015	0.0277	0.0015	3.1
0	0.0015	0.0315	0.0007	3.1
-0.0068	0.0007	0.033	0	3.1
-0.0083	-0.0008	0.0195	-0.0015	3.1
-0.0091	-0.0008	0.012	-0.0015	3.1
-0.0068	-0.0008	0.003	-0.0008	3.1
-0.0053	-0.0008	-0.0038	-0.0015	3.2
-0.0068	0.0015	-0.0046	-0.0015	3.2
-0.0083	-0.0008	-0.0053	-0.0008	3.2
-0.0068	0	-0.0068	-0.0008	3.2
-0.0023	0.0007	-0.0068	0.0007	3.2
-0.0075	-0.003	-0.003	0.0007	3.2
-0.0165	-0.0015	0.0007	0	3.2
-0.0188	-0.0008	-0.0015	-0.0008	3.2
-0.0158	-0.0023	-0.0053	-0.0008	3.2
-0.0128	-0.003	-0.0053	0.0007	3.2
-0.0083	-0.0046	-0.0015	0.0007	3.2
-0.0046	-0.0023	-0.0015	0.0015	3.2
0.003	-0.0015	-0.003	0.0015	3.2
0.015	-0.0008	-0.003	-0.0008	3.2
0.0277	0.0007	-0.0038	0.0007	3.2
0.0397	0.0015	-0.0015	-0.0015	3.2
0.0427	0.003	0.0015	-0.0046	3.2
0.033	0.0015	0.0045	-0.0023	3.2
0.024	0.0015	0.0052	-0.0015	3.2
0.0157	0.003	0.0045	-0.0008	3.2
0.0045	0.0022	0.006	0.0007	3.3
-0.0015	0.0015	0.0075	-0.0008	3.3
-0.0105	0.0015	0.0045	-0.0008	3.3
-0.015	0.0007	0.0007	-0.0015	3.3
-0.0128	-0.0015	0	-0.0008	3.3
-0.0135	0.0007	-0.0015	0.0015	3.3
-0.0128	-0.0008	0	0.0007	3.3
-0.0105	-0.003	0.0007	0	3.3
-0.0083	-0.003	-0.0038	0.0007	3.3
-0.0091	-0.0038	-0.0046	-0.0008	3.3
-0.006	-0.0023	-0.0068	-0.0015	3.3
-0.0038	-0.0008	-0.0091	0.0007	3.3
-0.003	-0.0008	-0.0105	0	3.3
-0.0008	0	-0.0098	-0.0015	3.3
-0.0008	0.0007	-0.0083	0.0007	3.3
0.0007	0	-0.0008	0.0015	3.4
-0.003	-0.0008	0.0127	0.0007	3.4
-0.0083	-0.0008	0.0195	-0.0008	3.4
-0.0053	-0.0008	0.0127	0.0007	3.4
0.0015	-0.0008	0.0052	0.0007	3.4
0.0045	0.0007	0.0067	0.0007	3.4
0	0.0015	0.0105	0.0015	3.4
-0.0068	0.003	0.0082	0	3.4
-0.0075	0.0015	-0.0015	-0.0015	3.4
-0.0008	-0.0015	-0.0091	-0.0015	3.4
0.0052	-0.0015	-0.0165	-0.003	3.4
0.0142	-0.003	-0.024	-0.0023	3.4
0.0195	-0.0046	-0.0263	-0.0046	3.4
0.0135	-0.0053	-0.0233	-0.0053	3.4
0.0082	-0.0046	-0.0158	-0.003	3.4
0	0.0007	-0.012	-0.003	3.5
0.0007	0.0007	-0.0068	-0.0008	3.5
0.0097	0.0007	-0.0046	0.0007	3.5
0.0082	-0.0008	-0.0046	-0.0008	3.5
0.003	-0.0008	-0.0023	0.0007	3.5
-0.003	0.0015	0.0015	0.0015	3.5
-0.0105	0	0.0037	0.0037	3.5
-0.0105	-0.0015	0.003	0.0022	3.5
-0.0068	-0.0023	0.0067	0.0007	3.5
-0.0068	-0.003	0.0105	0.0007	3.5
-0.0046	-0.003	0.015	0.0007	3.5
-0.0015	-0.0015	0.0157	0.0007	3.5
0	-0.0015	0.012	-0.0008	3.5
0.003	0.0007	0.0067	-0.0015	3.5
0.0015	0.0022	0.0022	-0.0015	3.5
0.0037	0.0007	0.0015	-0.0008	3.5
0.0082	0.0007	-0.0046	-0.0015	3.5
0.0067	0.0015	-0.0128	-0.0015	3.5
0.0022	0.0015	-0.0158	-0.0015	3.5
-0.0015	0.0015	-0.0143	0.0007	3.5
-0.006	0.0015	-0.0128	0.0015	3.6
-0.0135	0.0007	-0.0068	0	3.6
-0.0158	0	0	0.0015	3.6
-0.012	0.0015	0	0.003	3.6
-0.0075	0.0007	0.0037	0.0015	3.6
0.0015	-0.0015	0.0067	0	3.6
0.0105	-0.0038	0.0165	-0.0008	3.6
0.015	-0.0053	0.0285	-0.0008	3.6
0.0247	-0.0008	0.0367	0	3.6
0.0315	0.0015	0.042	0.0007	3.6
0.0202	0.003	0.0367	0	3.6
0.0082	0.0015	0.027	-0.0023	3.6
0.0082	0.0007	0.0135	-0.003	3.6
0.0045	0.0015	0.003	-0.003	3.6
-0.003	0.003	-0.0015	-0.0015	3.6
-0.015	0.0022	-0.0008	-0.0008	3.6
-0.024	0.0007	-0.0053	-0.0015	3.6
-0.0181	-0.0008	-0.0091	-0.003	3.6
-0.0135	-0.0008	-0.012	-0.0015	3.6
-0.012	-0.0008	-0.0143	-0.0008	3.6
-0.006	0.0007	-0.0143	-0.0008	3.6
-0.0008	0	-0.0135	-0.0008	3.6
0.003	-0.0008	-0.0128	0	3.6
0.0037	0	-0.0091	0.0007	3.6
0.006	0.0007	-0.0091	0.0015	3.6
0.012	0.0015	-0.0091	0.0007	3.7
0.0105	0.0037	-0.0083	0.0007	3.7
0.0082	0.0037	-0.0083	-0.0015	3.7
0.0135	0	-0.0053	-0.003	3.7
0.0112	-0.0008	-0.0083	-0.0023	3.7
0.0082	0.0007	-0.0128	-0.0023	3.7
0.0067	0.0015	-0.0053	0	3.7
0.0067	0	0.0015	0.0007	3.7
0.0067	-0.0008	0	0	3.7
0.0052	-0.0015	-0.0046	0.0007	3.7
0.006	-0.0046	-0.0053	0	3.7
0.0007	-0.0038	-0.003	-0.0015	3.7
0.0007	-0.0023	-0.003	-0.0015	3.7
-0.0038	-0.0023	-0.0046	-0.0008	3.7
-0.0068	-0.0038	-0.0008	0	3.7
-0.0038	-0.0038	0.0052	0.0007	3.8
-0.0015	-0.0038	0.0075	0.0007	3.8
0	-0.0015	0.0037	-0.0015	3.8
0.0022	0.003	-0.0008	-0.0023	3.8
0.0052	0.0045	-0.0008	-0.0023	3.8
-0.003	0.003	-0.0053	-0.003	3.8
-0.0098	0.0007	-0.0083	-0.0053	3.8
-0.0128	-0.0008	-0.0083	-0.0105	3.8
-0.0105	-0.0008	-0.0068	-0.0128	3.8
-0.003	0.0007	-0.0053	-0.0105	3.8
-0.0046	-0.0008	0.0007	-0.006	3.8
-0.0091	-0.0023	0.0045	-0.0038	3.8
-0.0165	-0.003	0.006	0.0007	3.8
-0.012	-0.0046	0.009	0.0105	3.8
-0.0068	-0.0038	0.009	0.0135	3.8
-0.0068	-0.0023	0.0165	0.0142	3.8
-0.0023	-0.0015	0.0292	0.0135	3.8
-0.0046	-0.0038	0.0292	0.009	3.8
-0.0053	-0.0038	0.0172	0.0045	3.8
-0.0015	-0.0015	0.0082	-0.0008	3.8
0.0015	-0.0008	0	-0.0015	3.9
0.0022	-0.0008	-0.0068	-0.003	3.9
0.0045	0.003	-0.015	-0.0068	3.9
0.0052	0.0052	-0.021	-0.0053	3.9
0.003	0.0037	-0.024	-0.0015	3.9
0.003	0.0037	-0.0203	-0.0015	3.9
0.0015	0.0007	-0.0105	-0.006	3.9
0.0007	-0.003	-0.0075	-0.0038	3.9
-0.0046	-0.003	-0.0068	0.0067	3.9
-0.0046	-0.0015	-0.0053	0.012	3.9
-0.0053	-0.0015	-0.0046	0.0105	3.9
-0.0053	-0.0015	-0.0046	0.0045	3.9
-0.0053	-0.0015	-0.006	0.0007	3.9
-0.012	-0.0046	-0.0053	0.0015	3.9
-0.0158	-0.0023	-0.006	-0.0015	3.9
-0.0158	-0.0015	-0.0068	-0.0046	3.9
-0.0165	-0.003	-0.0053	-0.0038	3.9
-0.0143	0	-0.0046	-0.0023	3.9
-0.0015	0.0045	-0.003	0.0007	3.9
0.0142	0.0105	0.0007	-0.003	3.9
0.0225	0.0105	0.009	-0.0053	4
0.0315	0.0007	0.0165	-0.006	4
0.0427	-0.0053	0.0195	-0.0105	4
0.0457	-0.0046	0.0172	-0.0098	4
0.0405	-0.0038	0.018	-0.0091	4
0.027	-0.006	0.021	-0.0113	4
0.0105	-0.0046	0.0202	-0.0128	4
0.0037	-0.0068	0.0142	-0.012	4
0.0052	-0.0046	0.0082	-0.0068	4
0.0015	-0.0038	0.0022	-0.0053	4
-0.0038	-0.006	-0.0053	0.0037	4
-0.0008	-0.003	-0.0046	0.0165	4
-0.0053	-0.0023	-0.0046	0.0202	4
-0.0075	0.0015	-0.006	0.0172	4
-0.0091	0.0045	-0.006	0.012	4
-0.012	0.009	-0.0083	0.0052	4
-0.0091	0.0142	-0.0083	-0.003	4
-0.006	0.0127	-0.0105	-0.0083	4
-0.0008	0.018	-0.012	-0.0105	4
-0.0046	0.0165	-0.0015	-0.0083	4
-0.003	0.0142	0.0082	-0.0015	4
0.0067	0.0142	0.009	0.0045	4.1
0.0067	0.0075	0.0187	0.009	4.1
0.0105	0.0015	0.0202	0.012	4.1
0.0127	-0.003	0.0105	0.0135	4.1
0.0112	-0.0105	0.0007	0.0187	4.1
0.0052	-0.0181	-0.0091	0.0202	4.1
-0.0015	-0.0195	-0.0143	0.012	4.1
-0.0091	-0.015	-0.0113	0.003	4.1
-0.0181	-0.0105	-0.0008	-0.003	4.1
-0.0256	-0.0105	0.0015	-0.006	4.2
-0.0293	-0.012	0	-0.0075	4.2
-0.0346	-0.012	-0.0135	-0.0113	4.2
-0.03	-0.0083	-0.024	-0.0105	4.2
-0.0203	-0.003	-0.0233	-0.0105	4.2
-0.0091	0.0015	-0.0203	-0.012	4.2
0.0007	0.0015	-0.0105	-0.0188	4.2
0.0015	0.0015	-0.0008	-0.0203	4.3
0.0052	0.0045	0.0045	-0.0158	4.3
0.0045	0.0037	0.003	-0.0158	4.3
0.0052	0.0052	0.0022	-0.0113	4.3
0.006	0.006	0.0037	-0.012	4.3
0.0037	0.0075	0.0052	-0.021	4.3
0.0045	0.0052	0.0075	-0.0165	4.4
0.003	0.0045	0.0127	-0.0068	4.4
0.0045	0.006	0.018	0.0045	4.4
0.0052	0.0045	0.0135	0.0315	4.4
0.0045	-0.0015	0.003	0.0495	4.4
0.003	-0.0046	-0.0053	0.0495	4.5
-0.003	-0.0038	-0.0053	0.0457	4.5
-0.0068	-0.0053	-0.0015	0.0277	4.5
-0.006	-0.0046	0.0045	0.0082	4.5
-0.0068	-0.003	0.0082	0	4.5
-0.006	-0.0008	0.0052	-0.0046	4.5
-0.0008	0.0015	0	-0.003	4.5
0.006	0.0007	-0.0046	-0.0008	4.5
0.012	0.0007	-0.0046	-0.0023	4.6
0.012	-0.0008	-0.003	-0.0053	4.6
0.0165	-0.0015	-0.0008	-0.0083	4.6
0.024	-0.0008	0.0082	-0.0068	4.6
0.0232	-0.0023	0.0112	-0.0075	4.7
0.0195	-0.0068	0.0082	-0.0105	4.7
0.0157	-0.0053	0	-0.0113	4.7
0.0165	-0.0015	-0.0091	-0.0105	4.7
0.0127	0.0045	-0.0128	-0.0083	4.7
0.0007	0.0082	-0.0105	-0.0091	4.8
-0.003	0.009	-0.012	-0.0105	4.8
-0.0091	0.009	-0.012	-0.0083	4.8
-0.0165	0.006	-0.0083	-0.006	4.8
-0.0218	0.0045	0.0045	-0.0105	4.9
-0.024	0.003	0.0165	-0.0181	4.9
-0.0173	0.003	0.0165	-0.0225	4.9
-0.012	0.0052	0.012	-0.0173	4.9
-0.0053	0.0007	0.006	-0.0075	4.9
0.0015	-0.0068	-0.0015	0.0007	4.9
0.0075	-0.0113	-0.0068	0.0075	5
0.009	-0.0113	-0.0053	0.0157	5
0.0142	-0.0135	-0.0053	0.0225	5
0.0232	-0.0113	-0.0068	0.0165	5.1
0.0202	-0.0075	-0.0008	0.012	5.1
0.0157	-0.0046	0.0052	0.0112	5.2
0.0097	-0.0008	0.0082	0.0082	5.2
0	0.0015	0.0052	0.003	5.2
-0.003	0.0037	-0.0068	-0.003	5.3
-0.003	0.0022	-0.0165	-0.0008	5.3
-0.0015	-0.0008	-0.0128	0.0045	5.3
0	-0.003	-0.006	0.0075	5.3
0.0022	-0.0075	-0.0068	-0.0015	5.3
0.003	-0.0083	-0.0038	-0.0165	5.4
-0.0038	-0.003	-0.0008	-0.0181	5.4
-0.0158	0.0142	-0.003	-0.0165	5.5
-0.0315	0.0352	-0.0068	-0.0091	5.5
-0.0428	0.027	-0.0105	0.0045	5.5
-0.0346	0.0015	-0.0023	0.0157	5.6
-0.0135	-0.0008	0.0105	0.021	5.6
0.0045	0	0.0165	0.0172	5.6
0.0097	-0.0053	0.015	0.0082	5.7
0.009	-0.0015	0.0067	-0.0038	5.7
0.012	-0.0053	-0.003	-0.003	5.8
0.0172	-0.0053	-0.0105	0.003	5.8
0.0217	-0.0046	-0.0083	-0.0046	5.8
0.03	-0.0068	-0.0015	-0.0068	5.8
0.0255	-0.0015	0.003	-0.0023	5.9
0.0105	0.0045	0.015	-0.0023	5.9
0.006	0.0045	0.0217	-0.0038	6
-0.0091	-0.0015	0.0142	-0.0053	6
-0.0195	-0.003	0.0067	-0.0083	6.1
-0.0128	-0.0053	-0.0008	-0.0091	6.1
-0.0053	-0.0083	-0.0038	-0.012	6.2
0.0105	-0.0046	-0.0015	-0.0158	6.2
0.006	-0.0023	0.0007	-0.012	6.3
-0.006	-0.0023	0.0022	-0.0173	6.3
-0.006	-0.0023	0	-0.0308	6.3
-0.0068	0.0007	-0.0046	-0.0256	6.3
-0.0015	0.0015	-0.012	-0.0173	6.4
-0.0023	0.0015	-0.0135	-0.0203	6.4
-0.0015	0.0067	-0.0105	-0.0105	6.5
-0.0008	0.009	-0.0083	0.021	6.5
0	0.0075	-0.0068	0.039	6.6
-0.0015	-0.0015	-0.0008	0.0547	6.6
-0.0053	-0.0068	0.0045	0.0555	6.7
-0.0038	-0.0068	0.006	0.0307	6.7
-0.003	-0.0105	0.0067	0.0195	6.8
-0.0046	-0.0068	0.0052	0.0007	6.8
-0.0038	-0.0023	0.0037	-0.0083	6.9
-0.003	-0.0015	0.0037	0.003	6.9
-0.0015	0	0.0045	0.0067	7
0	-0.0015	0.0052	0.0127	7
-0.0008	-0.0046	0.003	0.0052	7.1
-0.0015	-0.0083	0.0037	0.0007	7.1
-0.0015	-0.0053	0.0015	0.0007	7.2
0.0007	-0.0008	-0.003	-0.0091	7.2
0.0037	0.0015	-0.0068	-0.021	7.3
0.0052	0.0045	-0.0091	-0.024	7.3
0.0045	0.0075	-0.0068	-0.0143	7.4
0.0045	0.0082	-0.0046	-0.012	7.4
0.0052	0.006	0	-0.0053	7.5
0.0052	0.0052	0.0015	0.0075	7.5
0.0052	0	0	0.012	7.6
0.003	-0.0083	0.0022	0.0127	7.6
0.0022	-0.0075	0.0052	-0.0218	7.6
0.0015	-0.0015	0.0067	-0.0795	7.7
0.0022	0.0067	0.003	-0.09	7.7
-0.0008	0.0127	0	-0.0473	7.8
-0.0038	0.0127	-0.0046	-0.0135	7.8
-0.0038	0.012	-0.0091	0.0157	7.9
-0.0046	0.009	-0.0083	0.0577	8
0.0007	0.0007	-0.0068	0.0832	8
0.0007	-0.0158	-0.0083	0.081	8.1
-0.0015	-0.0248	-0.0075	0.0585	8.1
0.0015	-0.0165	-0.0038	0.0277	8.1
0.0045	-0.0091	-0.0038	0.0052	8.2
0.0015	-0.003	-0.0053	-0.0023	8.2
-0.0008	0.003	-0.0046	-0.0091	8.3
0.003	0.0037	0.0097	-0.0113	8.3
0.0037	0.0015	0.0165	0.003	8.4
0.003	-0.003	0.012	0.012	8.4
0.003	-0.003	0.0105	0.0022	8.5
0.0045	-0.0015	0.0052	-0.0008	8.5
0.006	-0.0046	0.0067	-0.0015	8.5
0.0052	-0.003	0.0052	-0.0053	8.5
0.0022	-0.0068	0.0015	-0.0068	8.6
0.0007	-0.0105	0	-0.0098	8.6
-0.0008	-0.0098	-0.003	-0.0091	8.6
0.0022	-0.0038	-0.0046	-0.0105	8.7
0.003	0.003	-0.0083	-0.012	8.7
0.0015	0.003	-0.0046	-0.0143	8.8
0.003	0.0052	-0.0015	-0.0248	8.8
0.0015	0.0067	-0.0068	-0.03	8.8
0.0015	0.0067	-0.0053	-0.027	8.9
-0.0015	0.0052	-0.0053	-0.0256	8.9
-0.0015	0.0052	-0.0046	-0.021	9
-0.003	0.0082	-0.003	-0.0105	9
-0.003	0.0045	0.0007	-0.0053	9
-0.0015	0.0037	0.0045	0.0067	9
-0.0023	0.0037	0.0037	0.0157	9.1
-0.0023	0.0015	0.0067	0.0045	9.1
-0.0023	0.0015	0.009	-0.0068	9.1
0.0022	0.0045	0.0075	-0.0143	9.2
0.0045	0.0045	0.003	-0.0015	9.2
0.003	0.0007	-0.0015	0.012	9.2
-0.0008	0.0007	-0.003	0.0202	9.3
0	0.0015	-0.006	0.0337	9.3
0.0007	-0.003	-0.0053	0.0307	9.3
-0.0008	-0.0053	-0.0023	0.027	9.4
-0.0015	-0.003	0.0007	0.018	9.4
-0.0046	-0.0008	0.003	0.012	9.4
-0.003	-0.0008	0.0007	0.015	9.4
-0.0023	-0.0008	0	0.015	9.4
-0.0038	-0.0008	0.0037	0.0097	9.5
-0.0046	0.0015	0.0045	0.0022	9.5
-0.0053	0.0015	0.0037	0.0007	9.5
-0.003	-0.0023	0.0052	-0.0038	9.6
-0.003	-0.003	0.0067	-0.0083	9.6
-0.0023	-0.0046	0.0045	-0.0068	9.6
-0.0015	-0.003	0.0007	-0.0083	9.7
-0.0008	-0.003	-0.0046	-0.012	9.7
0.0015	0.0007	-0.0098	-0.0105	9.7
0.0022	0.0052	-0.0113	-0.006	9.8
0.0037	0.0052	-0.0105	-0.0008	9.8
0.0052	0.0045	-0.0083	0	9.8
0.0045	0.0045	-0.0053	-0.0008	9.8
0.0045	0.0045	-0.0046	0.0037	9.9
-0.0008	0.0007	-0.003	-0.0075	9.9
0	-0.0008	0.0007	-0.0203	9.9
0.0015	-0.0008	0.003	-0.0165	9.9
0	-0.0015	0.0052	-0.0158	9.9
-0.0023	-0.003	0.0045	-0.0053	10
-0.0023	-0.0015	0.0022	0.0052	10
-0.003	-0.0023	0.0052	0.003	10
-0.0128	-0.006	0.0067	-0.003	10
-0.024	-0.006	0.0045	-0.006	10.1
-0.0256	-0.0015	0.0015	-0.0023	10.1
-0.0195	0.0007	-0.0015	-0.0015	10.1
-0.0068	0.003	-0.0015	-0.003	10.1
0.0045	0.003	-0.003	-0.0083	10.2
0.0127	0.0015	-0.0068	-0.015	10.2
0.0202	0.0022	-0.0075	-0.0285	10.2
0.0262	0.003	-0.0068	-0.0338	10.2
0.0292	0.003	-0.0053	-0.0181	10.3
0.0277	-0.0015	-0.0046	-0.003	10.3
0.0315	-0.0015	-0.0046	0.0217	10.3
0.0262	0	-0.0053	0.0442	10.3
0.0105	-0.0015	-0.003	0.0405	10.3
0.0052	-0.0023	0.0015	0.0285	10.3
0.0045	-0.0008	0.0007	0.0202	10.4
0.0015	0.0015	0	0.0127	10.4
-0.0008	0.0052	0.003	0	10.4
-0.0038	0.003	0.003	-0.0173	10.4
-0.0053	0.0007	0.0007	-0.0263	10.4
-0.006	0.0015	-0.0046	-0.0233	10.5
-0.0075	0.0007	-0.0068	-0.0218	10.5
-0.0068	-0.003	-0.0053	-0.0315	10.5
-0.0046	-0.0008	-0.0046	-0.0263	10.5
-0.0053	0.0007	-0.003	0.003	10.6
-0.0068	-0.0038	0.0015	0.0135	10.6
-0.0075	-0.0075	0.0045	0.0127	10.6
-0.0053	-0.0068	0.0045	0.0127	10.6
-0.0046	-0.0091	0.0045	0.0142	10.6
-0.0046	-0.0091	0.0067	0.0195	10.7
-0.0053	-0.0098	0.009	0.0142	10.7
-0.0046	-0.0083	0.0105	0.0142	10.7
-0.0038	-0.006	0.0165	0.015	10.7
-0.003	-0.0068	0.0225	0.0112	10.7
-0.0038	-0.0053	0.018	0.0037	10.7
-0.003	-0.0053	0.0097	-0.0015	10.8
-0.003	-0.0008	0.0022	-0.0008	10.8
-0.0046	0.0082	-0.0075	-0.003	10.8
-0.003	0.0217	-0.012	-0.003	10.8
0	0.0277	-0.0105	-0.0046	10.8
0.0037	0.0172	-0.0128	-0.0046	10.9
0.0015	0.0022	-0.0143	-0.0053	10.9
-0.0015	-0.012	-0.0105	-0.0075	10.9
-0.0038	-0.0158	-0.0068	-0.0068	10.9
-0.0015	-0.0098	-0.006	-0.003	11
0.0007	-0.003	-0.0038	0.0015	11
0	0	0.0015	-0.0075	11
0	0.0007	0.0015	-0.0195	11
0.0007	-0.0008	0	-0.0293	11
0.0015	-0.003	0.0015	-0.033	11.1
0.0022	0.0045	0.0037	-0.0398	11.1
0.0015	0.012	0.0067	-0.027	11.1
0.003	0.0112	0.0075	0.0112	11.1
0.003	0.0045	0.0067	0.0397	11.1
0.0007	-0.0046	0.0045	0.0555	11.2
-0.0008	-0.0158	-0.0008	0.0525	11.2
0.006	-0.021	0.0015	0.0307	11.2
0.0157	-0.0158	0.0022	0.0105	11.2
0.018	-0.0068	-0.0008	0	11.2
0.015	0.0015	-0.0008	0.0015	11.2
0.012	0.009	0.0007	-0.0015	11.2
0.0052	0.0082	-0.0008	-0.0068	11.2
0.0067	0.006	-0.0015	-0.0046	11.3
0.003	0.0082	-0.0008	-0.0008	11.3
-0.003	0.003	-0.0008	-0.0015	11.3
-0.0046	-0.0023	-0.0008	-0.003	11.3
-0.012	-0.0068	0.003	-0.0015	11.3
-0.0225	-0.0083	0.0082	-0.003	11.4
-0.0293	-0.003	0.0082	-0.003	11.4
-0.0233	-0.0023	0.0045	-0.0046	11.4
-0.0165	-0.0068	0.0045	-0.0068	11.4
-0.0091	-0.0075	0.003	-0.0038	11.4
0.003	-0.0015	0.0007	-0.003	11.4
0.003	-0.0008	-0.0046	-0.0038	11.4
0.0052	0.003	-0.0083	-0.0038	11.5
0.006	0.0067	-0.0046	-0.003	11.5
0.0045	0.0052	-0.0023	-0.003	11.5
0.0052	0.0037	0.0007	-0.006	11.5
0.003	0.003	0.0022	-0.0098	11.5
0.0045	0.0037	0.0015	-0.0143	11.5
0.0007	0.0045	0.0045	-0.0091	11.6
0.0007	0.0015	0.0015	-0.0053	11.6
0.0022	0.003	0.0022	0.0007	11.6
0.0015	0.0022	0.003	0.0112	11.6
0.003	-0.0015	0.0022	0.015	11.6
0.0015	-0.003	0.0007	0.018	11.6
0.0007	-0.0023	-0.0015	0.012	11.6
0.0015	-0.0008	-0.003	0.003	11.6
0.0022	0.0015	-0.0038	0.0007	11.6
0.0022	0.0045	-0.0075	-0.0038	11.6
0.0022	0.003	-0.0105	-0.003	11.7
0.0022	0.0007	-0.0091	-0.0038	11.7
0.0015	-0.0008	-0.0068	-0.0038	11.7
0.0007	0.0007	-0.0046	0	11.7
0.0022	0.0007	-0.0015	0.0007	11.7
0	-0.0015	0	0.0015	11.7
-0.0008	-0.0015	0.0007	0.0007	11.7
-0.0008	-0.0015	0.0015	-0.0008	11.7
-0.0008	-0.0023	0.0007	-0.0015	11.7
0.0007	-0.0046	0.0022	-0.0015	11.7
-0.0015	-0.0023	0.003	-0.0038	11.7
-0.0015	0.0007	0.003	-0.0098	11.7
-0.003	0.003	0.0015	-0.012	11.7
-0.003	0.0045	-0.0008	-0.0091	11.7
0.0015	0.0075	-0.0023	-0.0046	11.7
0.0037	0.0067	-0.0046	0.0007	11.7
0.0052	-0.0015	-0.0053	0.0067	11.7
0.0037	-0.0053	-0.0053	0.009	11.7
0.0037	-0.0015	-0.0046	0.0022	11.7
0.0045	-0.0015	-0.0023	-0.0015	11.7
0.003	-0.003	-0.0015	-0.0046	11.7
0.0037	-0.0023	-0.0015	-0.0053	11.7
0.0015	-0.003	0	-0.0075	11.8
0.0007	-0.003	0.0045	-0.0075	11.8
0.0007	-0.003	0.006	-0.0015	11.8
-0.0008	-0.0053	0.0052	0.0037	11.8
0	-0.006	0.0082	0.0045	11.8
-0.0015	-0.0046	0.0075	0.0022	11.8
-0.0015	-0.0015	0.0045	0.0037	11.8
-0.0015	0.0007	0.0007	0.003	11.9
-0.0008	0.0015	-0.0046	0	11.9
0.0007	0.003	-0.006	0.0007	11.9
0.0007	0.0045	-0.0075	0.0007	11.9
0.003	0.003	-0.0068	-0.0008	11.9
0.0007	0.003	-0.0046	-0.0008	11.9
0.0007	0.0015	-0.006	-0.0015	11.9
0.0022	0.0007	-0.0046	-0.0015	11.9
0.0022	0	-0.0038	-0.0015	11.9
0.003	0.0007	-0.0038	-0.0015	11.9
0.0007	0.0007	-0.003	-0.0015	11.9
-0.0008	0	-0.0015	-0.0008	11.9
-0.0008	0.0015	0.0007	0.0015	11.9
-0.0008	0.0007	0.0007	0.003	11.9
-0.003	0	0.0015	0	11.9
-0.0008	0.0007	0.0037	-0.0015	11.9
-0.0008	0.0015	0.0007	0	12
-0.0015	0.0015	-0.003	-0.0008	12
0.0015	0.0007	-0.0046	-0.0023	12
0.0015	0.0015	-0.0068	-0.0008	12
0.003	0.0007	-0.0091	0.0007	12
0.003	0.0015	-0.0053	0.0007	12
0.0007	0.0022	-0.0008	0.0022	12
0.0007	0.0007	0.0022	0.0015	12
0.0007	0.0015	0.003	-0.0008	12
0.0007	0.0015	0.003	0	12
-0.0008	0.0007	0.0082	0.0007	12
0	0	0.0127	0.0022	12
0.0022	-0.0015	0.0165	0.0022	12
0.0067	-0.0015	0.0112	0.0007	12
0.0105	-0.003	0.0045	0	12
0.012	-0.0068	-0.003	-0.0023	12
0.0097	-0.0083	-0.0098	-0.0015	12
0.0052	-0.0068	-0.0083	-0.0008	12
0.0045	-0.0023	-0.0068	-0.0008	12
0.0052	0.0007	-0.0008	-0.0015	12
-0.003	0.0007	0.0007	-0.0023	12
-0.0113	0	0.0015	-0.003	12
-0.0165	-0.0023	0.006	-0.0008	12
-0.0181	-0.0015	0.0052	0	12
-0.0165	0	0.009	0.0015	12
-0.0218	-0.0008	0.0105	0.0007	12
-0.0181	0.0007	0.009	-0.003	12
-0.0105	0.0015	0.0075	-0.0091	12
-0.0008	0.0022	0.0022	-0.0218	12
0.0037	0.0022	0.0015	-0.033	12
0.0037	0.0007	0.0007	-0.03	12
0.006	0.003	-0.0008	-0.0068	12
0.003	0.0037	0.0007	0.0225	12
0.0045	0.0045	0.003	0.042	12
0.0045	0.0015	0.003	0.0427	12
0.0097	-0.0038	0.0007	0.027	12.1
0.0097	-0.0083	-0.0015	0.0105	12.1
0.0075	-0.0091	-0.0053	-0.0015	12.1
0.0097	-0.006	-0.0053	-0.0023	12.1
0.0052	-0.0046	-0.0068	0.003	12.1
0.003	-0.0015	-0.006	-0.0008	12.1
0.0007	0.0007	-0.0015	-0.0023	12.1
0.0007	-0.0008	-0.0015	-0.0015	12.1
-0.0008	0.0007	-0.0023	-0.0015	12.1
-0.0023	0.0007	-0.0015	0.0007	12.1
-0.0008	0.0015	-0.0023	0.0007	12.1
-0.003	0.0015	-0.003	-0.0008	12.1
-0.0008	0	-0.0008	-0.0015	12.1
0.0007	-0.0015	0.0007	-0.0046	12.1
-0.0008	-0.0023	0.0022	-0.0083	12.1
0.0007	-0.0046	0.0022	-0.0083	12.1
0.0022	-0.003	0.0007	-0.0068	12.1
0.0022	-0.0008	-0.0015	-0.0068	12.1
0.003	0.0007	-0.006	-0.0083	12.1
0.0052	0.0015	-0.0068	-0.0068	12.1
0.003	0.0007	-0.0075	-0.0053	12.2
0.0007	0.0015	-0.0068	-0.0038	12.2
-0.0015	0.0037	-0.0038	-0.006	12.2
-0.0046	0.0022	-0.0053	-0.0083	12.2
-0.0015	0.0045	-0.003	-0.0083	12.2
-0.0023	0.0067	0	-0.0046	12.2
-0.003	0.0052	0.0007	0.0067	12.2
-0.003	0.0015	0.0037	0.0052	12.3
-0.003	-0.0023	0.0015	-0.0008	12.3
-0.0008	-0.0046	0.003	0.0015	12.3
-0.0015	-0.0053	0.0075	0.0015	12.3
-0.0008	-0.0038	0.0045	0.0105	12.3
0.0007	-0.0046	0.0045	0.0225	12.3
0.0015	-0.0075	0.003	0.0225	12.3
0.0045	-0.0038	-0.0015	0.0067	12.4
0.0052	-0.0038	-0.0015	-0.003	12.4
0.0045	-0.0046	-0.0015	0.0007	12.4
0.0037	-0.003	-0.0046	-0.0046	12.4
-0.0015	-0.0038	-0.003	-0.0053	12.4
-0.0068	-0.006	-0.0015	-0.003	12.5
-0.0046	-0.0053	0.0037	-0.0053	12.5
-0.0023	-0.0023	0.006	-0.0038	12.5
-0.0008	0.003	0.0045	-0.0068	12.6
-0.0008	0.0075	0.0037	-0.0046	12.6
-0.0015	0.0052	0.0015	-0.0038	12.6
-0.003	0.0037	0.0007	-0.0038	12.6
-0.0008	0.003	-0.0008	-0.003	12.6
0.0015	0.0007	-0.0015	-0.0023	12.6
0.0045	0.0007	-0.0015	-0.0008	12.6
0.009	0	-0.003	-0.0015	12.7
0.009	0.0007	-0.0068	-0.0008	12.7
0.0135	0.0022	-0.0098	-0.0015	12.7
0.0135	0.0015	-0.0128	-0.0046	12.8
0.0067	0.0015	-0.0143	-0.003	12.8
0.0007	-0.0008	-0.012	-0.0008	12.8
-0.0038	-0.0015	-0.0075	-0.0008	12.8
-0.0053	-0.0008	-0.0046	0.0007	12.9
-0.0046	0.0007	-0.003	0	12.9
-0.0015	0.0015	-0.0015	-0.0008	12.9
0	0.0007	0.0007	0.0007	13
0.0007	0	0.003	0	13
-0.0023	-0.0015	0.0052	0	13
-0.0038	0.0007	0.0075	0.0015	13
-0.0046	-0.0008	0.0075	0.0037	13.1
-0.0038	0.0007	0.006	0.0045	13.1
-0.0015	0.003	0.003	0.0015	13.1
-0.0008	0.0015	0.0045	-0.0008	13.2
-0.0008	0.0007	0.0045	-0.0008	13.2
-0.0015	-0.0008	0.0007	-0.0015	13.2
0.0007	0.0015	-0.0008	-0.0023	13.3
0.0015	0.003	-0.0015	-0.0015	13.3
0.0022	0.0015	0.0007	-0.0023	13.3
-0.0008	-0.0008	-0.0008	-0.0008	13.4
0	-0.0015	0.0007	0.0015	13.4
0.0007	-0.0015	0.003	0.0007	13.4
-0.0015	-0.0008	0.003	0.003	13.5
-0.0008	-0.0008	0.0052	0.0037	13.5
-0.0008	-0.0008	0.0045	-0.0008	13.5
0.0007	-0.003	0.0045	-0.003	13.5
0.0007	-0.0053	0.0082	-0.0015	13.6
-0.0008	-0.0038	0.0082	-0.0008	13.6
0.0007	-0.0015	0.0067	0.0007	13.6
-0.0008	-0.0008	0.0037	0.0007	13.7
-0.0008	0.0007	-0.0015	-0.0015	13.7
0.0007	-0.0015	-0.003	-0.0015	13.8
0.0037	-0.0008	-0.0053	-0.0015	13.8
0.0052	0.0007	-0.0091	0.0007	13.8
0.0045	0.003	-0.0075	-0.0008	13.9
0.003	0.0015	-0.0046	-0.0091	13.9
0.0022	-0.0008	-0.0015	-0.012	13.9
0.0007	-0.0015	0.0007	-0.0105	13.9
0.0007	-0.0038	0.0007	-0.006	14
0.0007	-0.0068	-0.0008	0.003	14
0.0022	-0.0075	0.0015	0.0082	14
0.003	-0.0068	-0.0008	0.0052	14.1
0.003	-0.0023	0.0007	0.003	14.1
0.0015	0.0037	0.0045	0.0052	14.2
0	0.0015	0.0045	-0.0023	14.2
0.0007	-0.0038	0.0045	-0.0158	14.2
0.0007	-0.0068	0.0022	-0.0135	14.3
0.003	-0.0046	0	-0.0015	14.3
0.0045	0.003	-0.006	0.0127	14.4
0.0037	0.0105	-0.0105	0.0292	14.4
0.003	0.0135	-0.0091	0.0262	14.4
0.0015	0.0067	-0.0068	0.0105	14.4
0.0015	0.0007	-0.003	-0.0053	14.5
0.0007	-0.0015	-0.0023	-0.0203	14.5
0.0007	-0.0015	-0.0008	-0.0203	14.6
0.0007	-0.0008	0	-0.0068	14.6
-0.0023	0.0007	-0.0015	0.009	14.6
-0.0023	0.003	-0.0015	0.0292	14.7
-0.0046	0.0015	-0.0023	0.036	14.7
-0.0046	0.0007	0	0.018	14.8
-0.0038	0.0007	0.0052	0.0007	14.8
-0.0038	0.003	0.003	-0.0091	14.8
-0.0023	-0.0008	0.0007	-0.0128	14.8
-0.0023	-0.0128	0.0037	0.0007	14.9
0.0007	-0.0203	0.0037	-0.0046	14.9
0.0015	-0.021	0.0007	-0.0233	14.9
0.0022	-0.0195	-0.0015	-0.0248	15
0.003	-0.0195	-0.0015	-0.0308	15
-0.0008	-0.0165	-0.0015	-0.0165	15
-0.0008	-0.0105	-0.0015	0.0052	15.1
0.0007	-0.0038	-0.0015	0.0075	15.1
-0.0008	0.012	-0.0015	0.0052	15.1
-0.0015	0.033	-0.0008	-0.0098	15.2
-0.0046	0.0427	-0.0015	-0.0398	15.2
-0.006	0.0307	0	-0.048	15.2
-0.0068	0.0165	-0.0008	-0.027	15.3
-0.0046	0.012	0.0007	0.0007	15.3
-0.003	0.0082	0.003	0.0405	15.3
-0.0038	0.0022	0.0015	0.0652	15.3
-0.0023	-0.0098	-0.0008	0.0555	15.4
-0.0038	-0.0128	0	0.033	15.4
-0.0008	-0.0098	0.0015	0.012	15.4
0.003	-0.0068	-0.0038	-0.0105	15.5
0.0045	0.0052	-0.0053	-0.0315	15.5
0.0067	0.006	-0.0068	-0.0375	15.6
0.0045	-0.0008	-0.0046	-0.0346	15.6
0.0022	-0.0075	-0.003	0	15.7
0.003	-0.0143	-0.003	0.0502	15.7
0.0015	-0.0195	0.0007	0.0495	15.7
0	-0.0225	0.003	0.0195	15.8
0.0007	-0.0188	0.0067	0.003	15.8
0	-0.0143	0.0097	-0.0083	15.9
-0.0023	-0.0083	0.0097	-0.0225	15.9
-0.0008	-0.0053	0.0082	-0.0293	15.9
0	-0.0053	0.0045	-0.0195	16
-0.0008	-0.0046	0.0022	-0.0075	16
0	0.0075	0.0007	0.0067	16.1
-0.0015	0.0217	-0.0023	0.0195	16.1
-0.0008	0.0217	-0.0075	0.0142	16.2
0.0015	0.012	-0.0098	0.0015	16.2
-0.0008	0.0045	-0.0075	-0.0165	16.2
0.0015	0.0022	-0.006	-0.0203	16.3
0.0045	-0.003	-0.003	-0.0015	16.3
0.0015	-0.003	-0.0023	0.003	16.4
0.0022	-0.003	-0.003	-0.0091	16.5
0.0015	-0.0015	-0.0023	-0.0165	16.5
0.0007	0.0052	-0.0015	-0.0278	16.6
0	0.012	-0.0015	-0.033	16.6
0.0007	0.0195	-0.0015	-0.015	16.6
0.0007	0.0195	0	0.0067	16.7
-0.0046	0.0127	0	0.0285	16.8
-0.0023	0.0007	0.0015	0.054	16.8
-0.0015	-0.0128	0.0022	0.0517	16.9
-0.0023	-0.0181	0.0007	0.0255	17
0.0007	-0.0218	0.0037	0.0067	17
0.0015	-0.0203	0.003	-0.0105	17
0.0022	-0.0128	0.003	-0.0128	17.1
0.0022	-0.0053	0.0052	-0.0083	17.2
0.0037	0.0052	0.0007	-0.0038	17.2
0.003	0.009	0.0015	0.0075	17.3
0.0015	0.0082	0.0007	-0.0023	17.3
0.0007	0.0067	0.0007	-0.0091	17.4
0.0007	0.0045	0.0037	-0.0128	17.5
-0.0008	0.0007	0.0022	-0.027	17.5
-0.003	0.0022	0.003	-0.0285	17.6
-0.0023	0.0045	0.003	-0.0158	17.6
-0.0046	0.006	0.0037	0.006	17.7
-0.0046	0.0052	0.003	0.027	17.8
-0.0023	-0.0008	0.003	0.0195	17.8
-0.0008	-0.0015	0.0015	-0.0053	17.9
0.0015	0.0007	-0.0015	-0.024	18
0.0045	0.003	-0.0008	-0.0458	18
0.003	0.0045	-0.0046	-0.0533	18.1
0.003	0.0082	-0.0083	-0.0315	18.1
0.006	0.0112	-0.0091	-0.0053	18.2
0.006	0.0097	-0.0075	0.0232	18.3
0.0045	0.0067	-0.0053	0.0457	18.3
0.003	0.006	-0.003	0.0502	18.4
0.003	0.003	0.0045	0.0465	18.4
0.0015	0.0007	0.003	0.0442	18.5
-0.003	0.003	0.0045	0.0322	18.5
-0.0038	0.0037	0.0075	0.0165	18.6
-0.0015	0.0105	0.0067	0.0015	18.7
0.0015	0.0135	0.009	-0.0173	18.7
0.0015	0.0105	0.0082	-0.0135	18.8
0.0007	0.0015	0.0067	-0.0068	18.9
-0.0008	-0.0091	0.0052	-0.0188	18.9
0	-0.0135	0.0007	-0.0353	19
0.0015	-0.0158	-0.003	-0.03	19.1
-0.0008	-0.0098	-0.0046	0.0045	19.1
-0.0008	-0.006	-0.0075	0.0292	19.2
-0.0008	-0.012	-0.0091	0.039	19.3
-0.003	-0.015	-0.0075	0.0165	19.3
-0.0008	-0.0203	-0.0046	-0.0105	19.4
0.0015	-0.0195	-0.0008	-0.015	19.4
0.0022	-0.015	0.003	-0.0195	19.5
0.0015	-0.012	0.0015	-0.0256	19.6
-0.0008	-0.012	0.0007	-0.0405	19.7
-0.0008	-0.0098	-0.0023	-0.054	19.7
0.0007	-0.0068	0.0015	-0.0398	19.8
0.0007	0	0.0037	-0.003	19.8
-0.0008	0.009	0.0007	0.033	19.9
-0.0015	0.0157	0	0.048	20
0	0.0112	-0.003	0.0472	20
0	-0.0008	-0.0015	0.0172	20.1
-0.0008	-0.0008	-0.0015	-0.0293	20.2
0.0022	0.0075	-0.006	-0.0593	20.2
0.003	0.012	-0.0091	-0.0465	20.3
0.0015	0.012	-0.0083	-0.0113	20.4
0.0015	0.0022	-0.0053	0.0352	20.5
0.0015	-0.0091	-0.0046	0.0645	20.5
0.0015	-0.0181	-0.0008	0.039	20.6
0	-0.0165	0.0022	0.0067	20.7
0.0015	-0.0053	0.0015	-0.0203	20.7
0.0007	0.0052	-0.0008	-0.0293	20.8
-0.0008	0.0142	-0.0015	-0.0203	20.8
0.0022	0.0142	0.0037	-0.0105	20.9
0.0037	0.0052	0.0112	0.0262	21
0.0052	-0.0068	0.0127	0.0465	21.1
0.0045	-0.0128	0.009	0.048	21.1
0.0052	-0.0053	0.0007	0.0585	21.2
0.0045	0.0007	-0.0046	0.0457	21.3
0.0007	0.0015	-0.0068	0.0052	21.3
0.0007	-0.0046	-0.0008	-0.024	21.4
0.0015	-0.006	0.006	-0.024	21.5
0.0007	0	0.0052	-0.0278	21.5
0.0007	0.003	0.0015	-0.0285	21.6
0.0007	0.003	-0.0015	-0.0218	21.7
-0.0023	0.0015	0	-0.0165	21.7
-0.0008	0.0015	0.003	0.006	21.8
0.0007	0.0052	0.0015	0.0195	21.9
-0.0008	0.0075	0	0.0067	22
-0.0008	0.0075	-0.0008	-0.0015	22
-0.0008	0.0082	0.0015	-0.0046	22
0.0007	0.0067	0.0015	-0.0091	22.1
-0.0008	0.0075	-0.0023	-0.0181	22.2
-0.0023	0.0067	-0.0023	-0.024	22.3
-0.0008	0.0052	-0.003	-0.0218	22.4
-0.0015	0.0045	-0.0068	-0.0181	22.4
0	0.0022	-0.0083	-0.003	22.5
0.0015	0.0015	-0.0075	0.0007	22.5
0.0007	0.0015	-0.0068	-0.0053	22.6
-0.0008	0	-0.003	-0.0278	22.7
-0.003	0.0045	-0.0008	-0.0765	22.8
-0.0015	0.0142	0.0007	-0.0548	22.8
-0.0015	0.0142	0.0015	0.0112	22.9
-0.0038	0.0052	0.0015	0.0502	23
-0.0023	-0.0128	0.0052	0.0982	23
-0.003	-0.0315	0.0082	0.0885	23.1
-0.003	-0.0383	0.0105	0.039	23.2
-0.0015	-0.0346	0.0097	0.0082	23.3
-0.0023	-0.0203	0.0067	-0.0091	23.4
-0.0023	-0.0091	0.0007	-0.0173	23.4
0	-0.015	-0.0046	-0.024	23.5
0.003	-0.0158	-0.003	-0.0135	23.6
0.0052	-0.003	-0.0046	-0.0091	23.6
0.0067	0.0202	-0.0046	-0.0143	23.7
0.0045	0.0367	-0.0046	-0.0233	23.8
0.003	0.024	-0.0068	-0.0315	23.8
0.0022	0.015	-0.003	-0.0346	23.9
-0.0008	0.0112	-0.003	-0.0346	24
-0.0008	0.0022	-0.003	-0.0128	24.1
-0.0008	0.003	-0.0015	0.0082	24.2
-0.0008	-0.0046	0.0007	0.0307	24.3
0.0007	-0.0091	0	0.0577	24.3
0	-0.0068	0.0007	0.0652	24.4
-0.0008	-0.006	0.006	0.042	24.5
-0.0008	-0.006	0.0075	0.012	24.6
-0.0008	-0.0083	0.0075	-0.0105	24.6
0	-0.0068	0.003	-0.0233	24.7
0.0007	-0.0083	-0.0015	-0.0218	24.8
0.0015	-0.0091	-0.0053	-0.0293	24.8
0.0015	-0.0098	-0.0068	-0.0473	24.9
0	-0.0113	-0.0091	-0.048	25
-0.0015	-0.0068	-0.0113	-0.0256	25.1
-0.0008	0.0015	-0.0083	-0.006	25.2
0.0007	0.012	-0.006	0.0157	25.2
-0.0008	0.0202	-0.0053	0.0247	25.3
0	0.0142	-0.0015	0.0225	25.4
-0.0008	0	0.0015	0.0195	25.5
0.0007	-0.0083	0.003	-0.024	25.6
-0.0008	-0.003	0.0022	-0.0315	25.6
-0.0015	0.0067	0.0015	0.0195	25.7
-0.0015	0.0105	0.0045	0.0532	25.8
-0.0015	0.006	0.0067	0.0555	25.9
-0.0008	0.003	0.0082	0.0382	26
-0.0008	0.0052	0.006	0.015	26.1
0.0015	0.003	0.0052	-0.0038	26.1
0.003	0.0015	0.003	-0.0075	26.2
0.0037	-0.0015	-0.0015	-0.0188	26.3
0.0045	-0.0015	-0.003	-0.0353	26.4
0.0037	0.0105	-0.0046	-0.0473	26.5
0.0007	0.0217	-0.0046	-0.0563	26.5
0	0.0232	-0.003	-0.033	26.6
0.0007	0.0067	-0.0015	-0.0008	26.7
-0.0015	-0.0105	-0.0015	0.0375	26.8
-0.003	-0.0188	0.0015	0.0772	26.9
-0.003	-0.0233	0.0015	0.0652	27
-0.0008	-0.0203	0.0037	0.0217	27
-0.0008	-0.021	0.0082	0.0007	27.1
-0.0008	-0.0181	0.0067	-0.0015	27.2
-0.0008	-0.0105	0.0037	-0.0083	27.3
0.0007	-0.0023	-0.0015	-0.0075	27.4
0.0037	0.0015	-0.0015	-0.0135	27.5
0.0015	-0.0008	-0.0023	-0.033	27.6
0.003	0.0045	-0.006	-0.039	27.7
0.0037	0.0082	-0.0068	-0.027	27.8
0.0045	0.0045	-0.0068	-0.0053	27.9
0.003	0.0045	-0.003	0.027	27.9
0.0007	-0.0023	-0.0015	0.0465	28
0.0022	-0.0083	-0.0008	0.0165	28.1
0.0045	-0.003	0	-0.0053	28.2
0.003	-0.0015	0.0015	-0.0091	28.3
0	0.003	0.0037	-0.0293	28.3
0.0015	0.012	0.0045	-0.0368	28.4
-0.0008	0.0127	0.0082	-0.033	28.5
-0.003	0.0127	0.009	-0.0285	28.6
-0.0046	0.0075	0.0045	-0.0293	28.7
-0.0053	0.0045	0.0007	-0.0233	28.8
-0.0046	0.003	-0.0008	-0.0158	28.9
-0.0023	0.003	-0.0053	-0.0181	29
-0.0023	0.009	-0.0083	-0.0046	29.1
-0.003	0.0022	-0.0075	0.0045	29.2
-0.0046	-0.0075	-0.0053	-0.0038	29.2
-0.0015	-0.0068	-0.0046	0.0127	29.3
0.0015	-0.0068	-0.0008	0.0495	29.4
0	-0.0075	0.0015	0.0532	29.5
0.0015	-0.0008	0.003	0.0517	29.6
0	0.0067	0.0045	0.0435	29.7
-0.0008	0.003	0.0067	0.0225	29.8
0.0015	-0.0015	0.006	0.0135	29.9
0.0015	-0.003	0.003	0.0097	30
0.0007	0.0015	0.0015	0.0135	30.1
-0.0023	0.0067	0.0022	0.0142	30.1
-0.0023	-0.0075	0.003	0.0202	30.2
-0.0015	-0.0075	0	0.0142	30.3
-0.0015	0.0172	-0.0046	-0.015	30.4
-0.0008	0.0202	-0.0015	-0.0233	30.5
0.003	0.0217	-0.003	-0.0128	30.6
0.0052	0.0352	-0.0098	-0.0091	30.7
0.0067	0.0202	-0.0083	-0.0098	30.8
0.0067	-0.0038	-0.0068	-0.0158	30.9
0.0067	-0.0091	-0.0053	-0.027	31
0.0045	-0.0188	-0.0008	-0.0083	31
0.003	-0.0195	-0.0008	0.003	31.1
0.003	-0.015	-0.0023	-0.0046	31.2
0.0022	-0.0113	-0.0008	-0.0218	31.3
0.0037	0.0052	-0.0008	-0.0375	31.4
0.0015	0.003	0.0022	-0.0375	31.5
0	-0.015	0.0052	-0.0218	31.6
0	-0.0233	0.0105	0.0105	31.7
-0.0008	-0.0293	0.012	0.0172	31.8
-0.0015	-0.0293	0.0052	0.0277	31.9
-0.003	-0.0293	0.0015	0.0195	32
-0.0015	-0.0278	-0.0038	-0.0023	32.1
-0.0015	-0.0173	-0.0068	-0.003	32.2
0.0007	0.0007	-0.0068	-0.0158	32.3
0.003	0.0142	-0.0075	-0.0181	32.4
0.0015	0.0142	-0.0046	-0.0203	32.4
0.0007	0.0082	-0.0046	-0.0233	32.5
0.0007	0.0022	-0.0046	-0.0361	32.6
-0.0008	0.0067	-0.0046	-0.0518	32.7
-0.003	0.0075	-0.0046	-0.0443	32.8
-0.0053	0.0082	-0.0038	-0.0083	32.9
-0.0053	0.0225	-0.0015	0.057	33
-0.003	0.0247	-0.0008	0.0945	33.1
-0.003	0.006	0.0037	0.1027	33.2
-0.0053	-0.0068	0.0082	0.0847	33.3
-0.0046	-0.0046	0.006	0.0457	33.3
-0.0038	-0.0038	0.003	0.0105	33.4
-0.0015	-0.0053	0.0015	-0.0165	33.5
0.0007	-0.012	-0.0015	-0.0338	33.6
-0.0008	-0.0165	-0.0053	-0.0458	33.7
0.0015	-0.0128	-0.0053	-0.0368	33.8
0.0015	-0.0008	-0.006	-0.0278	33.9
0.0015	-0.0008	-0.0046	-0.021	34
-0.0008	-0.003	-0.0015	-0.0083	34.1
0.0015	0.0045	-0.0015	-0.0075	34.1
0.0022	-0.0046	0	-0.0143	34.2
0.0015	-0.0105	0.0015	-0.0248	34.3
0.0007	-0.0091	0.003	-0.0225	34.4
-0.0046	-0.003	0.0022	-0.0195	34.5
-0.0038	0.006	0.0045	-0.0405	34.6
0.0007	0.012	0.006	-0.0383	34.7
0.003	0.0157	0.0067	-0.006	34.8
0.0082	0.0142	0.006	0.0112	34.9
0.0067	0.018	0.0045	0.0202	35
0.0045	0.0172	0.0015	0.0202	35.1
0.003	0.0217	-0.0023	0.0022	35.2
0.003	0.0217	-0.0053	-0.0233	35.3
0.0037	0.021	-0.0068	-0.0405	35.4
0.0022	0.0382	-0.0046	-0.0256	35.5
0.0015	0.0465	-0.0008	0.0217	35.5
0.0015	0.0255	-0.0023	0.0765	35.6
-0.0008	-0.003	0.0022	0.1057	35.7
0.0015	-0.024	0.0052	0.1027	35.8
0.0037	-0.0398	0.0082	0.0705	35.9
0.0015	-0.0518	0.0157	0.0262	36
0	-0.0533	0.0142	0.0045	36.1
-0.0015	-0.0533	0.009	-0.0091	36.2
-0.0038	-0.0458	0.0082	-0.0308	36.3
-0.0015	-0.0181	0.003	-0.0465	36.4
0.0022	0	-0.0015	-0.0465	36.5
0.0022	0.0045	-0.0038	-0.0405	36.6
0.0045	0.033	-0.0046	-0.0128	36.7
0.0045	0.0652	-0.0083	0.0277	36.8
0.0022	0.0577	-0.0113	0.0322	36.9
0.0022	0.036	-0.0098	0.0165	36.9
0.0007	0.0157	-0.0068	-0.003	37
0.0007	0.0127	-0.0038	-0.012	37.1
-0.0008	0.0172	-0.0015	-0.0023	37.2
0.0007	0.0157	0.0015	-0.0075	37.3
-0.0008	0.0127	0.0015	0.0105	37.4
-0.003	0.0045	0.0015	0.0157	37.5
-0.0053	-0.0046	0.0045	-0.0023	37.6
-0.0075	-0.0068	0.0045	0.0112	37.7
-0.006	-0.0143	0.006	0.0015	37.8
-0.0075	-0.0443	0.0037	-0.0128	37.9
-0.006	-0.075	0.0022	-0.0068	38
-0.003	-0.0795	0.0007	-0.0248	38.1
-0.0023	-0.063	-0.003	-0.0353	38.2
0	-0.0428	-0.0046	-0.0346	38.2
-0.0008	-0.0233	-0.0083	-0.0233	38.3
0.0022	-0.0015	-0.0091	0.0142	38.4
0.0015	-0.003	-0.0083	0.0127	38.5
-0.0008	-0.0113	-0.003	-0.0053	38.6
0.0007	-0.0046	0	-0.0105	38.7
0.0022	-0.0015	-0.003	-0.0158	38.8
0.0037	0.0075	-0.003	-0.0113	38.9
0.0037	0.0187	-0.003	-0.0256	39
0.0045	0.0232	-0.0046	-0.0608	39.1
0.0037	0.0292	-0.0053	-0.0871	39.2
0.0007	0.0315	-0.003	-0.0721	39.3
0.0015	0.033	0.0015	0.0007	39.4
0.0007	0.0345	0.0052	0.0787	39.5
0.0007	0.039	0.0052	0.084	39.6
0.0007	0.0352	0.0015	0.0487	39.6
0.0007	0.0367	-0.0008	0.0337	39.8
0.0045	0.039	-0.003	0.0202	39.9
0.0045	0.024	-0.0038	0.0315	40
0.0052	0.0097	-0.0023	0.0585	40
0.0045	-0.012	0.0022	0.048	40.1
0.003	-0.0323	0.0082	0.0225	40.2
0.0015	-0.0346	0.0052	0.0127	40.3
-0.0015	-0.0278	0.003	-0.0038	40.4
-0.0015	-0.0353	0.0052	-0.0173	40.5
-0.0015	-0.0503	0.006	-0.0203	40.6
0	-0.0428	0.0067	-0.0248	40.7
-0.0015	-0.0346	0.006	-0.0346	40.8
-0.0015	-0.0218	0.0052	-0.0443	40.9
-0.0008	-0.0053	0.0015	-0.0405	40.9
-0.0015	0.009	-0.0023	-0.0443	41
-0.0015	0.0322	-0.0053	-0.0428	41.1
-0.0015	0.0375	-0.006	-0.0143	41.2
-0.0015	0.0315	-0.0068	0.003	41.3
-0.0015	0.024	-0.0091	-0.0008	41.4
0.0007	0.0142	-0.0068	-0.0083	41.4
0.0015	0.0195	-0.0068	0.0082	41.5
0.0007	0.0217	-0.0075	0.048	41.6
-0.0008	0.012	-0.0038	0.0645	41.7
-0.0008	-0.0015	0	0.039	41.8
0.003	-0.0181	0.009	0.021	41.9
0.0045	-0.015	0.012	0.0157	42
-0.0015	-0.0046	0.0052	-0.0128	42.1
-0.003	0.0127	0.0015	-0.0278	42.2
-0.0038	0.0435	0.0022	-0.0368	42.3
-0.0038	0.0345	0.006	-0.024	42.3
-0.0015	-0.012	0.009	0.012	42.4
-0.0008	-0.0203	0.0075	0.0112	42.5
0	-0.0293	0.003	0.0022	42.6
0.0007	-0.0436	0	0.018	42.7
0.0015	-0.0263	-0.0053	0.042	42.8
0.0007	-0.0105	-0.0091	0.0517	42.9
0.0007	-0.0098	-0.0068	0.0202	43
0.003	-0.0233	-0.0015	-0.0091	43.1
0.0045	-0.024	0.0037	-0.0263	43.2
0.0045	-0.027	0.0037	-0.0383	43.3
0.0037	-0.0263	-0.003	-0.0458	43.4
0.0022	-0.0105	-0.0046	-0.0533	43.5
0.0015	0.003	-0.0038	-0.0195	43.6
0.0007	0.015	0	0.0082	43.6
-0.0008	0.0217	0	0.012	43.7
-0.0015	0.0427	0.0015	0.0075	43.8
-0.003	0.057	0.0037	-0.003	43.9
-0.003	0.0457	-0.0015	0.0037	44
0.0007	0.0187	-0.0008	-0.0046	44.1
0.0015	0	-0.0008	0	44.2
0.0007	-0.015	-0.0015	0.0127	44.3
0.0015	-0.0203	-0.0023	0.027	44.4
0.0015	-0.0015	-0.006	0.0435	44.5
0.003	-0.0083	-0.0053	0.0232	44.6
0.0007	-0.0285	-0.0053	0.0075	44.7
-0.0015	-0.0315	-0.003	0.0067	44.8
-0.0023	-0.0203	-0.0015	-0.0038	44.9
-0.003	-0.0091	-0.0023	-0.0068	45
-0.003	-0.006	-0.003	-0.0015	45.1
-0.0015	-0.0015	-0.003	0.0007	45.2
0.0007	0.0007	-0.0015	-0.0315	45.3
0.0022	0.0067	-0.0023	-0.0548	45.4
0.0015	0.0187	-0.0015	-0.0346	45.5
0.0007	0.03	0	-0.0308	45.6
-0.0015	0.0345	0.0015	-0.0353	45.7
0.0015	0.0232	0.0052	-0.0488	45.8
0.003	0.015	0.003	-0.0645	45.9
0.0052	0.0202	0.0022	-0.0383	45.9
0.009	0.0232	-0.0015	-0.0053	46
0.0075	0.0142	-0.0053	0.0285	46.2
0.006	-0.0008	-0.0053	0.054	46.3
0.0007	0.0007	-0.0068	0.0645	46.3
-0.003	0.0045	-0.0008	0.0765	46.4
-0.0046	0.0052	-0.0008	0.0885	46.5
-0.0053	0.0015	-0.0015	0.099	46.6
-0.0068	-0.0113	0.0037	0.0712	46.8
-0.0091	-0.024	0.0067	0.0232	46.8
-0.0053	-0.0398	0.0082	-0.0368	46.9
-0.0008	-0.045	0.0082	-0.0848	47
0.0007	-0.057	0.0097	-0.0653	47.1
0.0015	-0.0593	0.0075	-0.0188	47.2
-0.0015	-0.024	0.003	0.024	47.3
-0.0008	-0.0083	-0.003	0.048	47.4
0	-0.0105	-0.0053	-0.0023	47.5
0.0015	0.0015	-0.003	-0.0533	47.6
0.0045	0.0082	-0.0053	-0.0578	47.7
0.0045	0.0105	-0.0053	-0.0525	47.8
0.003	0.0217	-0.0046	-0.0218	47.9
0.0015	0.033	-0.003	-0.0091	48
0.0015	0.033	-0.0015	0.009	48.1
0.003	0.0277	-0.0023	0.036	48.2
0.0022	0.0292	0.0007	0.0585	48.3
0.0015	0.0277	-0.0008	0.0817	48.4
-0.0015	0.021	0	0.0382	48.5
-0.0008	0.0015	0.006	-0.0091	48.6
0.0007	-0.0188	0.0067	-0.0346	48.6
-0.0008	-0.0263	0.0067	-0.0578	48.7
-0.003	-0.0263	0.006	-0.063	48.8
-0.0015	0.0007	0.006	-0.0578	48.9
-0.0008	0.03	0.0015	-0.0465	49
0.0007	0.0307	-0.0015	-0.0315	49.1
0.0022	0.0052	-0.0053	-0.003	49.2
0.0022	-0.0083	-0.0083	0.0105	49.3
0.0007	-0.0038	-0.0083	0.033	49.4
-0.0008	-0.0098	-0.0053	0.057	49.5
-0.0008	-0.0113	0.003	0.0307	49.6
-0.0008	-0.0203	0.0037	-0.0068	49.7
-0.0008	-0.0256	0.0007	-0.0383	49.8
-0.0015	-0.0181	-0.0008	-0.0465	49.9
-0.0046	-0.0195	-0.003	-0.0443	49.9
-0.003	-0.0083	0.0007	-0.042	50.1
-0.0008	-0.0023	0.003	-0.0225	50.2
0.0007	-0.0143	0.0067	-0.0038	50.3
0.003	-0.0233	0.0052	0.027	50.4
0.0022	-0.0293	0.0022	0.054	50.4
0.0022	-0.0436	0.0022	0.0502	50.5
0.003	-0.0578	-0.0023	0.0405	50.6
0	-0.033	-0.003	0.0427	50.7
-0.0008	0.0082	-0.0046	0.039	50.8
-0.0015	0.0195	-0.0091	0.0382	50.9
-0.0008	0.0352	-0.0075	0.0457	51
0.0007	0.0615	-0.0053	0.0405	51.1
0.0007	0.0757	0	0.0352	51.2
0.0022	0.0667	0.0045	0.0645	51.3
0.0015	0.039	0.0075	0.078	51.4
0.0015	0.0555	0.012	0.0457	51.5
0.003	0.048	0.012	0.0292	51.6
0.003	-0.0158	0.0052	-0.006	51.7
-0.0008	-0.0353	0.003	-0.033	51.7
-0.003	-0.0405	0.0037	-0.0278	51.8
-0.0023	-0.0203	0.003	-0.0503	51.9
0.0007	0.0007	0.0007	-0.0706	52
0.0022	-0.0158	-0.0023	-0.0953	52.1
0.0037	-0.0038	-0.0053	-0.1178	52.2
0.0052	0.015	-0.0091	-0.129	52.3
0.0052	0.0345	-0.0128	-0.1148	52.4
0.0022	0.045	-0.0143	-0.0773	52.5
0.0007	0.0292	-0.012	-0.0563	52.6
-0.0015	0.0157	-0.0023	-0.0256	52.7
0.0007	0.0322	0.0052	0.0037	52.8
0.0015	0.0675	0.0067	0.0382	52.9
-0.0008	0.0382	0.0045	0.078	53
-0.0023	-0.0293	0.0037	0.1057	53.1
-0.0015	-0.0691	0.003	0.1162	53.1
-0.0015	-0.1043	0.0052	0.1042	53.2
-0.0015	-0.1103	0.0067	0.0862	53.3
-0.003	-0.1073	0.006	0.0562	53.4
-0.0046	-0.0983	0.0037	0.018	53.5
-0.0046	-0.0615	-0.0015	-0.0495	53.6
-0.0023	-0.0225	-0.0053	-0.1163	53.7
0	0.0172	-0.0068	-0.1305	53.8
0.0015	0.0412	-0.0143	-0.1305	53.8
0.0052	0.0555	-0.0195	-0.0825	53.9
0.0067	0.0532	-0.0181	0.0255	54
0.0052	0.0465	-0.012	0.0825	54.1
0.003	0.0352	-0.0038	0.0705	54.2
0.0052	0.0307	0.0015	0.0562	54.3
0.0067	0.0495	0.0067	0.0457	54.4
0.0067	0.0412	0.0112	0.0397	54.4
0.0052	0.0277	0.0067	0.0532	54.5
0.0022	-0.0091	0.0015	0.0555	54.6
-0.0008	-0.0323	-0.0008	0.039	54.7
-0.0015	-0.024	0.0015	0.0082	54.8
-0.0015	-0.0173	0.009	-0.0165	54.9
0.0007	0.0015	0.0067	-0.0083	54.9
0.0015	-0.003	0.0037	0.0277	55
-0.0008	0.0052	0.0015	0.0525	55.1
-0.0008	0.009	-0.0046	0.042	55.2
-0.003	0.006	-0.0105	0.021	55.3
0	0.009	-0.0098	-0.0113	55.4
0.0015	-0.0068	-0.0053	-0.0428	55.5
0.0022	-0.015	-0.0015	-0.042	55.6
0.0022	-0.0263	0.0007	-0.048	55.7
-0.0008	-0.0293	0.0022	-0.0743	55.8
0.0007	-0.0293	0.006	-0.0998	55.8
0.0007	-0.0135	0.0082	-0.1238	55.9
0.0015	0.0195	0.0082	-0.123	56
0.0022	0.0292	0.0067	-0.0975	56.1
0.0015	0.0285	0.0052	-0.0615	56.2
-0.0023	0.0262	0.0067	-0.0091	56.2
-0.0053	0.0247	0.0052	0.0427	56.3
-0.0038	0.0382	0.006	0.102	56.4
-0.0046	0.0315	0.0045	0.114	56.5
-0.003	0.0112	0.0007	0.0967	56.6
-0.0046	-0.0233	-0.0015	0.0975	56.7
-0.0068	-0.0758	-0.0023	0.0855	56.8
-0.0046	-0.099	0.0015	0.078	56.9
-0.003	-0.0743	0.003	0.0607	57
-0.0008	-0.0263	0.0045	0.024	57.1
0.0007	-0.0383	0.0045	-0.006	57.1
0	-0.0443	0	-0.048	57.2
0.0007	-0.012	-0.0015	-0.0938	57.3
0.0007	-0.0053	-0.003	-0.1275	57.4
0.003	0.0457	-0.0046	-0.1275	57.5
0.0015	0.0915	-0.0068	-0.078	57.6
0.0007	0.0637	-0.0068	-0.078	57.7
0.0007	0.0082	0.0007	-0.1043	57.8
0.0015	0.012	0.0067	-0.0825	57.9
0.0045	0.045	0.0067	-0.0825	58
0.0052	0.039	0.0022	-0.0585	58.1
0.003	0.0277	-0.0046	-0.0143	58.2
-0.0008	0.0082	-0.0075	0.0292	58.3
0.0007	0.0142	-0.0068	0.0967	58.4
0.0015	0.0637	-0.0053	0.144	58.5
-0.0008	0.165	0.0007	0.1732	58.5
0	0.1612	0.003	0.1867	58.6
0.0022	0.018	0.0045	0.1785	58.7
0.0037	-0.045	0.0082	0.1305	58.8
0.0007	-0.1065	0.006	0.1042	58.9
-0.0015	-0.135	0.0022	0.1297	59
-0.0046	-0.1043	-0.003	0.1477	59.1
-0.0068	-0.1043	-0.003	0.1387	59.2
-0.0083	-0.0878	0.0015	0.078	59.3
-0.0046	-0.0938	0.006	0.0127	59.4
-0.0023	-0.0833	0.0082	-0.0195	59.5
-0.0008	-0.0593	0	-0.0458	59.6
0.0007	-0.039	-0.006	-0.0735	59.7
0.0015	-0.0173	-0.0098	-0.1021	59.8
0.0015	0.0052	-0.0135	-0.12	59.8
0.003	0.0382	-0.015	-0.1418	59.9
0.0045	0.0217	-0.0135	-0.159	60.1
0.003	0.012	-0.0075	-0.1793	60.2
0.0015	0.0247	-0.0053	-0.2048	60.3
0.003	0.03	-0.006	-0.2026	60.3
0.0052	0.0405	-0.0053	-0.1935	60.4
0.0045	0.039	-0.0015	-0.168	60.5
0.0037	0.051	0	-0.1073	60.6
0.0067	0.0742	0.0007	-0.0383	60.7
0.0067	0.0825	0.0037	0.0352	60.8
0.003	0.066	0.0075	0.096	60.9
0.0007	0.0345	0.0067	0.1207	61
-0.0038	0.0052	0.003	0.1335	61.1
-0.006	-0.0098	0.0007	0.144	61.2
-0.0083	-0.0113	0	0.1537	61.2
-0.0053	-0.0195	-0.0038	0.1635	61.3
-0.0038	-0.0218	-0.0038	0.159	61.5
-0.0023	-0.0383	-0.0008	0.1402	61.6
0.0007	-0.0691	0.0007	0.108	61.6
0.0022	-0.0691	0.0037	0.0787	61.7
0.0022	-0.0533	0.0015	0.0412	61.8
0.0022	-0.0353	0.0007	-0.0105	61.9
0.0015	-0.0225	0.0015	-0.0511	62
0	-0.0105	0.0007	-0.0945	62.1
-0.0015	0.0015	0.0022	-0.1163	62.2
0	0.0165	0.0015	-0.1088	62.3
-0.0008	0.0352	0.0037	-0.0908	62.4
-0.0023	0.039	0.0052	-0.0668	62.5
-0.0008	0.0427	0.0037	-0.0773	62.5
0.0015	0.048	0.003	-0.096	62.6
0.0015	0.0397	-0.0008	-0.09	62.7
0.0007	0.03	-0.0046	-0.075	62.8
0.0007	0.0157	-0.0068	-0.0503	62.9
0.003	0.0067	-0.0068	-0.0083	63
0.0052	0.009	-0.0053	0.0285	63.1
0.0045	0.0052	-0.003	0.0202	63.2
0.0015	-0.0046	-0.0008	0.0247	63.3
0.0007	-0.0068	0.0007	0.0457	63.4
-0.0008	0.0037	0.0045	0.0405	63.5
-0.0038	0.0082	0.0075	0.0405	63.6
-0.0038	-0.0038	0.0082	0.0397	63.7
-0.0038	-0.0143	0.0045	0.0525	63.8
-0.0023	-0.0165	0.003	0.0577	63.9
-0.0015	-0.0143	0.0052	0.018	63.9
-0.0015	-0.0075	0.0052	-0.027	64
0	-0.0015	0.0037	-0.048	64.1
-0.0023	-0.0046	0.0015	-0.0533	64.2
0.0007	-0.0008	0	-0.0735	64.3
0.003	0.009	-0.0015	-0.0938	64.4
0.003	0.012	-0.0068	-0.084	64.5
0.0045	0.0202	-0.0143	-0.0398	64.6
0.0015	0.0577	-0.0143	-0.0158	64.7
0.0022	0.0915	-0.0105	-0.048	64.8
0.003	0.075	-0.006	-0.0773	64.9
0.0045	0.0495	0.0015	-0.0668	65
0.0015	0.0292	0.0082	-0.0181	65.1
-0.0015	-0.0083	0.012	0.0037	65.2
-0.0008	-0.0218	0.0135	0.0532	65.3
0	-0.0046	0.009	0.1537	65.4
0.0007	-0.0555	0.006	0.1897	65.5
-0.0046	-0.0968	0.0052	0.231	65.7
-0.0068	-0.0945	0.009	0.2557	65.7
-0.003	-0.1103	0.0105	0.2512	65.8
-0.0023	-0.1043	0.0075	0.2505	65.9
-0.0008	-0.114	0.0052	0.186	66.1
0.0007	-0.108	-0.0015	0.1027	66.1
-0.0008	-0.096	-0.0068	0.0315	66.2
0.0015	-0.066	-0.0091	-0.0173	66.3
0.0007	-0.0315	-0.0098	-0.0623	66.4
0.0007	-0.033	-0.0091	-0.1268	66.5
-0.0008	-0.0105	-0.0068	-0.1823	66.6
0.0007	0.0202	-0.0038	-0.2026	66.7
0	0.063	-0.0091	-0.1958	66.8
0	0.0885	-0.0098	-0.195	66.9
0.0022	0.0975	-0.0068	-0.1845	67
0.0015	0.12	0.0007	-0.1493	67.1
0.006	0.1402	0.0142	-0.09	67.2
0.003	0.1027	0.0135	-0.054	67.3
0.003	0.024	0.0052	-0.0436	67.4
0.0067	0.0135	-0.0046	-0.0315	67.5
0.0045	0.0292	-0.012	-0.0105	67.6
0.003	0.0217	-0.0218	0.0127	67.7
0.0105	0.015	-0.0361	0.024	67.8
0.0127	-0.0195	-0.0225	0.0337	67.9
0.0037	-0.057	-0.0068	0.051	68
0.0007	-0.03	-0.0083	0.0592	68.1
-0.0008	0.0015	0	0.0405	68.2
-0.0008	-0.0143	-0.0098	0.0315	68.3
0.003	-0.048	-0.0046	0.057	68.4
-0.0008	-0.0518	0.0127	0.0975	68.5
-0.003	-0.0555	0.0127	0.129	68.6
-0.0075	-0.0848	0.018	0.1432	68.7
-0.0083	-0.054	0.015	0.1312	68.8
-0.0068	-0.0195	0.0127	0.0742	68.9
-0.0038	-0.0323	0.0112	-0.0046	69
0.0015	0.0097	0.0045	-0.093	69.1
0.003	0.072	0.0052	-0.1441	69.3
0.0037	0.0945	0.0105	-0.1313	69.3
0.0052	0.1432	0	-0.1268	69.4
0.0082	0.174	-0.0053	-0.1268	69.6
0.009	0.204	-0.0053	-0.1148	69.7
0.0067	0.1845	-0.0105	-0.1013	69.7
0.003	0.1192	-0.0053	-0.0706	69.9
-0.0046	0.1117	-0.003	-0.0203	70
-0.0046	0.0637	0.0007	0.0285	70.1
-0.003	-0.0278	0.0022	0.0225	70.2
-0.003	-0.1426	0.0045	0.0495	70.3
-0.0046	-0.2041	0.0105	0.1357	70.4
-0.0053	-0.18	0.0157	0.177	70.5
-0.0023	-0.1658	0.0157	0.2025	70.6
-0.003	-0.1785	0.012	0.1972	70.7
-0.0068	-0.198	0.0067	0.1777	70.8
-0.0053	-0.135	0.0045	0.177	70.9
-0.003	-0.0863	-0.003	0.1395	71
0.0022	-0.096	-0.0128	0.069	71.1
0.0045	-0.0443	-0.0143	-0.0075	71.2
0.0015	-0.0008	-0.0075	-0.06	71.3
-0.0015	0.0202	0.0007	-0.0706	71.4
-0.0038	0.0682	-0.0023	-0.0706	71.5
-0.0038	0.0907	-0.0091	-0.096	71.6
-0.0023	0.0795	-0.0083	-0.1118	71.7
-0.003	0.0547	-0.0083	-0.096	71.9
0	0.039	-0.0128	-0.09	72
-0.0008	0.0345	-0.0091	-0.1035	72
-0.0015	0.0397	-0.0091	-0.1193	72.1
0.003	0.0457	-0.0105	-0.1193	72.3
0.003	0.039	0.0045	-0.123	72.4
0.0007	0.0315	0.0187	-0.1381	72.4
-0.0015	0.0187	0.0165	-0.1523	72.6
0.003	0.0262	0.0105	-0.1643	72.7
-0.0008	0.042	0.018	-0.1515	72.8
0.0015	0.048	-0.0053	-0.09	72.9
0.0127	0.036	-0.0256	-0.0218	73
0.009	0.021	-0.0135	0.0405	73.1
0.0052	0.0307	-0.0053	0.1192	73.2
-0.003	0.018	0	0.1515	73.3
-0.0046	0.0127	-0.0083	0.1672	73.4
-0.003	0.0442	-0.003	0.2025	73.5
-0.0091	0.0375	0.0097	0.2085	73.6
-0.0091	-0.0113	0.0105	0.1927	73.7
-0.006	-0.0878	0.006	0.1507	73.8
-0.0038	-0.1388	0.0157	0.1065	73.9
-0.0038	-0.1163	0.0255	0.048	74
-0.0008	-0.078	0.0202	-0.0038	74.1
-0.0015	-0.0346	0.027	-0.0308	74.2
-0.0038	-0.0158	0.0202	-0.0653	74.3
0.0007	-0.0053	0.003	-0.0623	74.4
0.0045	0.012	-0.0105	-0.0405	74.5
0.0082	0.021	-0.0143	-0.0405	74.6
0.0045	0.03	-0.0023	-0.0923	74.7
0.0022	0.0307	-0.0068	-0.1441	74.8
0.0082	0.039	-0.0113	-0.1523	74.9
0.0082	0.0255	-0.0083	-0.189	75
0.003	0.0097	-0.003	-0.192	75.1
-0.0015	0.0127	-0.0015	-0.1388	75.2
-0.0008	0.0255	-0.0091	-0.0983	75.3
-0.0008	0.0322	-0.003	-0.033	75.4
-0.0015	0.0555	-0.0015	0.0517	75.5
-0.003	0.0532	-0.003	0.1012	75.6
-0.003	-0.006	0.0067	0.138	75.6
-0.003	-0.0218	-0.003	0.1875	75.7
0.0022	-0.0278	-0.0105	0.2002	75.9
0.003	-0.042	-0.0091	0.153	76
0.0007	-0.0623	-0.0143	0.09	76
0.003	-0.1035	-0.0038	0.0555	76.1
0.0015	-0.0308	0.0067	0.0502	76.2
-0.0008	0.1155	0.0127	0.0292	76.3
-0.0008	0.1215	0.0052	-0.0338	76.4
0.0022	0.0757	-0.0038	-0.0818	76.5
0.006	0.0862	-0.0015	-0.0968	76.6
0.0045	0.0015	-0.0015	-0.108	76.7
-0.0015	-0.0645	0.0067	-0.0856	76.8
-0.003	-0.063	0.006	-0.033	76.9
0	-0.0728	0.003	0.0472	76.9
-0.0015	-0.0458	0.0052	0.1117	77
-0.0046	-0.042	0.0045	0.1417	77.1
-0.003	-0.042	0.0015	0.159	77.2
-0.0008	-0.0495	-0.0023	0.126	77.3
0	-0.0735	-0.003	0.1027	77.3
0.0007	-0.0653	-0.003	0.0907	77.4
0.0007	-0.0308	-0.003	0.0577	77.5
0.0067	-0.0068	-0.0158	-0.0015	77.6
0.0135	-0.0105	-0.024	-0.0683	77.7
0.0157	0.003	-0.0203	-0.0833	77.8
0.0082	0.003	-0.0143	-0.1065	77.9
0.0007	0	-0.0128	-0.1523	78
0.003	0.0232	-0.0135	-0.183	78.1
0.003	0.0532	-0.003	-0.1875	78.2
0.0022	0.0622	0.0045	-0.2048	78.3
0.0007	0.0322	0.0105	-0.2385	78.3
-0.003	0.0165	0.0142	-0.231	78.4
-0.003	0.0442	0.0022	-0.1905	78.5
0.0015	0.1087	0.0037	-0.0953	78.6
0.0037	0.1267	0.0075	0.0067	78.7
0.0037	0.0832	-0.0015	0.036	78.7
0.0052	0.0352	0.0007	0.093	78.8
0	-0.0158	0.0067	0.186	78.9
-0.0046	-0.0105	0.0105	0.2625	79
-0.0083	-0.024	0.0082	0.3112	79.1
-0.006	-0.0765	-0.0008	0.2827	79.2
-0.003	-0.1035	-0.0046	0.2572	79.2
-0.0015	-0.1088	-0.0091	0.2332	79.3
0.0015	-0.0691	0.0007	0.1905	79.4
-0.0015	-0.06	-0.0008	0.1725	79.5
0	-0.075	0.0007	0.1125	79.6
-0.003	-0.0398	0.0127	0.024	79.6
-0.0038	0.018	0.0172	-0.0488	79.7
-0.0046	0.0555	0.0262	-0.1118	79.8
-0.003	0.0315	0.0142	-0.1553	79.9
0.0007	0.0067	0.0037	-0.1515	80
-0.0046	0.042	0.006	-0.1208	80.1
-0.0068	0.081	0.006	-0.0908	80.1
-0.003	0.024	0.0007	-0.0818	80.2
0.0037	-0.0465	-0.0091	-0.0938	80.3
0.0045	-0.0368	-0.003	-0.0975	80.4
0.0007	-0.0315	-0.006	-0.1268	80.4
0.0067	-0.0203	-0.0143	-0.1613	80.5
0.009	-0.0165	-0.012	-0.198	80.6
0.0067	-0.0053	-0.0098	-0.3015	80.6
0.0045	0.0435	-0.0015	-0.3795	80.7
-0.0008	0.102	-0.0038	-0.3473	80.8
-0.0015	0.1837	-0.0046	-0.267	80.9
-0.0015	0.1875	-0.003	-0.1741	81
0.0015	0.1155	-0.0165	-0.1305	81
0.0045	0.108	-0.003	-0.048	81.1
0.0007	0.084	0.0157	0.1417	81.2
-0.003	0.009	0.0195	0.3022	81.3
-0.0083	-0.0488	0.0165	0.5115	81.4
-0.0113	-0.1088	0.0015	0.6472	81.4
-0.0113	-0.1365	0.0067	0.6412	81.5
-0.0105	-0.1905	0.0082	0.603	81.6
-0.003	-0.2235	-0.0046	0.4702	81.7
0.0082	-0.1823	-0.0218	0.3427	81.7
0.0172	-0.135	-0.0338	0.2025	81.8
0.0172	-0.0856	-0.0233	0.042	81.9
0.0075	-0.0518	-0.0075	-0.063	81.9
0.0007	0.009	0.0007	-0.1388	82
-0.0023	0.042	-0.0008	-0.1793	82.1
-0.006	0.054	0.0052	-0.1928	82.2
-0.006	0.0892	0.0082	-0.189	82.3
-0.006	0.0652	0.0075	-0.192	82.3
-0.0083	0.006	0.0075	-0.195	82.4
-0.0015	-0.0188	-0.0046	-0.1905	82.5
0.0015	-0.0165	0.0052	-0.1965	82.6
-0.0015	-0.012	0.0052	-0.213	82.7
0.0037	-0.0046	-0.015	-0.231	82.7
0.0052	0.0067	-0.0181	-0.261	82.8
0.0022	0.0525	-0.0053	-0.2955	82.8
-0.0008	0.138	0.0015	-0.2798	82.9
-0.0053	0.1665	0.0052	-0.2318	83
-0.0046	0.108	0.0052	-0.195	83.1
0.0007	0.0675	-0.0038	-0.1238	83.2
-0.0008	0.0127	-0.0008	-0.0308	83.2
-0.0023	0.0052	-0.003	0.0682	83.2
0.0045	0.0832	-0.012	0.1605	83.3
0.0037	0.012	0.0007	0.1965	83.4
-0.0038	-0.054	0.0135	0.2227	83.5
-0.0046	-0.0008	0.0172	0.2332	83.5
-0.0038	0.0015	0.0247	0.2625	83.6
-0.0053	-0.054	0.0157	0.3007	83.7
-0.0008	-0.123	0.0075	0.2707	83.7
0	-0.129	0.0112	0.2595	83.8
-0.0015	-0.1028	0.0105	0.2227	83.9
0.0007	-0.0691	0.0105	0.147	83.9
0.0045	-0.0428	-0.0015	0.0577	84
0.0075	-0.0353	-0.0083	-0.0353	84.1
0.0052	0	-0.0068	-0.1223	84.1
0.0045	0.0315	-0.0105	-0.216	84.2
0.009	0.051	-0.021	-0.219	84.3
0.009	0.0232	-0.0346	-0.219	84.3
0.0135	-0.0233	-0.042	-0.216	84.4
0.0165	0.0007	-0.0338	-0.1328	84.5
0.0097	0.108	-0.0015	-0.0735	84.5
-0.0023	0.1515	0.021	-0.0443	84.6
-0.0068	0.0765	0.0045	-0.0278	84.6
-0.0015	-0.0038	-0.0181	-0.027	84.7
-0.003	-0.0871	-0.0083	-0.0315	84.8
-0.0105	-0.0908	0.012	0.036	84.8
-0.0098	-0.0436	0.0195	0.1267	84.9
-0.0083	-0.0608	0.0217	0.15	85
-0.0023	-0.0593	0.0067	0.135	85
0.0052	-0.042	0.0052	0.1005	85.1
0.003	-0.0293	0.0007	0.0682	85.1
0.0045	0.0037	-0.0083	0.0022	85.2
0.003	0.021	0.006	-0.033	85.3
-0.003	0.06	0.0157	-0.0548	85.4
-0.0068	0.0967	0.0217	-0.0968	85.4
-0.0083	0.0742	0.015	-0.1448	85.5
-0.0046	0.0532	0.0105	-0.1973	85.5
-0.0046	0.0907	0.021	-0.1815	85.6
-0.0046	0.0892	0.018	-0.1748	85.7
0.0015	0.0517	0.0045	-0.1373	85.7
0.0082	0.0577	-0.0143	-0.027	85.8
0.012	0.1087	-0.0173	0.0877	85.9
0.0067	0.1462	-0.012	0.1312	85.9
0.0015	-0.0173	-0.0225	0.108	86
-0.0008	-0.195	-0.033	0.1477	86
-0.0008	-0.2483	-0.03	0.225	86.1
0.0015	-0.2513	-0.0113	0.2782	86.2
0.0045	-0.1665	-0.0091	0.2602	86.2
0.0075	-0.1245	0.0067	0.1747	86.3
0.0007	-0.075	0.024	0.0495	86.3
-0.0038	0.0262	0.0232	-0.0023	86.4
-0.0105	0.0967	0.033	-0.0105	86.5
-0.0165	0.0877	0.0352	-0.039	86.5
-0.0143	0.0457	0.0217	0.0157	86.6
-0.006	0.03	-0.0135	0.0232	86.7
0.0067	0.006	-0.039	-0.0263	86.7
0.0112	0.0022	-0.027	-0.0525	86.8
0.0052	0.0045	-0.0188	-0.0405	86.8
0.0112	-0.0015	-0.033	-0.0353	86.9
0.0135	-0.0368	-0.0128	-0.0675	87
0.0022	-0.0645	0.0097	-0.0825	87
0.0015	-0.054	0.009	-0.1605	87.1
-0.0008	-0.0413	0.0127	-0.2385	87.2
0.0015	-0.027	-0.0053	-0.2738	87.3
0.0082	0.0007	-0.0053	-0.264	87.3
0.003	0.066	0.018	-0.2475	87.3
-0.0068	0.1762	0.042	-0.2565	87.4
-0.0105	0.2197	0.0352	-0.1688	87.5
-0.0038	0.1687	0.006	-0.0608	87.6
-0.003	0.2025	-0.0053	0.0135	87.6
-0.0015	0.183	-0.0083	0.0645	87.7
0.0052	0.069	-0.0068	0.1192	87.7
0.003	-0.0188	-0.0008	0.255	87.8
-0.0023	-0.1298	0.0112	0.348	87.9
-0.0053	-0.2138	0.018	0.4042	87.9
-0.0046	-0.2175	0.0082	0.4207	88
0.003	-0.126	-0.0015	0.3322	88.1
0.0052	-0.0495	0.0082	0.2572	88.2
-0.0023	-0.003	0.0195	0.1245	88.2
-0.0075	0.0067	0.0105	-0.0181	88.3
-0.006	-0.0105	0.0007	-0.0893	88.4
-0.0075	0.0052	-0.0038	-0.1238	88.4
-0.006	-0.0195	-0.0195	-0.0728	88.5
0.0037	-0.0181	-0.033	-0.0346	88.6
0.0045	0.009	-0.0181	-0.0346	88.6
0.003	0.0052	-0.0083	-0.0353	88.7
0.0075	-0.003	-0.006	-0.0023	88.8
0.0045	-0.0143	-0.0023	0.024	88.9
0.0022	-0.0181	0.0045	0.0157	88.9
-0.0053	-0.0413	0.0165	0.0165	89
-0.0068	-0.057	0.0127	-0.0128	89.1
-0.0023	-0.081	0.0105	-0.057	89.1
-0.0038	-0.0893	-0.0046	-0.1426	89.2
0.006	-0.0773	-0.0203	-0.2138	89.3
0.0097	-0.0773	-0.0135	-0.2438	89.4
0.006	-0.0233	-0.0083	-0.2903	89.5
0.0052	0.123	-0.006	-0.3143	89.5
0.0075	0.246	-0.0083	-0.3008	89.6
0.0105	0.2085	-0.0143	-0.2138	89.6
0.0127	0.189	-0.015	-0.0975	89.7
0.0127	0.171	-0.0083	-0.042	89.8
0.0045	0.0862	0.0007	0.0232	89.9
-0.0075	0.0247	0.0127	0.144	89.9
-0.0143	-0.105	0.0105	0.2325	90
-0.0143	-0.1808	0.0112	0.2797	90.1
-0.015	-0.1253	0.0262	0.348	90.1
-0.0098	-0.0361	0.0082	0.3877	90.2
-0.003	-0.0495	-0.0046	0.342	90.3
-0.0015	-0.0765	-0.0075	0.261	90.4
0.003	-0.0443	-0.0128	0.1095	90.4
0.0045	-0.0405	-0.0053	-0.0091	90.5
0.0045	-0.0181	-0.0038	0.0037	90.5
0.0022	-0.0218	0.0045	-0.021	90.6
-0.0023	-0.0023	0.0067	-0.0615	90.7
-0.003	0.003	0	-0.1133	90.8
-0.0023	-0.0233	-0.0046	-0.1598	90.8
-0.003	-0.0368	-0.0046	-0.2228	90.9
-0.0015	-0.0248	0.0015	-0.2843	91
0.003	0.0375	0.0045	-0.2761	91
0.0045	0.0307	0.0097	-0.3098	91.1
-0.0015	0.045	0.0202	-0.3045	91.2
-0.003	0.0952	0.0127	-0.225	91.2
0.0045	0.1177	0.0007	-0.1163	91.3
0.0082	0.1995	-0.0068	-0.03	91.4
0.0067	0.174	-0.0083	0.105	91.4
0.0007	0.0082	-0.0053	0.2535	91.5
-0.0015	-0.0758	-0.0203	0.2872	91.6
0.003	-0.0825	-0.0203	0.3675	91.7
0.0045	-0.0165	-0.0158	0.3405	91.7
0.0067	0.0427	-0.0203	0.1852	91.8
0.0082	-0.033	-0.0181	0.1102	91.8
0.0067	-0.0968	-0.0165	0.0772	91.9
0.0015	-0.1223	-0.0098	0.0855	92
-0.0046	-0.135	-0.0083	0.0607	92.1
-0.006	-0.1006	-0.0008	0.0075	92.1
-0.0053	-0.0293	0.0097	-0.0608	92.2
-0.0023	0.063	0.0157	-0.1328	92.2
-0.0008	0.0855	0.0195	-0.1426	92.3
0.0007	0.0975	0.018	-0.1381	92.4
0.0015	0.0982	0.018	-0.1696	92.4
-0.0008	0.0555	0.015	-0.243	92.5
-0.0046	0.033	0.0135	-0.2228	92.6
-0.012	-0.0428	0.0007	-0.0825	92.7
-0.0143	-0.1335	-0.0046	0.1012	92.7
-0.0135	-0.1898	-0.0008	0.267	92.8
-0.0105	-0.1575	0.003	0.2655	92.8
-0.0015	-0.0998	0.009	0.2272	92.9
0.0045	-0.075	0.0007	0.1545	93
0.0052	-0.0256	-0.006	-0.0256	93
0.0037	-0.057	-0.003	-0.1073	93.1
0.0067	-0.0233	0	-0.168	93.1
0.0052	0.0037	0.0007	-0.2813	93.2
0.003	-0.0091	0	-0.3915	93.3
0.003	0.09	-0.0053	-0.4103	93.4
0.0007	0.1695	-0.0105	-0.3383	93.4
-0.0008	0.2655	-0.006	-0.2723	93.5
0.0015	0.3315	0.0045	-0.1448	93.6
0.003	0.2175	0.0142	0.069	93.6
-0.0023	0.042	0.0165	0.3585	93.7
-0.0083	-0.0518	0.0127	0.5685	93.8
-0.0105	-0.1403	0.0052	0.6322	93.9
-0.003	-0.1598	0.0052	0.6195	93.9
0.0067	-0.1133	0.0052	0.525	94
0.0105	-0.084	0.0045	0.4282	94
0.0127	-0.0188	-0.0015	0.2962	94.1
0.0127	0.0247	-0.0091	0.1477	94.2
0.012	0.015	-0.0068	0.0195	94.3
0.0052	-0.0091	-0.0105	-0.114	94.4
0.003	0.0157	-0.0143	-0.1853	94.4
0.0007	0.0217	-0.0128	-0.2475	94.5
-0.0038	-0.0278	-0.0068	-0.2723	94.6
-0.003	-0.0818	-0.003	-0.2528	94.6
-0.0053	-0.1088	0	-0.27	94.7
-0.0075	-0.0653	0.0075	-0.2573	94.8
-0.0038	0.0217	0.0127	-0.231	94.9
-0.0046	0.0555	0.0052	-0.237	94.9
0.0007	0.084	-0.0083	-0.2123	95
0.0082	0.171	-0.0128	-0.1875	95
0.0067	0.1267	-0.015	-0.1808	95.1
0.003	0.0285	-0.0165	-0.1215	95.2
-0.003	-0.0075	-0.0158	-0.0443	95.2
-0.0046	-0.0278	-0.0143	0.0315	95.3
-0.0023	-0.0278	-0.0008	0.1965	95.3
-0.0008	-0.0503	0.0135	0.3112	95.4
0.0007	-0.0518	0.0195	0.21	95.5
0.0022	-0.078	0.0105	0.0952	95.5
0.003	-0.0893	0.006	0.0255	95.6
0.0022	-0.0436	0.0067	0.009	95.7
-0.0015	0.018	0.0045	0.0255	95.8
-0.0046	0.003	0.0045	0.0045	95.8
-0.0053	-0.078	0.0022	0.0007	95.8
-0.0053	-0.0923	0.003	-0.075	95.9
-0.0008	-0.048	0.003	-0.1043	96
0.0007	0.0322	-0.0015	-0.1013	96.1
0.0007	0.0187	-0.003	-0.2213	96.1
0.006	-0.0091	-0.0015	-0.2761	96.2
0.0082	0.1185	-0.0046	-0.222	96.3
0.012	0.2107	-0.0098	-0.12	96.3
0.0052	0.1072	-0.0135	-0.0075	96.3
-0.0053	-0.0015	-0.0181	0.0915	96.4
-0.0053	-0.003	-0.0091	0.1747	96.5
-0.0046	0.0075	-0.0046	0.2445	96.5
-0.0038	0.024	-0.0046	0.264	96.6
-0.0053	-0.0068	-0.003	0.1912	96.7
-0.0083	-0.0885	-0.003	0.1087	96.7
-0.0068	-0.0218	0.0097	0.0667	96.8
0.0037	0.084	0.0202	0.0742	96.8
0.0097	0.0142	0.0217	0.0525	96.9
0.0082	-0.0158	0.0195	0.0457	97
0.0045	0.0277	0.009	0.0495	97
-0.0015	0.0007	0.003	-0.006	97.1
-0.0023	-0.042	-0.0046	-0.006	97.2
0.0007	-0.0623	-0.0083	0.006	97.2
0.003	-0.0488	-0.0068	-0.0068	97.3
0.0022	-0.0405	-0.0075	-0.0691	97.3
0.0052	-0.0503	-0.0068	-0.1381	97.4
0.0052	-0.0585	-0.0083	-0.1696	97.5
0.003	-0.0353	-0.006	-0.2198	97.5
0.0045	0.021	-0.0038	-0.2213	97.6
0.0007	0.0667	-0.0008	-0.1515	97.6
-0.003	0.0765	-0.0008	-0.0548	97.7
-0.003	0.0645	-0.0015	0.0375	97.7
-0.0046	0.057	-0.0008	0.1747	97.8
-0.0068	0.003	0.0007	0.2295	97.9
-0.0075	-0.0375	0.0052	0.1837	97.9
-0.0053	-0.0128	0.0082	0.1747	98
-0.003	-0.054	0.0007	0.1425	98.1
-0.0015	-0.0983	-0.0015	0.1935	98.1
0.0037	-0.042	-0.0008	0.2227	98.1
0.0067	-0.0143	-0.006	0.09	98.2
0.0075	0.0135	-0.0053	0.003	98.3
0.0082	0.084	-0.0046	-0.0691	98.3
0.009	0.1162	-0.0046	-0.1635	98.4
0.006	0.0517	-0.0008	-0.1673	98.5
-0.0008	-0.0218	-0.0023	-0.189	98.5
-0.0038	-0.048	-0.0038	-0.2288	98.5
-0.0053	-0.0878	-0.0015	-0.1305	98.6
-0.0023	-0.003	0.0037	0.0352	98.6
-0.0015	0.0727	0.0067	0.1455	98.7
0.0007	-0.063	0.0112	0.132	98.8
0.0045	-0.1673	0.0127	0.0427	98.8
0.0052	-0.1426	0.0127	-0.0278	98.9
0.0045	-0.1013	0.009	-0.0893	98.9
0.003	-0.027	0.0037	-0.2011	99
0.0067	0.0615	0.0015	-0.3675	99
0.0082	0.1597	-0.0015	-0.3825	99.1
0.0067	0.2655	-0.0053	-0.252	99.1
0.0037	0.294	-0.0105	-0.1711	99.2
-0.0038	0.1177	-0.0143	-0.0825	99.2
-0.012	-0.108	-0.0135	0.186	99.3
-0.015	-0.1095	-0.0038	0.5017	99.3
-0.0083	-0.093	0.009	0.5925	99.4
0.0007	-0.0803	0.018	0.5752	99.4
0.0037	-0.0113	0.018	0.477	99.5
0.0007	-0.0315	0.012	0.2722	99.5
0.0007	-0.0871	0.0082	0.1462	99.6
-0.0008	-0.126	0.0022	0.0067	99.6
-0.003	-0.1268	0.0045	-0.1553	99.7
-0.0015	-0.135	0.0052	-0.1898	99.7
-0.003	-0.0803	0.0007	-0.186	99.8
0.0022	0.0645	-0.0008	-0.2235	99.8
0.0037	0.171	-0.0046	-0.2791	99.8
0.003	0.2602	-0.006	-0.2595	99.9
0.0067	0.2287	-0.0113	-0.177	99.9
0.003	0.0705	-0.0128	-0.1493	100
0.0022	-0.0436	-0.0083	-0.1943	100
0.0045	-0.0668	-0.0053	-0.2153	100.1
0.0045	0.0127	-0.0046	-0.1411	100.1
0.006	-0.0165	-0.0015	-0.1148	100.2
0.0052	-0.0863	0.0015	-0.0495	100.2
-0.0023	-0.0413	-0.003	0.1215	100.3
-0.0083	0.0045	-0.0023	0.1837	100.3
-0.0053	0.0465	0	0.1417	100.3
-0.0068	-0.0436	-0.0008	0.0555	100.4
-0.003	-0.0578	0.0067	0.078	100.4
0.003	0.03	0.0105	0.1455	100.5
0.0045	0.0292	0.0112	0.0697	100.5
0.0052	0.0022	0.009	0.0082	100.6
0.0052	0.003	0.0052	-0.027	100.6
0.0052	0.0742	-0.0008	-0.0555	100.7
0.0045	0.0277	-0.0083	-0.0075	100.7
-0.0008	-0.006	-0.012	0.0487	100.8
-0.003	0.069	-0.0105	0.1515	100.8
-0.0046	0.0555	-0.0098	0.2812	100.8
-0.0113	-0.0375	-0.012	0.2287	100.9
-0.0098	-0.1035	-0.0105	0.1575	100.9
-0.006	-0.0825	-0.003	0.2055	100.9
-0.0015	-0.0368	0.0015	0.2025	101
-0.0023	-0.0195	0.0022	0.1245	101
-0.0023	-0.0623	0.003	0.0007	101.1
0	-0.0706	0.0045	-0.1328	101.1
0	-0.0668	0.0067	-0.1958	101.2
0.003	-0.0803	0.0052	-0.1726	101.2
0.0015	-0.0353	0	-0.1733	101.2
0.0022	0.012	-0.0008	-0.2115	101.3
0.0045	0.0847	-0.0046	-0.2693	101.3
0.003	0.117	-0.0091	-0.2423	101.4
0.0007	0.1042	-0.0053	-0.1238	101.4
-0.0008	0.0937	-0.0023	-0.1058	101.4
-0.003	0.0255	-0.003	-0.0848	101.5
-0.0083	-0.042	-0.0038	0.0037	101.5
-0.0091	-0.0638	-0.0023	0.1042	101.6
-0.0053	-0.0458	0.0015	0.1912	101.6
-0.0015	0.0225	0.0045	0.171	101.7
0.0015	0.0667	0.0067	0.0982	101.7
0.0045	0.0517	0.0105	0.03	101.7
0.003	0.0255	0.009	-0.0008	101.7
0.0015	0.0007	0.0075	0.024	101.8
-0.0008	-0.0195	0.0052	0.021	101.8
-0.0023	-0.0053	-0.0015	0.0067	101.9
0.0015	0.006	-0.0015	-0.012	101.9
-0.0008	-0.0203	-0.003	-0.0503	101.9
-0.003	-0.048	-0.006	-0.0308	102
-0.003	-0.0338	-0.003	0.0285	102
-0.003	-0.0068	-0.0038	0.0442	102.1
0	-0.0105	0.0007	0.0345	102.1
0.0007	-0.0158	0.003	0.0255	102.1
0.0015	-0.0225	0.0052	-0.0038	102.1
0.003	-0.0188	0.006	-0.021	102.1
0.0045	-0.03	0.0015	-0.0293	102.2
0.003	-0.078	0.0007	-0.0893	102.2
0.0045	-0.0968	0.003	-0.1515	102.2
0.0045	-0.0713	0.0052	-0.1635	102.3
0.0045	0.0202	0.009	-0.1748	102.3
0.0075	0.1177	0.009	-0.2115	102.3
0.0037	0.129	0.003	-0.219	102.4
0.0007	0.1185	0.0015	-0.1553	102.4
-0.0038	0.1102	-0.0023	-0.0405	102.4
-0.0105	0.0502	-0.0046	0.0682	102.4
-0.012	0.012	-0.0023	0.114	102.5
-0.006	-0.0143	-0.0046	0.174	102.5
-0.0008	-0.066	-0.0008	0.318	102.5
0.0037	-0.0871	0.0045	0.3945	102.6
0.0082	-0.0818	0.0067	0.369	102.6
0.0052	-0.075	0.0052	0.3127	102.6
0.0037	-0.078	-0.0008	0.1672	102.6
0.003	-0.0458	0.0022	0.0097	102.6
0.003	-0.033	0.0022	-0.1253	102.6
0.006	-0.027	-0.0015	-0.2813	102.7
0.0022	0.0345	-0.0068	-0.3308	102.7
0.0007	0.0532	-0.0068	-0.27	102.7
-0.0023	0.0712	-0.0038	-0.2108	102.7
-0.0053	0.072	-0.0008	-0.0691	102.7
-0.0068	-0.015	0	0.0997	102.8
-0.0105	-0.054	-0.0046	0.1267	102.8
-0.0105	-0.054	-0.003	0.1635	102.8
-0.003	-0.0473	-0.0046	0.2025	102.8
0.0052	0.045	-0.003	0.1305	102.8
0.012	0.144	0.0007	0.0135	102.9
0.0142	0.093	-0.0046	-0.1381	102.9
0.0112	-0.0848	-0.0091	-0.1973	102.9
0.0082	-0.1718	-0.0105	-0.1823	102.9
0.0067	-0.1335	-0.0083	-0.1808	102.9
0.0067	-0.0458	-0.0023	-0.2063	103
0.0022	0.0592	0.0007	-0.2303	103
-0.0046	0.1905	0.0082	-0.1028	103
-0.0046	0.3195	0.0157	0.099	103
-0.0075	0.2392	0.0195	0.2572	103
-0.0128	0.0952	0.0142	0.2767	103
-0.0143	-0.0015	0.006	0.3435	103
-0.0143	-0.0383	0.0015	0.5287	103
-0.006	-0.054	-0.0015	0.4612	103.1
-0.0015	-0.1411	-0.0053	0.3067	103.1
0.0007	-0.1388	-0.0098	0.204	103.1
0.0045	-0.057	-0.0113	0.0712	103.1
0.0082	0.036	-0.0105	-0.0683	103.1
0.0097	-0.027	-0.0143	-0.2295	103.2
0.0052	-0.0788	-0.0113	-0.3308	103.2
0.0045	-0.0098	-0.0075	-0.3908	103.2
0.0045	-0.0068	-0.0046	-0.3968	103.2
0.0045	0.0142	-0.0053	-0.333	103.2
0.0015	0.0315	-0.006	-0.1988	103.3
-0.006	0.0675	-0.0046	-0.0181	103.3
-0.0091	-0.03	-0.0038	0.0255	103.3
-0.012	-0.1118	-0.0008	0.0105	103.3
-0.0091	-0.0691	0.0015	0.0825	103.3
-0.0038	-0.105	0.003	0.153	103.4
-0.0008	-0.0953	0.003	0.096	103.4
0.0037	-0.0443	0.003	0.0007	103.4
0.0052	0.042	0.003	-0.0368	103.4
0.012	0.0465	0.0052	-0.105	103.4
0.0142	0.0015	0.0045	-0.1845	103.4
0.0127	0.0255	0.0015	-0.1741	103.5
0.006	0.0892	0.003	-0.0315	103.5
0.0007	0.1635	0.003	0.0885	103.5
-0.003	0.0975	0.0022	0.1132	103.5
-0.0068	0.0675	0.003	0.1552	103.5
-0.0068	0.0697	0.006	0.234	103.5
-0.0023	0.048	0.0082	0.2407	103.5
0.003	-0.0098	0.0067	0.1342	103.5
0.0052	-0.117	0.009	0.0817	103.6
0.0097	-0.0818	0.0105	0.012	103.6
0.009	-0.1021	0.0045	-0.0743	103.6
0.006	-0.09	0.0015	-0.0863	103.6
0.0082	-0.0293	-0.0008	-0.114	103.6
0.0067	-0.0233	-0.003	-0.1343	103.6
0.0082	0.0555	-0.0046	-0.2003	103.6
0.0052	0.0532	-0.0113	-0.2685	103.6
0	0.0352	-0.0105	-0.2318	103.6
0.0015	0.0427	-0.0053	-0.1283	103.6
0.0007	0.0382	-0.0015	0.024	103.6
-0.0023	0.0517	-0.0023	0.0555	103.6
-0.0068	-0.0128	-0.0083	0.0255	103.6
-0.012	-0.0878	-0.0091	0.156	103.6
-0.0113	-0.0863	-0.003	0.2572	103.7
-0.0083	-0.045	0.006	0.2235	103.7
-0.0023	-0.0188	0.009	0.171	103.7
0.0015	-0.0533	0.009	0.129	103.7
0.0015	-0.0998	0.0082	0.0592	103.7
0.0037	-0.0675	0.0037	-0.0548	103.7
0.0037	-0.0195	0	-0.1448	103.7
0.0015	-0.0008	-0.0053	-0.2175	103.7
0.0007	0.0465	-0.0098	-0.2633	103.7
0.0022	0.1485	-0.0098	-0.2026	103.7
0.0037	0.1687	-0.0105	-0.096	103.7
-0.0015	0.015	-0.0128	-0.048	103.7
-0.0098	-0.0915	-0.0128	-0.0195	103.7
-0.0105	-0.1006	-0.0075	0.0495	103.7
-0.0053	-0.0203	-0.0008	0.0952	103.7
-0.0015	0.1005	0.0045	0.1605	103.7
-0.0008	0.1222	0.0075	0.2287	103.7
-0.0008	0.0705	0.0135	0.2025	103.7
-0.003	-0.0585	0.0105	0.2077	103.7
-0.0046	-0.0945	0.003	0.1537	103.7
-0.0053	-0.0743	0.0045	0.0037	103.7
-0.0046	-0.0706	0.003	-0.0691	103.7
-0.0008	-0.0203	0.0015	-0.1058	103.7
-0.0008	-0.0525	-0.0008	-0.0518	103.7
0.0007	0.1072	0	0.0457	103.7
0.0052	0.2437	0.0015	0.0292	103.7
0.003	0.096	-0.0053	-0.0323	103.7
0.0007	0.054	-0.0091	-0.0691	103.7
0.003	0.03	-0.0068	-0.0203	103.7
0.006	-0.0225	-0.0053	0.054	103.7
0.0067	-0.054	-0.0053	0.0105	103.7
0.006	-0.0833	0.0015	-0.0518	103.7
0.0052	-0.0788	0.003	-0.1118	103.7
0.003	-0.0788	-0.0023	-0.2026	103.7
0.0022	-0.06	-0.003	-0.213	103.7
-0.0008	-0.0091	-0.0015	-0.1853	103.7
0	0.0022	0.0045	-0.1711	103.7
-0.0008	-0.0623	0.0082	-0.1553	103.7
-0.0008	-0.003	0.0052	-0.0278	103.7
-0.0008	0.1237	0.0045	0.2332	103.7
0.003	0.1612	0.009	0.3345	103.7
0.0037	0.1522	0.0105	0.321	103.7
0.0007	0.0697	0.0045	0.2662	103.7
0.0007	-0.027	-0.0023	0.1762	103.7
0.0015	-0.0615	-0.0053	0.1995	103.7
0.003	-0.0908	-0.0046	0.1387	103.7
0.0015	-0.1178	-0.0053	0.033	103.7
0.003	-0.1358	-0.0053	-0.0706	103.7
0.0045	-0.1238	-0.003	-0.1838	103.7
-0.0008	-0.0691	0.0015	-0.2115	103.7
0.0007	-0.0083	0.0045	-0.2761	103.6
0.003	0.0532	0.0045	-0.3406	103.6
0.0007	0.1185	0.0052	-0.2836	103.6
0	0.189	0.0067	-0.129	103.6
-0.0038	0.1635	0.003	-0.0443	103.6
-0.0098	0.0142	-0.0046	0.018	103.6
-0.0128	-0.0788	-0.0075	0.1627	103.6
-0.0105	-0.0375	-0.0046	0.282	103.6
-0.0038	0.0225	0.0015	0.2917	103.6
-0.0008	0.012	0.0007	0.2625	103.5
0.0007	-0.0113	0.003	0.216	103.5
0.0015	-0.057	0.0045	0.099	103.5
0.0007	-0.1006	0.0007	0.054	103.5
0.003	-0.0165	0.0007	0.0097	103.5
0.0015	0.0067	-0.0015	-0.0818	103.5
-0.0008	-0.105	-0.0015	-0.1268	103.5
0.0007	-0.0953	0.0007	-0.1388	103.5
0.0022	0.0247	0.0067	-0.1365	103.5
0.0052	0.0592	0.0105	-0.2048	103.5
0.006	-0.012	0.0082	-0.252	103.4
0.0045	-0.0548	0.0052	-0.2288	103.4
0.0045	-0.054	-0.0008	-0.2048	103.4
0.0007	-0.003	-0.0038	-0.1381	103.4
-0.0008	0.06	-0.0046	-0.1013	103.4
0.0007	0.0127	-0.0091	-0.0765	103.4
-0.003	-0.0113	-0.012	0.1297	103.4
-0.0053	0.0727	-0.0105	0.3405	103.4
-0.0053	0.1057	-0.0053	0.3112	103.4
-0.003	0.057	0.0007	0.2325	103.3
0.0007	0.0195	0.0015	0.1657	103.3
0.0007	-0.0128	-0.0008	0.0817	103.3
0.0007	-0.0315	-0.0015	0.0607	103.3
0.0015	-0.006	-0.0023	0.0255	103.3
0.0015	0.006	-0.0015	-0.0503	103.3
0.0007	-0.0068	0.0007	-0.1253	103.3
0.0007	0.033	0.0052	-0.111	103.3
-0.0008	0.0555	0.0075	-0.0773	103.3
-0.0038	0.027	0.006	-0.0691	103.3
-0.0046	-0.0068	0.0022	-0.0068	103.2
-0.0053	-0.0533	-0.0008	0.0322	103.2
-0.003	-0.0525	0.0015	0.0982	103.2
-0.0008	-0.0158	0.0015	0.1267	103.2
0.0015	-0.024	-0.0046	0.0892	103.2
0.0037	-0.0375	-0.0053	0.048	103.2
0.0052	-0.0308	-0.0068	-0.0181	103.2
0.006	-0.0353	-0.006	-0.0511	103.1
0.0045	-0.0278	-0.003	-0.0975	103.1
0.0037	-0.0233	-0.0046	-0.0945	103.1
0.0022	-0.0225	-0.0008	-0.075	103.1
0.0022	0.0045	-0.0008	-0.1178	103.1
0.0015	0.0727	-0.0015	-0.105	103
-0.0008	0.1252	0.0007	-0.0871	103
-0.0046	0.0825	-0.0015	-0.075	103
-0.0046	0.024	0.0007	-0.0308	103
-0.0046	-0.0203	0.0015	0.0592	103
-0.006	-0.0308	0.0037	0.1455	103
0.003	0.0015	0.006	0.0967	103
0.009	-0.0038	0.003	0.0232	103
0.009	-0.0046	-0.0023	-0.048	103
0.009	-0.0046	-0.0068	-0.114	102.9
0.0052	-0.0046	-0.0083	-0.084	102.9
0.0052	0.0172	-0.0053	-0.0533	102.9
0.0052	-0.0046	-0.003	-0.042	102.9
0.0015	-0.0638	-0.0046	-0.0135	102.9
-0.0008	-0.0908	-0.0015	0.0517	102.8
-0.0008	-0.078	-0.0008	0.1305	102.8
0	-0.0458	-0.0008	0.1567	102.8
-0.0008	0.0217	0	0.1747	102.8
-0.0023	0.0675	-0.0023	0.15	102.7
-0.0046	0.0577	0.0007	0.0285	102.7
-0.006	-0.0083	0.0045	-0.0315	102.7
-0.0053	-0.0353	0.0045	0.0075	102.7
-0.0015	0.0307	0.0045	0.0615	102.7
-0.0015	0.057	0.0007	0.0495	102.6
-0.0008	0.0502	0	-0.0548	102.6
0.0037	0.015	-0.0008	-0.0833	102.6
0.003	-0.0278	-0.003	-0.0675	102.6
0.0015	-0.0315	-0.0023	-0.0713	102.6
0.0015	-0.0293	0.0007	-0.039	102.6
0.0015	0.0157	0.003	-0.0428	102.5
0.0007	0.039	0.006	-0.0398	102.5
0.0007	0.0247	0.0052	0.0142	102.5
-0.0008	0.0157	0.0022	0.039	102.5
-0.0075	0.0105	0.003	0.0165	102.5
-0.0083	0.0292	0.0045	0.0165	102.5
-0.0075	0.0142	0.0022	0.0292	102.4
-0.0083	-0.021	0.0045	0.0345	102.4
-0.0053	-0.0128	0.0052	0.078	102.4
-0.003	-0.0173	0.0067	0.081	102.4
-0.003	-0.039	0.0052	0.0255	102.4
-0.0015	-0.042	0	-0.042	102.3
0.0007	-0.048	-0.0008	-0.0765	102.3
0.0022	-0.0428	-0.0053	-0.0721	102.3
0.0045	-0.0398	-0.0068	-0.0923	102.3
0.0052	-0.0091	-0.003	-0.1313	102.3
0.0067	0.0585	-0.003	-0.1718	102.3
0.0037	0.0892	-0.0015	-0.183	102.2
0	0.0802	-0.0015	-0.1643	102.2
-0.0008	0.0592	0	-0.126	102.2
-0.0046	0.0442	0.0015	-0.0293	102.2
-0.0053	0.0037	0.0022	0.0817	102.1
-0.0046	-0.0983	0.0052	0.1185	102.1
-0.0023	-0.1088	0.009	0.2032	102.1
0.0007	-0.0046	0.012	0.3382	102.1
0.0015	0.0067	0.0105	0.3105	102.1
0.0022	-0.0105	0.009	0.2182	102.1
0.0022	0.0045	0.006	0.129	102.1
0.0015	-0.0165	-0.0008	0.0082	102.1
0.0045	-0.003	-0.003	-0.0511	102
0.006	0.0165	-0.0053	-0.0728	102
0.0052	0.0082	-0.0098	-0.0713	102
0.0052	-0.0068	-0.0091	-0.0533	102
0.0037	-0.0128	-0.0046	-0.0308	102
0.003	-0.0053	-0.003	-0.0188	101.9
0.003	-0.0083	-0.0046	-0.0405	101.9
0.003	-0.0128	-0.0046	-0.0585	101.9
0.0015	-0.0218	-0.0046	-0.063	101.9
0.0015	-0.0135	-0.0046	-0.06	101.8
0.003	0.0112	-0.0008	-0.0638	101.8
0.003	0.003	0.0007	-0.0713	101.8
0.0007	-0.021	0.0015	-0.0765	101.7
0.0007	-0.0165	-0.0015	-0.105	101.7
0	-0.0091	-0.0046	-0.1343	101.7
0.0015	0.012	-0.0015	-0.1313	101.7
0.003	0.0495	-0.0015	-0.111	101.7
0.0022	0.06	-0.003	-0.0721	101.7
0.003	0.051	-0.0046	0.0322	101.7
0.0015	0.0675	-0.0023	0.1102	101.7
-0.0008	0.033	-0.003	0.0622	101.6
-0.0046	-0.0668	-0.0053	0.0457	101.6
-0.0068	-0.0915	-0.0046	0.0862	101.6
-0.0046	-0.114	-0.0023	0.1365	101.6
-0.003	-0.0533	0.0022	0.2122	101.6
-0.0023	0.0787	0.0052	0.213	101.5
0.0007	0.1267	0.0082	0.1245	101.5
0.0007	0.0855	0.0052	0.0592	101.5
-0.0015	-0.0053	0.0045	0.0442	101.5
-0.0023	-0.0143	0.0045	0.009	101.4
-0.0023	-0.0158	0.003	-0.0278	101.4
-0.0008	-0.0135	0.0015	-0.0495	101.4
0.0007	-0.003	-0.003	-0.0615	101.3
0.0007	-0.0143	-0.0038	-0.0623	101.3
-0.0008	-0.0105	-0.0053	-0.0653	101.3
-0.0008	-0.0188	-0.0083	-0.0533	101.3
0.0015	-0.015	-0.0083	-0.0503	101.3
0.0037	-0.0128	-0.006	-0.0615	101.2
0.0045	-0.006	-0.0015	-0.0765	101.2
0.003	0.0052	0	-0.0803	101.2
0.0037	0.0127	0.0022	-0.0675	101.2
0.003	0.0195	0.0037	-0.0511	101.2
0.0015	0.009	0.003	-0.0203	101.2
0.0015	0.0037	0.0015	0.0135	101.2
-0.0008	-0.0135	0.0037	0.0427	101.1
-0.003	-0.0323	0.0037	0.039	101.1
-0.0008	-0.0323	0.0045	0.0202	101.1
0	-0.0158	0.006	0.015	101
-0.0008	-0.0068	0.003	-0.003	101
0.0015	-0.0083	-0.003	-0.0098	101
0.0007	-0.0008	-0.0053	0.0022	101
0.0015	-0.0008	-0.006	-0.0083	100.9
0.003	-0.0091	-0.0068	-0.048	100.9
0.003	-0.0181	-0.0046	-0.0615	100.9
0.003	-0.0098	-0.003	-0.0308	100.9
-0.0008	0.009	-0.0015	0.0015	100.8
-0.0015	-0.0015	-0.0015	-0.0091	100.8
-0.0015	-0.0015	-0.0015	-0.0278	100.8
0.0015	0.0397	0.003	-0.0128	100.8
0.0045	0.081	0.0045	0.0082	100.8
0.0022	0.0855	0.0045	0.0097	100.8
0.0015	0.0705	0.0067	0.009	100.7
0.0007	0.0667	0.0075	0.0667	100.7
-0.003	0.0187	0.0037	0.1365	100.7
-0.0068	-0.0465	-0.0008	0.1702	100.6
-0.0083	-0.0743	-0.003	0.1425	100.6
-0.0068	-0.063	-0.0038	0.1222	100.6
-0.0046	-0.0218	-0.003	0.1305	100.6
-0.0038	-0.0135	-0.006	0.06	100.5
-0.0008	-0.0053	-0.006	-0.0218	100.5
0.0022	0.0052	-0.0083	-0.078	100.5
0.0052	0.0015	-0.0075	-0.105	100.5
0.0067	0.0052	-0.006	-0.0938	100.4
0.0045	-0.003	-0.0075	-0.0728	100.4
0.0007	-0.0135	-0.003	-0.0548	100.4
-0.0008	-0.0173	-0.0023	-0.0465	100.3
0.0015	-0.0278	-0.0046	-0.0368	100.3
0	-0.0593	-0.0015	-0.0278	100.3
-0.0023	-0.039	0.0045	-0.0203	100.3
-0.0015	0.0037	0.009	-0.0165	100.2
-0.0008	0.0052	0.0075	-0.0233	100.2
-0.0038	0.0022	0.0037	-0.0375	100.1
-0.0008	-0.0008	0.0052	-0.0615	100.1
0.0015	0.0232	0.0052	-0.063	100.1
0.0015	0.024	0.0015	-0.0165	100
0.0045	-0.0046	-0.0008	0.0202	100
0.003	-0.0143	-0.0023	0.0307	99.9
0.0022	-0.0203	-0.0023	0.0105	99.9
0.0015	-0.0128	-0.0015	-0.0405	99.9
-0.0008	-0.0195	-0.0023	-0.0706	99.8
0.0007	0.018	0.0007	-0.027	99.8
0.0022	0.09	0.0007	0.027	99.8
0.0015	0.0577	0.0022	-0.042	99.7
-0.0015	0.0007	0	-0.0735	99.7
-0.0038	-0.0046	0.0007	0.0052	99.7
-0.0053	-0.0338	0.003	0.084	99.7
-0.0075	-0.0533	0.0015	0.1732	99.6
-0.006	-0.0173	0.0045	0.2137	99.6
-0.0015	0.0442	0.0052	0.2175	99.5
0.0015	0.0637	0.0045	0.1897	99.5
0.003	0.0277	0.0015	0.1252	99.5
0.0045	-0.003	-0.0008	0.0435	99.4
0.0045	-0.003	-0.0046	-0.0181	99.4
0.0045	-0.0068	-0.0075	-0.0375	99.4
0.0015	-0.039	-0.006	-0.0983	99.3
0.0007	-0.0511	-0.0046	-0.1155	99.3
0.003	-0.0105	-0.003	-0.1028	99.3
0.0052	-0.0158	-0.0038	-0.1268	99.2
0.0052	-0.0518	0	-0.1358	99.2
0.0052	-0.0293	0.0015	-0.153	99.1
0.0045	-0.0046	0.0007	-0.165	99.1
0.003	0.0105	0.0037	-0.1853	99.1
0.003	0.0097	0.0015	-0.1815	99
0.0007	0.0292	0.0015	-0.078	99
0	0.0502	0.003	-0.0015	99
-0.0046	-0.0098	-0.003	0.027	98.9
-0.0091	-0.0563	-0.0068	0.09	98.9
-0.0075	-0.042	-0.0046	0.1012	98.8
-0.003	0.048	-0.0015	0.1732	98.8
0.0007	0.1192	0.0007	0.3285	98.8
-0.0015	0.1155	0.0007	0.3322	98.7
-0.003	0.1057	0.0007	0.243	98.7
-0.0008	-0.0053	0.0015	0.111	98.6
0.0007	-0.0638	0.0015	0.0007	98.6
0.003	-0.0128	0.0015	-0.0428	98.5
0.003	-0.0075	0.003	-0.1043	98.5
0.003	-0.0143	0.0015	-0.1245	98.5
0.003	-0.039	-0.0008	-0.12	98.4
-0.0015	-0.0555	0	-0.0893	98.4
-0.0046	-0.0285	0.0007	-0.0623	98.4
-0.003	-0.0165	-0.0008	-0.057	98.3
-0.0023	-0.0675	-0.003	-0.045	98.3
0	-0.054	-0.0015	-0.0181	98.2
-0.0008	0.0097	-0.0046	0.0217	98.2
-0.0015	0.024	-0.0068	-0.0008	98.1
0.0037	0.039	-0.006	-0.0256	98.1
0.0045	0.027	-0.0046	-0.057	98.1
0.0052	0.012	0.0007	-0.0788	98
0.0052	0.018	0.0022	-0.0443	98
0.0045	0.027	0.0015	-0.0533	97.9
0.0045	0.0292	0.0007	-0.0608	97.9
0.0045	0.0255	-0.0008	-0.0195	97.8
0.0022	0.0075	0.0015	0.0262	97.7
-0.0008	-0.0368	0.0045	0.0435	97.7
-0.0008	-0.0788	0.0067	0.0427	97.6
-0.003	-0.093	0.0075	0.0592	97.6
-0.003	-0.0533	0.0075	0.0787	97.6
-0.0008	-0.0046	0.0067	0.072	97.5
0.0007	0.0172	0.003	0.0592	97.5
0.0007	0.012	0.0045	0.0487	97.4
0.003	-0.0091	0.003	0.0052	97.4
0.0037	-0.0195	-0.0015	-0.0248	97.3
0.003	-0.0053	-0.003	-0.0525	97.2
0.0037	0.006	-0.0046	-0.1013	97.2
-0.0008	0.0082	-0.003	-0.1275	97.2
-0.0015	0.0172	-0.0008	-0.1411	97.2
-0.0008	0.0255	-0.0008	-0.1275	97.1
0.0007	0.054	-0.0015	-0.0691	97
0.0007	0.0712	-0.003	0.009	97
0	0.066	-0.0046	0.0495	96.9
-0.0008	0.03	-0.0038	0.1057	96.9
-0.0046	-0.0413	-0.003	0.1672	96.8
-0.0053	-0.084	0.003	0.138	96.8
-0.0015	-0.054	0.009	0.0907	96.7
0.0007	-0.0203	0.0075	0.039	96.7
-0.0015	-0.0053	0.0022	0.0277	96.7
0.0007	0.0525	0.0015	0.042	96.6
0.003	0.0367	-0.0008	-0.015	96.5
0.003	0.0045	-0.0046	-0.0436	96.5
0.003	0.0112	-0.0046	-0.039	96.4
0.003	0.003	-0.0023	-0.039	96.4
0.0007	0.0112	0	-0.024	96.3
-0.003	-0.0285	-0.0023	-0.0158	96.3
-0.0038	-0.0346	-0.0015	0.0277	96.3
-0.0053	-0.0143	0.0015	0.1095	96.2
-0.0046	-0.0135	0.0015	0.1027	96.2
-0.0038	-0.033	0.003	0.0225	96.1
-0.003	-0.048	0.003	-0.003	96
-0.0015	0.003	0.0067	-0.0128	96
0	0.042	0.0067	-0.0353	95.9
0.0015	0.0315	0.0052	-0.0691	95.9
0.0052	0.039	0.0022	-0.1043	95.8
0.0045	0.0675	-0.0053	-0.1118	95.8
0.0015	0.027	-0.0075	-0.1448	95.7
0.0045	0.0315	-0.0053	-0.159	95.7
0.0037	0.09	-0.0068	-0.093	95.6
0.003	0.0825	-0.0075	-0.0165	95.6
0.0007	0.0352	-0.0046	0.0105	95.5
-0.0008	-0.0105	-0.0015	0.0322	95.5
-0.003	-0.0765	-0.0023	0.12	95.4
-0.0038	-0.129	-0.0008	0.1852	95.3
0	-0.0818	0.0045	0.1575	95.3
0.003	-0.0465	0.0082	0.1327	95.2
0.0015	-0.0428	0.0075	0.0952	95.2
0.0015	-0.0188	0.0067	0.0645	95.2
0.0015	0.018	0.0075	0.0675	95.1
0.0007	0.042	0.0045	0.0112	95
0.0007	-0.0173	0	-0.0278	95
-0.0008	-0.0578	-0.0046	-0.0315	94.9
0.0007	-0.0158	-0.0091	-0.0436	94.9
0	0.0097	-0.0098	-0.0353	94.9
0.0007	0.0157	-0.0075	-0.042	94.8
0.0015	0.0217	-0.0075	-0.0563	94.7
0.0007	0.003	-0.006	-0.0578	94.7
0.0045	-0.0083	-0.0046	-0.0585	94.6
0.003	-0.0233	-0.003	-0.105	94.6
0.0045	-0.0263	0.0015	-0.1426	94.5
0.0037	0.0082	0.0015	-0.1538	94.5
0.0007	0.027	0.0037	-0.1628	94.5
0.0015	0.0495	0.0045	-0.1448	94.4
0	0.078	0.0037	-0.0998	94.3
-0.0008	0.0802	0.003	0.0277	94.3
-0.0053	0.057	0.003	0.1275	94.2
-0.006	0.0217	0.0045	0.1447	94.2
-0.0053	-0.0308	0.0022	0.1897	94.1
-0.0068	-0.0788	-0.0008	0.2377	94.1
-0.003	-0.0998	-0.0008	0.2625	94
-0.0008	-0.0788	-0.0015	0.2362	94
0.003	0.0082	-0.0023	0.1612	94
0.0075	0.0517	-0.003	0.0652	93.9
0.003	-0.0015	-0.0046	-0.033	93.9
0.0007	-0.0278	-0.0015	-0.078	93.8
0.0007	-0.045	-0.0008	-0.12	93.7
-0.0008	-0.0548	0.0007	-0.162	93.7
0.003	-0.0203	0.0037	-0.1696	93.6
0.0015	0.0022	0.0015	-0.1628	93.6
0	0.0292	0.0007	-0.1238	93.6
-0.0008	0.0465	0.0022	-0.084	93.5
-0.0008	0.0892	0.0067	-0.0346	93.5
-0.0015	0.084	0.0082	0.027	93.4
-0.0053	0.039	0.0075	0.0292	93.4
-0.0038	0.036	0.0052	0.006	93.3
-0.0015	-0.0068	0.0015	0.0157	93.2
-0.0015	-0.0278	-0.0046	0.042	93.2
0.0015	-0.0203	-0.0075	0.081	93.2
0.0052	0.009	-0.006	0.0975	93.1
0.0067	0.0105	-0.0053	0.0472	93.1
0.0052	-0.0195	-0.0023	0.009	93.1
0.0037	-0.0068	0	-0.0233	93.1
0.003	-0.0346	-0.0008	-0.0443	93
0.0007	-0.0593	0.0007	-0.003	93
-0.0008	-0.0998	0.0015	0.0202	92.9
-0.0015	-0.105	0.003	0.0187	92.9
-0.0038	-0.0818	0.0037	0.0015	92.8
-0.0038	-0.0803	0.0052	-0.0038	92.8
-0.0046	0.0067	0.0067	0.018	92.7
-0.003	0.0697	0.0052	0.0082	92.7
-0.0015	0.1492	0.0015	-0.0008	92.7
-0.0015	0.1732	-0.0015	-0.0135	92.7
0.0022	0.072	-0.0046	-0.039	92.6
0.0037	0.018	-0.0083	-0.0458	92.6
0.003	-0.0608	-0.0075	-0.054	92.5
0.0015	-0.0908	-0.0053	-0.0158	92.4
0.0022	0.0135	-0.003	0.0105	92.4
0.0015	0.0592	-0.003	-0.0053	92.4
0	0.006	-0.0038	0.018	92.3
-0.0008	0.0045	-0.0015	0.0232	92.3
-0.0015	0.0217	-0.003	0.0195	92.3
-0.003	-0.0068	0.0007	0.0277	92.2
-0.003	-0.0203	0.0037	0.0067	92.2
-0.0008	-0.033	0.0007	-0.0098	92.2
-0.0015	-0.0465	0.0015	-0.0165	92.1
-0.0023	-0.0735	0.003	-0.0008	92.1
-0.0008	-0.0878	0.0015	0.0495	92.1
-0.0008	-0.0135	-0.0008	0.0487	92
0.0022	0.1102	0.0015	-0.0143	92
0.0037	0.0885	0.0022	-0.054	91.9
0.0045	-0.0075	-0.0015	-0.0533	91.9
0.0052	0.0052	-0.0083	-0.0323	91.8
0.0052	-0.0098	-0.0068	-0.0368	91.8
0.003	-0.0091	-0.003	-0.0465	91.8
0.0022	-0.0098	-0.0038	-0.039	91.8
0.0007	-0.0308	-0.0053	-0.0278	91.7
0.0007	0.0022	-0.003	-0.0143	91.7
0.0007	0.0345	-0.003	-0.0038	91.6
-0.0008	0.0427	0	0.0142	91.6
-0.0023	0.0135	0.0015	0.012	91.6
-0.0015	0.0082	0.0007	0.012	91.5
-0.0038	0.003	0.0045	0.0202	91.5
-0.0046	0.012	0.006	0.0022	91.4
-0.003	0.0217	0.0067	-0.0008	91.4
-0.0023	0.0037	0.0052	-0.0053	91.4
-0.0008	-0.0008	0.003	0.0052	91.3
-0.0008	-0.0068	0.0007	0.0195	91.3
-0.0008	-0.003	-0.0023	0.0127	91.3
0.0007	0.0007	-0.003	0.0367	91.3
0.0015	0.0127	-0.0046	0.0502	91.2
0.0022	0.0127	-0.0015	0.0472	91.2
0.0015	0.009	0.0007	0.0382	91.1
0.0022	0.0067	0.0007	0.0292	91.1
0.0022	-0.0008	0.0022	0.0307	91.1
0.0007	-0.003	0.0022	0.018	91
0.0007	-0.0165	0.0007	0.0097	90.9
0.0015	-0.03	0.0007	-0.0008	90.9
0.0015	-0.027	0.003	0.0067	90.9
-0.0008	-0.0008	0.0045	0.0127	90.9
-0.0015	0.009	0.0045	-0.0293	90.8
0.0007	-0.0128	0	-0.0615	90.8
0.0007	-0.0218	-0.0046	-0.048	90.8
0	-0.0195	-0.0053	-0.0135	90.7
0.0015	-0.027	-0.0083	0.0105	90.7
0.003	-0.0413	-0.0075	-0.0308	90.7
0.0037	-0.0098	-0.0068	-0.0833	90.6
0.0052	0.0472	-0.0046	-0.0675	90.6
0.006	0.048	-0.0008	-0.057	90.5
0.003	0.012	0	-0.057	90.5
0.0007	-0.0068	-0.0008	-0.0233	90.5
-0.0008	-0.0015	-0.0015	0.0127	90.4
-0.0023	0.0037	0	0.0457	90.4
-0.0023	-0.0091	0.003	0.0495	90.4
-0.0015	-0.0248	0.0045	0.048	90.4
-0.0015	-0.0165	0.0067	0.0705	90.3
-0.0015	-0.0053	0.0082	0.0975	90.2
0	-0.0218	0.0067	0.102	90.2
0	-0.027	0.003	0.0555	90.2
-0.0008	0.0052	0.003	-0.0233	90.1
0	0.0277	0.0007	-0.0593	90.1
0.0007	0.0075	-0.003	-0.048	90
0.0015	0.0225	-0.003	-0.0518	90
0.0007	0.0442	-0.0008	-0.0518	90
-0.003	0.0202	-0.0023	-0.0443	89.9
-0.0053	-0.0285	-0.003	-0.0218	89.9
-0.003	-0.0735	0.0015	0.0097	89.8
0.0007	-0.0075	0.0037	0.0405	89.8
0.0007	0.012	0.0052	0.1222	89.7
0.0007	-0.0068	0.0052	0.1605	89.7
-0.0023	0.0142	0.0045	0.1117	89.6
-0.003	-0.0143	0.0022	0.0652	89.6
-0.003	-0.0008	0.0052	0.0097	89.5
-0.0053	-0.0098	0.0045	-0.048	89.5
-0.0046	-0.0233	0.0015	-0.0713	89.5
-0.0038	-0.0008	0.0015	-0.063	89.4
-0.003	0.0202	-0.0038	-0.0436	89.3
-0.0015	0.0375	-0.0053	-0.0368	89.3
0	0.021	-0.0075	-0.0338	89.3
0.0015	0.0165	-0.012	-0.027	89.2
0.0007	-0.0046	-0.0083	-0.0135	89.2
0.0007	-0.0143	-0.0038	0.0015	89.1
0.0007	-0.0023	-0.003	0.003	89.1
0.0007	-0.0083	-0.003	0.0082	89.1
0.0015	-0.012	-0.0008	0.0015	89
0.0015	-0.0091	-0.0008	-0.0203	89
0.003	-0.0083	0	-0.0278	88.9
0.0037	-0.0135	0.0015	-0.0248	88.9
0.0007	-0.012	0.0037	-0.0158	88.9
0.0015	-0.0195	0.0045	-0.0158	88.8
0.0007	-0.0525	-0.0008	-0.027	88.8
-0.0008	-0.0518	-0.0015	-0.0256	88.7
0.0015	0.0045	-0.0023	-0.0128	88.7
0.0052	0.0382	-0.0046	0.0015	88.6
0.0082	0.0187	-0.0038	-0.0008	88.6
0.006	-0.0015	-0.0068	-0.0128	88.6
0.0045	0.0105	-0.0053	-0.0023	88.5
0.0045	0.0675	-0.0038	0	88.5
0.003	0.0877	-0.0015	-0.03	88.4
0.0015	0.021	-0.0015	-0.0525	88.4
-0.003	-0.0158	-0.0046	-0.0495	88.3
-0.0046	0.0232	-0.0015	-0.006	88.3
-0.006	0.0607	0.0007	0.0382	88.2
-0.0053	0.0645	0.0045	0.0525	88.2
-0.0046	-0.0053	0.006	0.0645	88.2
-0.0068	-0.06	0.0052	0.048	88.1
-0.0046	0.0015	0.0097	0.0232	88.1
-0.003	0.0045	0.0067	0.0067	88.1
-0.0023	-0.0091	0.0045	-0.003	88
0.0007	0.0052	0.0045	-0.0038	88
-0.0008	-0.0181	-0.0008	-0.0053	87.9
0.0007	0.003	-0.006	-0.0008	87.9
0.003	-0.0015	-0.0068	-0.0015	87.8
0.0007	-0.0105	-0.0075	-0.0083	87.8
0.0007	-0.0203	-0.0046	-0.0143	87.7
0.0007	-0.0165	-0.0008	-0.015	87.7
0.0037	0.0172	-0.0015	-0.003	87.6
0.0052	-0.012	0.0015	-0.0091	87.6
0.0067	-0.0368	0.0015	-0.0218	87.6
0.009	-0.0293	0.0015	-0.0248	87.5
0.0045	-0.012	0.003	-0.0256	87.4
0.0007	-0.0203	0.0015	-0.012	87.4
-0.0015	-0.0165	0.003	0.0022	87.3
-0.0015	0.009	0.0045	0.003	87.3
-0.0008	0.0015	0.0052	-0.0143	87.3
0	0.009	-0.0008	-0.0203	87.2
0.003	0.0142	-0.0046	-0.0181	87.1
0.0045	0.0165	-0.0046	-0.0218	87.1
0.003	0.0195	-0.006	-0.0008	87
0.0015	0.0082	-0.0053	0.003	87
0.003	-0.0015	-0.0015	0.009	86.9
0.003	-0.0128	0.0037	0.0457	86.9
0.0022	-0.0233	0.0067	0.063	86.8
0.0015	-0.0383	0.003	0.0825	86.8
-0.0008	-0.033	0.0015	0.0922	86.7
-0.0008	-0.0181	0.003	0.0757	86.7
0.0007	-0.0075	0.0015	0.0427	86.6
-0.0008	0	0.0015	0.0052	86.6
-0.0015	-0.0091	0.0015	-0.0173	86.5
-0.003	-0.0165	0.0022	-0.0375	86.4
-0.0023	-0.0075	0.003	-0.0465	86.4
-0.0008	0.0112	0.0015	-0.0548	86.3
-0.0015	0.0127	-0.0015	-0.0668	86.3
-0.0008	0.0247	-0.0053	-0.0638	86.2
0.003	0.0495	-0.0068	-0.0593	86.2
0.0045	0.0622	-0.0083	-0.0346	86.1
0.0045	0.0645	-0.0083	0.003	86
0.0052	0.063	-0.0053	0.0127	86
0.0015	0.0532	-0.003	0.0247	85.9
-0.0008	-0.0091	-0.0023	0.0442	85.9
-0.0008	-0.0428	0.0007	0.042	85.9
-0.0008	-0.0503	0.003	0.039	85.8
0	-0.0675	0.0045	0.0532	85.7
0.0007	-0.0503	0.006	0.0502	85.7
0.0015	-0.0495	0.0052	0.0247	85.6
0	-0.0315	0.0067	0.012	85.5
0	-0.0038	0.0052	0.0067	85.5
0.0007	0.0105	0.0015	-0.0038	85.5
0.0007	0.0172	-0.0008	-0.0091	85.4
-0.0008	0.0127	-0.0015	-0.0046	85.3
-0.003	0.0082	-0.003	0.0105	85.2
-0.0008	0.0015	-0.0068	0.012	85.2
-0.0008	0.0247	-0.0083	-0.0173	85.1
0	0.0202	-0.0075	-0.0518	85
0.0007	0.0007	-0.0083	-0.063	85
-0.0008	0.0157	-0.0046	-0.0615	84.9
-0.0008	0.0225	-0.0008	-0.0645	84.8
-0.003	0.0052	0.0007	-0.0728	84.8
-0.0038	-0.0428	0.0015	-0.0735	84.7
-0.0046	-0.0585	0.003	-0.0368	84.6
-0.0038	-0.048	0	0.0465	84.6
-0.0046	-0.0675	-0.003	0.0765	84.5
-0.0046	-0.0968	0.0015	0.0225	84.5
-0.0008	-0.1035	0.0037	0.0015	84.4
-0.0008	-0.0225	0.0045	0.0217	84.3
0.003	0.1267	0.006	0.054	84.2
0.006	0.186	0.0067	0.0532	84.1
0.0075	0.0885	0.0067	0.0172	84.1
0.009	0.0195	0.0045	0.0127	84.1
0.0067	0.006	0.0022	0.0052	84
0.0037	-0.0068	0.0015	0.018	83.9
0.0022	0.0262	0.0022	0.0345	83.8
0	-0.0015	-0.0008	0.0232	83.8
-0.0008	-0.0195	-0.0015	0.0135	83.7
-0.0023	0.0202	-0.0008	0.003	83.7
-0.0023	0.015	-0.0038	0.0015	83.6
-0.0046	-0.0225	-0.0068	-0.012	83.5
-0.0068	-0.0361	-0.0083	-0.0203	83.4
-0.0068	-0.0383	-0.0068	-0.0308	83.4
-0.0068	-0.045	-0.0053	-0.0518	83.3
-0.0053	-0.0278	-0.0038	-0.0458	83.2
-0.003	0.0037	-0.0046	-0.024	83.2
0	0.0487	-0.0046	-0.003	83.1
0.0037	0.024	-0.0083	0.0037	83.1
0.0045	-0.0038	-0.012	-0.0091	83
0.0082	0.036	-0.0075	-0.0091	82.9
0.0075	0.0217	0.0007	0.0105	82.8
0.009	-0.0323	0.0105	0.0172	82.8
0.0112	-0.003	0.0142	0.0217	82.7
0.0067	0.0457	0.012	0.009	82.6
0.0067	0.0157	0.0142	-0.0046	82.6
0.003	0.0052	0.0165	-0.0098	82.5
0.0007	-0.0143	0.0157	-0.0256	82.4
0.0007	-0.0361	0.0135	-0.0203	82.4
-0.0015	-0.0368	0.0082	-0.0105	82.3
-0.0046	-0.039	0.0052	0.0022	82.3
-0.0083	-0.0173	0.003	-0.0023	82.2
-0.0068	-0.0173	-0.0008	-0.0248	82.1
-0.0053	0.0105	-0.0008	-0.0083	82
-0.0053	0.0307	-0.003	0.0165	81.9
-0.0038	0.0345	-0.006	0.0187	81.9
0.0007	0.0592	-0.0083	0.0112	81.8
0.003	-0.0046	-0.0091	0.0105	81.8
0.0015	-0.0856	-0.0083	-0.0046	81.7
0.0045	-0.108	-0.0068	-0.0346	81.6
0.0007	-0.0945	-0.0053	-0.0195	81.6
0.0022	0.0855	-0.003	0.0277	81.4
0.0037	0.234	-0.0015	0.0127	81.4
0.003	0.1177	0.0007	0.003	81.4
0.003	-0.0075	0.0045	0.0142	81.3
-0.0015	-0.0256	0.0007	-0.0195	81.2
-0.0008	-0.0113	0	-0.0188	81.1
-0.003	-0.012	0.0015	-0.012	81
-0.0053	-0.021	-0.0008	-0.0091	81
-0.0023	-0.0315	-0.003	0.018	80.9
-0.0015	-0.0653	-0.0053	0.0082	80.8
0.0015	-0.0593	-0.0068	-0.0046	80.7
0.0045	-0.0173	-0.0143	0.0277	80.6
0.0097	0.0232	-0.0046	0.0577	80.6
0.015	0.0165	0.0172	0.0622	80.5
0.0165	-0.0263	0.0202	0.0457	80.4
0.012	-0.0518	0.024	0.0195	80.3
0.006	-0.0728	0.0225	0.0142	80.3
0.0037	-0.048	0.0142	0.0442	80.2
0.0037	0.0532	0.0142	0.0637	80.1
0.0007	0.1237	0.012	0.0277	80.1
0.003	0.0765	0.012	-0.015	79.9
0.0112	0.0577	0.0112	-0.0293	79.9
0.018	-0.0218	0.0052	-0.0645	79.8
0.0127	-0.1088	0.0015	-0.0848	79.7
0.0052	-0.0555	-0.0046	-0.0675	79.6
-0.0015	-0.0098	-0.0105	-0.048	79.5
-0.0105	0.1027	-0.0203	-0.0068	79.4
-0.021	0.093	-0.0308	0.0015	79.3
-0.0285	0.0097	-0.0346	-0.0128	79.2
-0.0293	0.027	-0.0368	-0.0158	79.1
-0.0323	-0.0015	-0.0368	-0.039	79
-0.0293	-0.0075	-0.0375	-0.0353	78.9
-0.0263	-0.0293	-0.0338	-0.027	78.8
-0.0225	-0.0038	-0.027	-0.0218	78.7
-0.0128	0.06	-0.0233	-0.0128	78.7
-0.0038	0.0202	-0.0181	-0.0091	78.5
0.0052	-0.0525	-0.0128	0.0097	78.4
0.0097	-0.0728	-0.0008	0.0112	78.3
0.0105	-0.1028	0.0067	0.0232	78.3
0.0105	-0.1028	0.0105	0.018	78.2
0.012	0.0082	0.0165	0.009	78
0.012	0.075	0.0157	0.0382	78
0.009	0.0532	0.0127	0.027	77.8
0.0067	0.0285	0.012	0.006	77.8
0.0015	0.0247	0.009	0.0105	77.6
0.0045	0.0367	0.0045	0.0022	77.5
0.006	-0.006	0.0045	-0.0128	77.4
0.0015	-0.0458	0.003	-0.0105	77.3
0.0015	-0.024	0.0007	-0.0023	77.2
0.0015	-0.0315	-0.0008	-0.0083	77.1
0.0022	-0.075	0	-0.0113	76.9
0.0015	-0.12	0.0045	0.0165	76.9
0.0022	-0.0563	0.0105	0.0727	76.8
0.0075	0.0667	0.0202	0.0645	76.6
0.012	0.063	0.0195	0.0082	76.5
0.0105	0.0255	0.015	-0.012	76.4
0.0052	0.0082	0.012	-0.027	76.3
0.0045	-0.0256	0.009	-0.027	76.2
0.003	0.0007	0.0112	0.0105	76.1
0.0037	0.0577	0.009	0.0375	76
0.0037	0.057	0.006	0.0315	75.8
0.0022	0.0547	0.0022	0.0195	75.7
0.0007	0.0397	0.0007	0.006	75.6
-0.0015	-0.012	-0.0008	-0.0068	75.5
0	-0.0023	0	-0.0143	75.4
0.0007	0.0022	0.0015	-0.0218	75.3
0	-0.0008	0.0007	-0.012	75.1
-0.0023	0.012	-0.0008	-0.0008	75.1
-0.0053	-0.0218	-0.0008	-0.0233	74.9
-0.0008	-0.033	-0.0008	-0.0428	74.8
0	-0.0248	-0.0008	-0.021	74.7
-0.0023	0.0165	-0.0046	0.009	74.6
-0.0015	0.0255	-0.0053	0.0277	74.5
-0.0068	-0.063	-0.0023	0.021	74.3
-0.0046	-0.012	-0.0015	0.0105	74.2
0	0.1012	-0.0008	0.0165	74.1
0.0022	0.042	-0.0038	0.0015	74
0.0045	-0.0046	-0.0053	-0.0098	73.9
0.0045	0.012	-0.0068	-0.0158	73.8
0.0037	-0.0083	-0.0083	-0.024	73.7
0.003	-0.0105	-0.0023	-0.0158	73.5
0.0037	-0.0128	0.0007	-0.0046	73.4
0.003	0	0.0045	-0.003	73.3
0.0022	0.0075	0.0082	-0.03	73.2
0.0037	-0.015	0.0075	-0.0615	73
0.0015	-0.0181	0.0045	-0.057	72.9
-0.0023	-0.0533	0.0007	-0.0308	72.8
-0.003	-0.0773	-0.0008	-0.0083	72.7
-0.003	-0.0218	0.0015	0.0285	72.6
-0.0008	-0.0143	0.0075	0.0435	72.4
-0.0008	-0.0908	0.0082	0.0202	72.3
-0.0023	-0.1163	0.0067	-0.0015	72.2
-0.0046	-0.054	0.0045	-0.006	72.1
-0.0053	0.0705	-0.0008	0.0202	72
-0.0068	0.1155	-0.0046	0.0427	71.9
-0.0091	0.0375	-0.0098	0.024	71.7
-0.0083	0.018	-0.0105	-0.021	71.6
-0.0068	-0.0135	-0.0105	-0.0353	71.5
-0.0053	-0.075	-0.0105	0.0007	71.4
-0.006	-0.0713	-0.0083	0.0172	71.3
-0.0068	-0.024	-0.0091	-0.0091	71.1
-0.0038	0.162	-0.0015	-0.0158	71
0.0007	0.2565	0.012	0.018	70.9
0.0105	0.0382	0.018	0.0622	70.8
0.0135	-0.0068	0.0202	0.1012	70.6
0.0112	0.126	0.0187	0.0832	70.5
0.006	0.0352	0.0157	0.0202	70.4
0.003	-0.0158	0.0097	-0.0038	70.2
0.003	-0.0105	0.0015	0.0015	70.2
-0.0008	-0.0368	0.0007	-0.0158	70
0	-0.0256	0.003	-0.054	69.9
-0.0008	-0.0578	-0.0015	-0.0683	69.7
-0.0008	-0.0585	-0.0068	-0.0503	69.6
0.0007	-0.0563	-0.0113	-0.0308	69.5
-0.0008	-0.0608	-0.0158	-0.003	69.4
-0.0015	-0.0638	-0.0165	-0.0015	69.3
-0.0015	-0.0218	-0.0128	-0.057	69.1
-0.0008	0.0352	-0.0098	-0.0691	69
-0.0008	-0.0143	-0.0091	-0.0128	68.9
0.0007	0.0172	-0.0046	0.0615	68.8
0.0015	0.1087	-0.0023	0.1027	68.6
0.0007	0.0697	-0.0015	0.0652	68.5
0.0015	0.045	0	0.0307	68.3
-0.0008	0.0307	-0.0008	0.0165	68.2
0.0007	-0.0278	-0.0008	-0.0068	68.1
0.0015	-0.027	-0.0023	-0.012	67.9
0.003	-0.0165	-0.0038	-0.012	67.8
0.0045	-0.0203	-0.0068	-0.015	67.7
0.0037	-0.0158	-0.0083	-0.0181	67.5
0.0022	-0.0165	-0.0091	-0.0165	67.4
0.0007	-0.0046	-0.0083	-0.0128	67.2
0.0007	0.0022	-0.006	-0.0091	67.1
-0.0023	0.0015	-0.0068	-0.0091	67
-0.0008	0.0075	-0.0038	-0.0128	66.8
-0.0015	-0.0023	-0.003	-0.0128	66.7
-0.0023	-0.0158	-0.0046	-0.0181	66.6
-0.0008	-0.0158	-0.0046	-0.0285	66.4
-0.0008	-0.0158	-0.0038	-0.033	66.3
0.0007	-0.0143	0.0007	-0.0293	66.1
0.0007	-0.0128	0.0052	-0.0293	66
0.0022	-0.0248	0.0097	-0.024	65.8
0.0045	-0.039	0.0067	-0.0158	65.7
0.0052	-0.0323	0.0015	-0.024	65.6
0.0037	-0.0308	0.003	-0.048	65.5
0.0037	-0.0338	-0.003	-0.042	65.3
0.003	-0.0068	-0.0083	0.0045	65.2
0.0007	-0.0113	-0.0075	0.0345	65.1
0.0022	0.0232	-0.0053	0.0735	64.9
0.0045	0.1117	0.003	0.1012	64.8
0.006	0.0705	0.0052	0.0667	64.7
0.0067	-0.0046	0.0067	0.0442	64.5
0.0045	-0.0218	0.006	0.0292	64.4
0	-0.0615	0.003	0.0165	64.3
-0.0015	-0.0638	0.0052	0.0045	64.1
-0.0015	-0.0593	0.0052	-0.0248	64
-0.0038	-0.0278	0.0082	-0.0158	63.9
-0.0053	0.075	0.0082	0.0142	63.7
-0.0046	0.1125	0.006	0.0195	63.6
-0.0015	0.0862	0.0075	0.006	63.4
0.0007	0.0127	0.0045	-0.0203	63.3
-0.0015	-0.042	-0.0015	-0.0615	63.1
-0.003	-0.0788	-0.0053	-0.0623	63
-0.0015	-0.1148	-0.0068	-0.042	62.9
-0.0008	-0.0615	-0.0068	-0.0428	62.7
-0.0015	-0.048	-0.0053	-0.0346	62.6
-0.003	-0.033	-0.0015	-0.0278	62.5
-0.0015	-0.0091	-0.0023	-0.0158	62.3
0	-0.0165	-0.0008	0.0352	62.1
0	0.078	0.0022	0.078	62
0.0015	0.1215	0.0052	0.054	61.9
0.0015	0.1215	0.009	0.0217	61.7
0.0015	0.0712	0.009	0.0022	61.6
0.0007	-0.0758	0.009	-0.0308	61.4
0.0045	-0.0885	0.0142	0.0112	61.3
0.0067	0.0442	0.021	0.1065	61.2
0.0105	0.1837	0.0232	0.0967	61
0.0127	0.1635	0.018	0.0292	60.8
0.0097	0.063	0.012	0.0127	60.7
0.0112	-0.0046	0.0045	-0.0083	60.5
0.009	-0.0315	-0.0015	-0.0203	60.4
0.0067	0.0007	-0.0038	-0.0053	60.2
0.0045	-0.0046	-0.0053	-0.0046	60.1
-0.0008	-0.0195	-0.0068	-0.0203	60
-0.0053	-0.0436	-0.0105	-0.0443	59.8
-0.0091	-0.0585	-0.015	-0.0578	59.7
-0.0083	-0.0638	-0.0135	-0.0593	59.5
-0.0068	-0.0608	-0.0143	-0.045	59.4
-0.0068	-0.0405	-0.0165	-0.0278	59.3
-0.0098	-0.0683	-0.0165	-0.0218	59.1
-0.0143	-0.0675	-0.0165	-0.0068	59
-0.015	0.0225	-0.015	0.0217	58.8
-0.0105	0.0675	-0.0128	0.0405	58.7
-0.0046	-0.0068	-0.0128	0.0142	58.5
0.0015	-0.0495	-0.0105	-0.0195	58.4
0.003	-0.039	-0.0128	-0.0308	58.3
0.0007	-0.0083	-0.0128	-0.021	58.1
0.0022	0.0412	-0.0075	-0.0181	58
0.0015	0.0247	-0.0038	-0.0225	57.8
0.0015	0.0127	0.0007	0.0007	57.7
0.0015	-0.0015	0.0045	0.0465	57.6
0.0015	-0.033	0.009	0.069	57.4
0.0037	0.003	0.012	0.0442	57.3
0.0045	0.0472	0.0097	0.027	57.1
0.0022	0.033	0.0082	0.012	57
0.0015	0.0112	0.009	0.0037	56.9
0.0022	0.0292	0.0127	0.0142	56.7
0	0.0105	0.0187	0.0037	56.6
-0.0008	-0.0195	0.0202	-0.0015	56.5
0.0007	-0.0105	0.0187	-0.0105	56.3
-0.0008	-0.0128	0.0127	-0.0158	56.2
-0.0023	-0.0068	0.009	-0.0143	56.1
-0.0023	-0.0195	0.003	-0.0278	56
-0.0015	-0.0383	-0.0015	-0.0443	55.8
-0.0015	-0.048	-0.006	-0.0533	55.7
-0.0015	-0.0691	-0.0053	-0.0645	55.6
0.0007	-0.0803	-0.0046	-0.096	55.4
0.0007	-0.0878	-0.0053	-0.0728	55.3
0.0007	-0.0615	-0.003	0.0187	55.2
0.0007	0.0337	-0.003	0.0825	55
0.003	0.1132	-0.0008	0.0832	54.9
0.0007	0.0675	-0.0008	0.0315	54.7
0.0007	-0.0608	-0.0008	-0.012	54.6
-0.0023	-0.1028	0.0045	-0.0158	54.5
-0.003	-0.0008	0.009	0.033	54.4
0.0007	0.0922	0.0127	0.0795	54.3
0.0045	0.0862	0.012	0.0562	54.1
0.0067	0.063	0.0082	0.0435	54
0.0052	0.138	0.0075	0.0787	53.9
0.0067	0.1702	0.0075	0.0675	53.8
0.003	0.0667	0.0022	0.0165	53.6
-0.0008	0.0405	0.0015	0.0052	53.5
-0.003	0.0495	0.0007	0.006	53.4
-0.0046	0.0037	-0.0015	-0.0113	53.2
-0.006	-0.0315	-0.0038	-0.027	53.1
-0.006	-0.0458	-0.006	-0.0315	53
-0.0046	-0.039	-0.0053	-0.0323	52.9
-0.003	-0.0405	-0.0068	-0.0323	52.7
-0.003	-0.0375	-0.0053	-0.0293	52.6
-0.0023	-0.0346	-0.0015	-0.027	52.5
-0.0008	-0.0293	0.0015	-0.0233	52.4
-0.0015	-0.0248	0.003	-0.0188	52.2
-0.0008	-0.0256	0.0015	-0.0158	52.2
0.0015	-0.033	-0.003	-0.0143	52
0.0022	-0.0398	-0.0068	-0.0135	51.9
0.0022	-0.0218	-0.0105	-0.0135	51.8
0.0022	-0.0165	-0.0128	-0.0128	51.7
0.0007	-0.015	-0.012	-0.0105	51.6
0.0015	-0.0068	-0.0105	-0.0091	51.5
0	-0.0128	-0.0083	-0.0038	51.4
-0.003	-0.0091	-0.0038	0.0037	51.3
-0.0008	-0.006	-0.0046	0.003	51.2
0.0007	-0.0046	-0.0015	0.0045	51.1
0.0015	-0.0046	0.003	0.003	51
0.0022	-0.003	0.0052	-0.0068	50.8
0.0015	0.0015	0.0082	-0.021	50.8
0.0022	-0.0091	0.009	-0.0308	50.7
0.0015	-0.0308	0.0075	-0.0203	50.5
0.0007	-0.0428	0.003	-0.0015	50.4
0.0007	-0.0353	0.0022	0.0135	50.4
0.0007	-0.03	0.003	0.0142	50.2
0.0007	-0.03	0	0.0015	50.1
-0.0008	-0.0046	-0.0053	-0.0068	50
0.0007	0.0517	-0.006	0.0022	49.9
0.0022	0.1027	-0.0075	0.0255	49.8
0.0015	0.093	-0.0053	0.012	49.7
0.0007	0.0277	-0.0015	-0.0038	49.6
-0.0008	-0.0165	-0.0046	0.009	49.5
0.0022	-0.0195	-0.003	0.0015	49.4
0.0022	0.012	-0.003	-0.0113	49.3
-0.0008	0.063	-0.003	-0.0091	49.2
-0.0008	0.0697	-0.0008	0.0015	49.1
-0.0008	0.039	0.0007	0.0105	49
0.0007	0.003	0.0052	0.0165	48.9
0	-0.0555	0.0075	0.0195	48.8
-0.0008	-0.114	0.006	0.009	48.7
0.0015	-0.1103	0.0052	0.009	48.6
0.003	-0.0728	0.0015	-0.003	48.5
0.003	-0.0706	-0.0053	-0.024	48.4
0.0037	-0.06	-0.0068	-0.0143	48.3
0.003	0.0217	-0.006	-0.0008	48.2
0.0022	0.0982	-0.0046	0.0097	48.1
0.0022	0.1342	-0.0008	0.0315	48
0.0007	0.1725	0.003	0.06	47.9
-0.0015	0.1492	0.003	0.0487	47.8
-0.0015	0.042	0.003	0.003	47.7
-0.003	-0.0143	0.0045	-0.0218	47.6
-0.0023	-0.0218	0.0045	-0.039	47.5
-0.0015	-0.0585	0.0015	-0.054	47.4
-0.0008	-0.0975	0.0007	-0.0645	47.3
-0.0015	-0.153	0.0007	-0.0578	47.2
-0.0015	-0.1628	0.0007	-0.0443	47.2
-0.0015	-0.1133	-0.0008	-0.0293	47.1
-0.0046	-0.0653	-0.003	0.006	47
-0.0015	-0.0353	-0.0068	0.0247	46.9
0.0015	-0.0218	-0.0083	0.0367	46.8
0.0045	0.0892	-0.0068	0.069	46.7
0.0075	0.2115	-0.003	0.0877	46.6
0.0097	0.2257	0.0015	0.0765	46.5
0.0105	0.1935	0.0015	0.0435	46.4
0.0082	0.0832	0.0015	0.0105	46.3
0.006	0.0277	0.003	-0.0015	46.2
0.003	0.0202	0	-0.012	46.1
-0.0008	-0.0248	0	-0.0165	46
-0.003	0.0022	0	-0.0158	46
-0.0046	-0.0098	-0.0008	-0.0188	45.9
-0.0046	-0.0443	0.0007	-0.0188	45.8
-0.0046	-0.0285	0.0052	-0.0181	45.7
-0.0046	-0.0465	0.0067	-0.0195	45.6
-0.003	-0.0428	0.003	-0.0203	45.6
-0.0038	-0.0405	0.0007	-0.0256	45.5
-0.0046	-0.0503	-0.0053	-0.033	45.4
-0.0038	-0.0473	-0.0105	-0.0315	45.3
-0.0023	-0.0495	-0.0091	-0.0263	45.2
-0.0008	-0.0398	-0.0091	-0.0188	45.2
0	-0.0405	-0.0091	-0.0091	45.1
-0.0008	-0.0353	-0.0075	-0.0023	45
-0.0015	-0.0256	-0.0105	0.0007	44.9
-0.0023	-0.0098	-0.0075	0.003	44.8
-0.0023	0.0157	0.0007	0.0045	44.8
-0.003	0.0135	0.0097	0.0112	44.7
-0.0023	0.0052	0.015	0.0195	44.5
0.003	0.0075	0.0142	0.0217	44.5
0.0037	-0.0038	0.0142	0.027	44.5
0.0015	-0.0083	0.0127	0.0195	44.4
0.0022	-0.0038	0.0105	0	44.3
0.0022	-0.0098	0.0067	-0.0105	44.2
0.0022	-0.0053	0.003	-0.0165	44.1
0.0022	-0.0023	0	-0.0098	44.1
0.0037	-0.003	-0.0046	0.0015	44
0.0037	0.003	-0.0083	0.0067	43.9
0.0052	0.0135	-0.0083	0.0067	43.8
0.0075	0.0292	-0.0053	0.0067	43.8
0.0052	0.024	-0.006	0.006	43.7
0.0067	0.0082	-0.0075	0.0015	43.6
0.0082	0.0022	-0.0053	0.0007	43.6
0.0052	-0.0053	-0.0053	-0.0023	43.5
0.0022	-0.0105	-0.0068	-0.0053	43.4
0.0015	-0.0135	-0.0046	-0.0113	43.3
-0.0008	-0.0158	-0.0008	-0.0195	43.2
-0.003	-0.0143	0.0015	-0.0203	43.2
-0.0015	-0.0143	0	-0.0083	43.1
-0.0023	-0.0038	-0.003	0.0045	43
-0.0015	0.0285	-0.0015	0.018	43
-0.0008	0.0457	-0.003	0.0307	42.9
-0.0015	0.03	-0.0046	0.0277	42.8
-0.0008	0.027	-0.003	0.0217	42.7
-0.0008	0.0097	-0.003	0.012	42.7
0.0015	-0.0173	0.003	0.0007	42.7
-0.0008	-0.0158	0.009	-0.006	42.6
-0.0038	-0.0233	0.0127	-0.012	42.5
-0.0046	-0.0083	0.0157	-0.0083	42.4
-0.0038	0.0127	0.0157	-0.0053	42.3
-0.0038	0.0127	0.0157	-0.0046	42.3
-0.0053	0.0015	0.0157	-0.0038	42.2
-0.003	-0.0233	0.0127	-0.0046	42.2
-0.0023	-0.0338	0.0112	-0.0015	42.1
-0.0023	-0.0256	0.0112	0.0045	42
-0.0015	0.0292	0.006	0.0075	42
-0.0046	0.0667	0.0007	0.0037	41.9
-0.0023	0.048	-0.003	0	41.8
-0.0008	0.0247	-0.0105	-0.0046	41.7
0.0007	-0.0008	-0.0143	-0.0053	41.7
0.0022	-0.0046	-0.0158	-0.006	41.6
0.0007	-0.0278	-0.0165	-0.015	41.5
0.0015	-0.0706	-0.0165	-0.0203	41.5
0.0007	-0.0773	-0.0143	-0.0203	41.4
0.0022	-0.0743	-0.0143	-0.0181	41.4
0.003	-0.0645	-0.0135	-0.0091	41.3
0.0022	-0.0608	-0.0105	-0.0053	41.2
0.003	-0.0503	-0.0046	-0.0105	41.2
-0.0008	-0.0098	-0.0008	-0.0083	41.1
0.0022	0.0877	0.0022	0.0255	41
0.0045	0.1852	0.0105	0.0652	40.9
0.0045	0.1485	0.0142	0.0667	40.9
0.0067	0.0855	0.0127	0.0382	40.8
0.0045	0.0877	0.0097	0.015	40.7
0.006	0.0345	0.006	0.0015	40.7
0.0045	-0.012	0.0015	-0.0068	40.6
0.003	-0.0195	-0.0038	-0.0143	40.5
0.0015	-0.0353	-0.0053	-0.0143	40.5
-0.0008	-0.0293	-0.0046	-0.0083	40.4
0.0007	-0.039	-0.0015	-0.0143	40.3
-0.0008	-0.0735	0.0007	-0.042	40.3
-0.0008	-0.0945	-0.0023	-0.0638	40.2
-0.003	-0.057	-0.0015	-0.054	40.1
-0.0038	-0.021	-0.0008	-0.0263	40
-0.0038	-0.0248	0	0.0052	40
-0.0046	-0.0173	0.0007	0.0255	39.9
-0.0015	-0.048	0.0015	0.009	39.8
-0.0015	-0.084	0.0045	-0.0023	39.8
-0.0008	-0.0203	0.0082	0.0195	39.7
0.003	0.1042	0.0127	0.0472	39.6
0.0052	0.1192	0.0112	0.0487	39.6
0.0037	-0.0091	0.0037	0.0195	39.5
0.003	-0.0143	-0.003	0.0127	39.4
0.0052	0.075	-0.006	0.0165	39.3
0.0037	0.0615	-0.0053	0.0082	39.2
0.003	0.0675	-0.0046	0.015	39.2
-0.0015	0.0945	-0.003	0.0105	39.1
-0.003	0.0345	-0.0053	-0.012	39.1
-0.0015	-0.0098	-0.0046	-0.0195	38.9
-0.003	-0.0165	-0.0008	-0.003	38.9
-0.003	-0.0368	-0.0015	0.0015	38.8
-0.003	-0.0353	0.0007	-0.0053	38.7
-0.0008	-0.0278	0	-0.0023	38.7
0	-0.0091	0.0015	-0.0023	38.6
-0.0008	-0.0023	0.0052	-0.003	38.6
-0.0015	0.0247	0.0052	-0.003	38.5
0	0.0525	0.0045	-0.0068	38.4
0.0007	-0.0023	-0.0008	-0.0068	38.4
0.0007	-0.0128	-0.0015	0.0045	38.3
0.0045	0.0127	-0.0023	0.0007	38.2
0.003	-0.0195	-0.0053	-0.0128	38.2
0.0007	-0.0315	-0.0053	-0.0173	38.1
-0.003	-0.0315	-0.0075	-0.0181	38
-0.0053	-0.0353	-0.0068	-0.015	37.9
-0.006	-0.0165	-0.0075	-0.0113	37.9
-0.0046	-0.0128	-0.0083	-0.0105	37.8
-0.0046	-0.027	-0.0068	-0.0091	37.8
-0.0046	-0.0308	-0.0046	-0.0113	37.7
-0.003	-0.0256	-0.0046	-0.0143	37.6
-0.003	-0.0315	-0.0053	-0.0128	37.6
-0.0015	-0.027	0.0007	-0.0128	37.5
-0.0023	-0.0128	0.0052	-0.0083	37.4
-0.0015	0.0217	0.006	0.0112	37.4
0.0007	0.0277	0.0052	0.0172	37.3
0.0022	0.027	0.0007	0.0142	37.3
0.003	0.072	-0.0038	0.0165	37.3
0.003	0.0315	-0.003	0.0067	37.2
0.006	-0.0165	-0.0046	0.0022	37.1
0.0045	-0.0143	-0.0023	0.0045	37.1
0.0045	-0.0293	0.0007	0.003	37
0.0045	-0.0188	0.003	0.0007	37
0.0037	-0.0203	0.0067	-0.0015	36.9
0.0037	-0.0158	0.0052	0.0015	36.9
0.003	-0.0023	0.0082	0.0007	36.8
0.0015	-0.003	0.009	0	36.8
-0.0008	0.0015	0.006	-0.003	36.7
-0.0008	0.0007	0.0037	-0.006	36.6
-0.0015	0.0015	-0.0008	-0.0083	36.6
-0.0008	-0.0038	-0.0046	-0.0173	36.5
0.003	-0.0023	-0.0046	-0.012	36.5
0.0015	0	-0.0046	0.0037	36.4
0.0015	-0.003	-0.003	0.0082	36.4
0.0052	-0.0008	-0.003	0.012	36.4
0.0082	0.0015	-0.0015	0.015	36.3
0.0067	0.0067	0.0007	0.0112	36.3
0.0045	0.0067	0.0015	0.0045	36.3
0.0007	0.0045	0.003	0.0015	36.2
-0.0015	0.0007	0.0022	-0.0015	36.2
-0.003	0	0.0022	-0.0023	36.1
0.0007	0	0.003	-0.0038	36.1
-0.0015	-0.0008	0.006	-0.0053	36
-0.0038	-0.0008	0.0045	0	36
-0.0053	0.0015	0.0045	0.0007	36
-0.0075	0.0007	0.0067	-0.0015	35.9
-0.0053	0	0.0075	-0.003	35.9
-0.0023	-0.0008	0.0067	-0.0015	35.9
0.0007	-0.0008	0.0045	-0.0008	35.8
0.003	-0.0008	0.0015	-0.0015	35.8
0.0022	-0.0008	-0.0008	-0.003	35.7
0.0015	0.0015	-0.0053	-0.0038	35.7
0.0015	0.0015	-0.0083	-0.0008	35.6
0.0007	0.0007	-0.0083	-0.0015	35.6
0.0015	0.0007	-0.0075	-0.0015	35.5
0.0015	0	-0.003	0.0007	35.5
-0.0015	0.0015	-0.0015	0.0015	35.5
-0.0015	-0.0008	-0.0015	-0.0015	35.4
-0.003	-0.0068	-0.0008	-0.0105	35.4
-0.003	-0.0091	0.0007	-0.015	35.3
0.0015	-0.0068	0	-0.0098	35.3
0.003	0.0022	0.003	-0.0015	35.2
0.0022	0.012	0.0045	0.0127	35.2
0.0007	0.003	0.0007	0.0225	35.1
-0.0046	-0.0105	0.0007	0.0187	35.1
-0.003	-0.0075	-0.003	0.009	35.1
0	0.0022	-0.003	0.0052	35
0.003	0.0217	-0.003	0.0015	35
0.0067	0.0435	-0.0053	-0.0008	34.9
0.0082	0.0315	-0.0053	0	34.9
0.0075	0.0007	-0.0046	-0.0015	34.8
0.0067	-0.0091	-0.0015	-0.0015	34.8
0.0045	-0.0083	0	-0.0046	34.7
0.0052	0.0007	0	-0.0091	34.7
0.0037	0.012	0.0022	-0.0068	34.6
0.0007	0.0007	0.003	-0.003	34.6
-0.0015	-0.0083	0.0015	0.003	34.6
-0.0046	-0.0075	0.0015	0.0127	34.5
-0.0046	-0.0165	0.003	0.012	34.5
-0.0046	-0.0308	0.0022	-0.0046	34.4
-0.0053	-0.0443	0.0015	-0.0256	34.4
-0.0053	-0.063	-0.0008	-0.0405	34.3
-0.006	-0.0728	-0.0053	-0.0353	34.3
-0.0046	-0.0593	-0.0083	-0.0135	34.2
-0.0008	-0.0458	-0.0091	-0.0046	34.2
-0.0015	-0.0368	-0.0083	-0.0008	34.1
-0.0015	-0.0113	-0.006	0.009	34.1
0.0015	0.0442	-0.0038	0.0232	34.1
0.003	0.1087	-0.0015	0.0457	34
0.0037	0.138	-0.0046	0.048	34
0.0045	0.126	0.0052	0.0352	33.9
0.0052	0.0952	0.0135	0.0232	33.9
0.0075	0.0675	0.009	0.012	33.8
0.0052	0.0322	0.0105	-0.0068	33.8
0	-0.0203	0.0045	-0.0203	33.7
-0.0008	-0.0413	0.0045	-0.0128	33.7
-0.0046	-0.042	0.0082	-0.0008	33.7
-0.0015	-0.0293	0.0022	0.0135	33.6
0.0007	0.024	0.0067	0.0142	33.6
-0.0023	0.0255	0.006	0.0015	33.5
0.0007	-0.0203	0.0007	-0.0068	33.4
0.0015	-0.0143	-0.0008	-0.0105	33.4
0.003	-0.006	-0.006	-0.0098	33.3
0.0015	-0.012	-0.0068	-0.0105	33.3
0.0015	-0.027	-0.006	-0.012	33.3
-0.0008	-0.0308	-0.003	-0.012	33.2
-0.0015	-0.0098	-0.0023	-0.0091	33.2
-0.0008	0	-0.003	-0.0053	33.1
-0.0015	0.0007	-0.003	-0.0053	33.1
0.0007	-0.015	-0.0046	-0.0053	33
0.0007	-0.0143	-0.0023	-0.0053	32.9
-0.0008	-0.0181	0.0007	-0.0053	32.9
-0.0008	-0.0181	0.0022	-0.0046	32.9
-0.0015	0.0045	0.0007	-0.003	32.8
-0.0008	0.0142	-0.0008	-0.0023	32.8
0	0.009	-0.003	-0.003	32.8
0.0015	-0.0135	-0.0023	-0.0053	32.8
0.0015	-0.0248	-0.0015	-0.006	32.7
0.003	-0.0256	-0.0053	-0.0046	32.7
0.0037	-0.0113	-0.006	-0.0015	32.6
0.0015	0.0112	-0.0038	-0.0023	32.6
0.0007	0.012	-0.0023	-0.0015	32.5
-0.0015	0.0007	-0.0008	0	32.5
-0.0023	-0.003	0.003	0.0007	32.4
-0.0008	-0.0023	0.0045	0.0007	32.4
-0.0015	-0.0038	0.0052	0.0007	32.4
0	-0.0008	0.003	0.0015	32.4
-0.0015	-0.003	-0.0008	0.003	32.3
0	-0.0015	-0.0015	0.003	32.3
0.0015	-0.0015	0.0007	0.0015	32.2
-0.0015	-0.003	0	0.0015	32.1
-0.003	-0.0015	-0.0008	0	32.1
-0.003	-0.0015	-0.0015	-0.0015	32.1
-0.0015	0	-0.0053	-0.0008	32.1
0	-0.0015	-0.0046	-0.0008	32
0.0015	0.0007	-0.003	-0.0008	32
0.0015	0.003	-0.003	0	32
0.0015	0.0015	-0.0008	0.0015	31.9
0.0007	0.0037	0.0015	0.003	31.9
-0.0023	0.003	0.003	0.0015	31.9
0	0.0015	0.0037	0	31.9
-0.0015	0.0022	0.0015	-0.0008	31.9
-0.003	0.0007	0.0022	0	31.8
-0.0015	-0.003	0.0022	0	31.8
0	0	0.0007	0.0007	31.8
-0.0008	0.0022	0.0015	0.0015	31.7
-0.0015	-0.0015	0.003	0.0007	31.7
0.0015	-0.0015	0.0015	-0.0008	31.7
0.0015	-0.0008	0	-0.0023	31.6
0.0015	0.0007	-0.0015	-0.0015	31.6
0.0007	0.0007	-0.0046	-0.0015	31.5
0.0007	0.0007	-0.0091	-0.0015	31.5
0.0022	0.0015	-0.0091	-0.0015	31.5
0.0015	0.0007	-0.0083	-0.0015	31.5
0.0007	0.0015	-0.003	-0.0008	31.5
0.0015	0.003	0.0015	0.0007	31.5
0.003	0.003	0.003	0.0007	31.5
0.0037	0.0015	0.0045	0.0007	31.4
0.0037	0.0007	0.006	0.003	31.4
0.0052	0.0015	0.0105	0.0045	31.4
0.0067	0.0015	0.0105	0.0037	31.3
0.0052	0.0007	0.0105	0.0007	31.3
0.0045	-0.0015	0.012	0	31.3
0.0022	-0.0023	0.0097	0.0022	31.3
0	-0.0015	0.006	0.0007	31.2
-0.0008	-0.0008	0.0015	-0.0008	31.2
-0.0008	-0.0008	-0.003	-0.0008	31.2
-0.0015	-0.0015	-0.0053	-0.0023	31.2
-0.0008	0.0015	-0.0075	-0.003	31.1
-0.0008	0.0037	-0.0083	-0.0046	31.1
-0.0008	0.003	-0.0053	-0.0091	31
-0.0015	0.0015	-0.003	-0.012	31
-0.0046	0.0007	-0.0015	-0.0091	31
-0.0015	0	-0.0023	-0.006	31
-0.0023	-0.0015	-0.0023	0.0015	31
-0.0008	-0.0008	-0.003	0.0142	30.9
0.0045	-0.0008	0.0007	0.0195	30.9
0.0022	-0.0046	0.0015	0.0105	30.9
0.0007	-0.0053	0.0015	0.0022	30.8
-0.003	-0.0046	0.003	0.0007	30.8
-0.006	-0.0053	0.0015	0.0015	30.8
-0.0068	-0.003	0	0.0052	30.7
-0.006	0.003	-0.003	0.0067	30.7
-0.0038	0.0052	-0.0008	0.0045	30.7
-0.0015	0.0045	-0.0015	-0.003	30.6
0	0.0015	-0.0053	-0.0158	30.6
0.0007	-0.0015	-0.0053	-0.0188	30.6
-0.0008	-0.003	-0.0023	-0.012	30.6
-0.0023	-0.0008	0.0007	-0.012	30.5
-0.0015	-0.0008	0.003	-0.0173	30.5
-0.0023	-0.003	0.0052	-0.0128	30.4
-0.003	-0.0046	0.0037	-0.0015	30.4
-0.003	-0.0105	0.0037	0.018	30.4
-0.003	-0.012	0.003	0.03	30.3
-0.0015	-0.0091	0.0015	0.0195	30.3
-0.0008	-0.0105	0.0015	-0.0008	30.3
0.0007	-0.0143	0.0015	-0.0143	30.2
0.0007	-0.0195	0.003	-0.0195	30.2
0.0037	-0.0143	0.0015	-0.0143	30.1
0.0045	-0.0068	0.0007	0.0015	30.1
0.0045	-0.006	-0.0008	0.0105	30.1
0.0045	-0.0046	-0.0038	0.009	30.1
0.0037	0.0082	-0.0046	0.0135	30
0.0075	0.0277	-0.0023	0.0217	30
0.006	0.0367	0.003	0.0195	29.9
0.0045	0.0487	0.0045	0.009	29.9
0.003	0.0705	0.0007	0.012	29.8
0.0007	0.0555	0.0007	0.0075	29.8
0.003	0.015	0	-0.0023	29.8
0.0022	-0.0015	-0.0008	-0.0023	29.7
0.0015	-0.0098	0.0007	-0.006	29.7
0.003	-0.012	0.0022	-0.0046	29.7
0.0015	-0.0091	0.0067	-0.0046	29.6
0.0015	-0.0091	0.0067	-0.0053	29.6
0.0015	-0.0075	0.0022	-0.0053	29.5
0.0007	-0.0128	-0.0038	-0.0068	29.5
0.0022	-0.0143	-0.0083	-0.0083	29.4
0.0022	-0.0143	-0.012	-0.0091	29.4
0.003	-0.015	-0.0128	-0.0091	29.3
0.0045	-0.0113	-0.0098	-0.0091	29.3
0.0015	-0.0091	-0.0105	-0.0068	29.2
0.003	-0.0068	-0.0075	-0.0038	29.2
0.0022	-0.0068	-0.0053	-0.0046	29.1
0	-0.006	-0.0053	-0.003	29.1
-0.0008	-0.0053	-0.0053	-0.003	29
-0.003	-0.0046	-0.0068	-0.003	29
-0.0015	-0.0053	-0.0015	-0.0015	28.9
-0.003	-0.0046	-0.0015	0.0007	28.9
-0.0038	-0.0015	0.0015	0.0007	28.8
-0.0068	-0.003	0.003	0.0007	28.8
-0.0068	-0.0023	0	-0.0008	28.7
-0.0038	-0.0015	0.0007	-0.0008	28.7
-0.0015	-0.0023	-0.0008	-0.0023	28.7
-0.0008	-0.0008	0	-0.003	28.6
0.0015	-0.0008	-0.0008	-0.0023	28.6
0.0052	0.0007	-0.0015	-0.0008	28.5
0.0045	0.0015	-0.003	0.0015	28.5
0.0045	0.0022	-0.0015	0	28.4
0.003	0.0022	0.0015	0.0015	28.4
0.0015	0	0.0022	0.0037	28.3
0.0045	0.0015	0.0082	0.0037	28.3
0.0037	0	0.0097	0.0045	28.3
0.0007	-0.0015	0.012	0.0015	28.3
0	-0.0008	0.0127	0.0037	28.2
-0.0015	0.0015	0.0112	0.0015	28.2
-0.003	0.003	0.0112	0.0007	28.1
-0.0046	0.0007	0.009	0.0022	28.1
-0.0068	0.0007	0.0082	0	28
-0.003	0	0.0067	-0.0008	28
0	0	0.006	-0.0015	27.9
0.0045	0.0007	0.006	-0.0023	27.9
0.0075	0.0015	0.0007	-0.0023	27.9
0.0052	0.0015	-0.0015	-0.0046	27.8
0.0045	0.0015	-0.0015	-0.003	27.8
0.0037	0.0015	-0.003	-0.0008	27.7
0.0007	-0.0008	-0.006	-0.0015	27.7
-0.0015	0	-0.006	-0.0046	27.6
-0.0015	-0.0008	-0.006	-0.0113	27.6
-0.003	-0.0015	-0.0046	-0.0143	27.5
-0.0015	-0.0046	-0.0075	-0.0098	27.5
