File Name: 2Nsen.log
Channel 1: 'RF', 15300 values, engineering units: mV, no filters.
Channel 2: 'BF', 15300 values, engineering units: mV, no filters.
Channel 3: 'VM', 15300 values, engineering units: mV, no filters.
Channel 4: 'ST', 15300 values, engineering units: mV, no filters.
Channel 5: 'FX', 765 values, engineering units: deg, no filters, extrapolated from 50 to 1000 samples per second.

0.0007	-0.0008	0.003	0	70.1
-0.0008	-0.0015	0.0022	0.0007	70.1
-0.0008	-0.003	0	0	70.1
0.0015	-0.0015	-0.003	0	70.1
0.0015	-0.0008	-0.0053	-0.0015	70.1
0.0045	0	-0.0068	-0.0015	70.1
0.0067	0.0007	-0.012	-0.003	70.1
0.0052	0.003	-0.0105	-0.0015	70.1
0.0045	0.0015	-0.0053	-0.0008	70.1
0.0007	0.0007	-0.0008	-0.0015	70.1
0.0007	-0.0008	-0.0008	-0.0015	70.2
0	-0.0008	0.0022	-0.0008	70.2
0.0015	0	0.0022	0.0015	70.2
0.0015	0	0.0045	0.0015	70.2
0.0007	-0.0008	0.0052	0.0015	70.2
0.0015	-0.0008	0.006	0.0022	70.2
-0.0046	-0.0015	0.0105	0.0015	70.2
-0.0038	-0.003	0.0082	0.0007	70.2
-0.0015	-0.0008	0.003	0	70.2
-0.0015	0.0007	-0.0008	-0.0015	70.2
-0.0015	0.0007	-0.006	-0.0023	70.2
-0.0008	0.0022	-0.0075	-0.0015	70.2
0.0045	0.003	-0.0105	-0.0015	70.2
0.0075	0.003	-0.0091	-0.0015	70.2
0.0082	0.0007	-0.0083	-0.0015	70.2
0.003	0	-0.0068	-0.0008	70.2
-0.0008	0.0007	-0.0015	0.0015	70.2
-0.0015	-0.0008	0.0015	0.0015	70.2
-0.003	0	0.0022	-0.0008	70.2
-0.0008	-0.0015	0.003	-0.0008	70.2
-0.0015	0	0.003	0	70.2
-0.003	0.0007	0.0045	0.0007	70.2
-0.0015	-0.0015	0.0067	0.0015	70.2
-0.0015	-0.0008	0.0082	0.003	70.2
-0.003	-0.0023	0.0067	0.003	70.2
-0.0015	-0.0015	0.0015	0.0015	70.2
-0.0015	-0.0008	-0.0015	0.0007	70.2
-0.0008	0.0007	-0.0038	-0.0015	70.2
0.003	0.0015	-0.006	-0.003	70.2
0.0075	0	-0.0083	-0.0038	70.2
0.009	-0.0008	-0.0053	-0.0038	70.2
0.0045	-0.0008	-0.003	-0.0015	70.2
0.0015	0.0007	0	0	70.2
0	-0.0008	0.0015	0.0007	70.2
0	-0.0015	-0.0008	0	70.2
-0.0015	0	0.0007	0.0007	70.2
-0.003	-0.0008	0.0015	0	70.2
-0.0015	-0.0015	0.0037	0	70.2
0.0007	-0.003	0.0082	0.0007	70.2
-0.0008	-0.0023	0.009	0.0015	70.2
-0.0008	-0.0008	0.009	0.0015	70.2
0	-0.0008	0.006	0.0015	70.2
0.003	0	0.003	0.0007	70.2
0.0045	0.0015	-0.0008	-0.0015	70.2
0.0022	0	-0.0046	-0.0023	70.2
0.0052	0.0007	-0.0075	-0.0015	70.2
0.0082	0.0007	-0.0098	-0.0046	70.2
0.003	0	-0.0091	-0.0023	70.2
0.0007	0.0007	-0.0053	-0.0015	70.2
-0.0008	-0.0015	0.0007	-0.0023	70.2
-0.0015	-0.0008	0.0015	-0.0008	70.1
-0.0008	0.0015	0.003	0.0007	70.1
-0.0008	-0.0023	0.0022	0.0007	70.1
-0.0015	-0.0015	0.0022	0.0007	70.1
0.0007	-0.0008	0.003	0.0007	70.1
0.0007	0.0007	0.0052	-0.0008	70.1
-0.003	-0.0008	0.0082	0.0007	70.1
-0.0053	-0.0015	0.0075	-0.0008	70.1
-0.0046	-0.0008	0.0045	-0.0015	70.1
-0.003	-0.0008	0	0.0007	70.1
0.0015	-0.0008	-0.0015	-0.0015	70.1
0.003	0	-0.006	-0.003	70.1
0.0015	0.0015	-0.0075	-0.003	70.1
0.0022	0.003	-0.0075	-0.0023	70.1
0.0007	0.0015	-0.006	-0.0008	70.1
0.0007	0.0007	0.0007	-0.0008	70.1
-0.0023	0	0.0007	0	70.1
-0.0015	0	0.0015	-0.0015	70.1
-0.0023	0.0007	0.0015	0.0007	70.1
-0.0015	-0.0015	0.0015	0.0007	70.1
-0.0015	0	0.003	0.0015	70.1
-0.0053	0.0007	0.0052	0.003	70.1
-0.0038	-0.0015	0.0075	0.0007	70.1
-0.0038	-0.0015	0.0082	0.0007	70.1
-0.0038	0	0.009	-0.0015	70.1
-0.0008	-0.0008	0.0007	-0.0015	70.1
0.0007	-0.0008	-0.0046	0.0015	70.1
0.0015	-0.0015	-0.0046	0	70.1
0.003	0.0007	-0.0091	-0.0008	70.1
0.0052	0.0022	-0.0113	-0.0015	70.1
0.0045	0.0022	-0.0105	-0.0015	70.1
0.0052	0.003	-0.0068	0.0007	70.1
0.003	0.0015	-0.003	0	70.1
0.0045	0.0015	0.0007	0.0007	70.1
0.003	0.0007	0.0015	0.0007	70.1
0.0007	0	0.0015	0.0007	70.1
0.0015	-0.0008	0.0022	0.0007	70.1
-0.0015	-0.0015	0.003	0.0007	70.1
-0.003	-0.0015	0.0045	0.0007	70.1
-0.003	-0.0023	0.0075	0.0015	70.1
-0.0038	-0.0015	0.0082	0.0007	70.1
-0.0015	-0.0015	0.0067	-0.0023	70.1
-0.0008	-0.0015	0.0045	-0.0015	70.1
0.0015	-0.0015	-0.0015	-0.0015	70.1
0.0015	0.0007	-0.0053	-0.0015	70.1
0.0007	0.0022	-0.0075	-0.0008	70.1
0.0022	0	-0.0105	-0.0038	70.1
0.003	0.0007	-0.0098	-0.003	70.1
0.0037	0	-0.0046	-0.0008	70.1
0.0007	-0.0008	0	0	70.1
0.0007	-0.0008	-0.0015	0.0007	70.1
0.0015	-0.0015	0.0015	0.0007	70.1
0.0007	-0.0015	0.0022	0.0007	70.1
-0.0008	-0.0015	-0.0008	0.0007	70.1
-0.0015	-0.0023	0.0007	0.0015	70.1
-0.0023	-0.003	0.0045	0.0007	70.1
-0.003	-0.003	0.0075	0	70.1
-0.0038	-0.0023	0.0082	-0.0008	70.1
-0.0053	-0.0008	0.003	-0.0008	70.1
-0.0046	0.0007	0.0007	0	70.1
0	0.0007	-0.0015	-0.0008	70.1
0.0022	0.003	-0.0053	-0.0015	70.1
0.0052	0.003	-0.0083	-0.0023	70.1
0.0052	0.0007	-0.0083	-0.0015	70.1
0.0045	-0.0008	-0.0083	-0.0015	70.1
0.003	-0.0008	-0.0046	-0.0023	70.1
0.0015	-0.0008	0.0007	-0.0015	70.1
0.0022	0.0007	0.0007	-0.0023	70.1
0.0007	0.0007	0.003	-0.0023	70.1
0.0015	0.0015	0.0022	-0.0008	70.1
0.0007	0.0007	0.0015	0	70.1
-0.0008	-0.0008	0.003	-0.0008	70.1
-0.003	-0.0008	0.0052	-0.0008	70.1
-0.0046	-0.0015	0.0082	0	70.1
-0.0023	-0.0015	0.0045	0.0007	70.1
-0.0015	-0.0015	0.0045	0	70.1
0.0007	0	0.0015	-0.0023	70.1
0.0037	0.0015	-0.003	-0.003	70.1
0.0052	0.0022	-0.006	-0.0023	70.1
0.006	0.0022	-0.0075	-0.003	70.1
0.0045	0.0015	-0.0068	-0.0015	70.1
0.003	0.0007	-0.0038	0.0015	70.1
0.0015	-0.0008	0	0.0007	70.1
0.0007	0.0007	0.0015	0	70.1
-0.0008	-0.0008	0.0022	0.0007	70.1
-0.0008	-0.0008	0.0007	0.0015	70.1
-0.0008	-0.0008	0	0.003	70.1
-0.0015	-0.0015	0.0037	0.003	70.1
-0.003	-0.0015	0.0052	0.003	70.1
-0.0046	-0.0015	0.009	0.0052	70.1
-0.0046	-0.0008	0.0075	0.0045	70.2
-0.0015	-0.0008	0.0052	0.0007	70.2
0.0007	-0.0008	0.003	0	70.2
0	0.0007	-0.0008	-0.0008	70.2
0.0015	0	-0.0046	-0.0015	70.2
0.003	-0.0015	-0.0091	-0.0008	70.2
0.003	0.0007	-0.0098	-0.0015	70.2
0.0037	0.0007	-0.0075	-0.0008	70.2
0.003	0	-0.006	0	70.2
0.0007	0.0007	-0.0046	0.0015	70.2
-0.003	-0.0023	-0.0023	0.0022	70.2
-0.0023	-0.0023	0.0015	0.0007	70.2
-0.0015	-0.0023	0.0022	0.0015	70.2
-0.003	-0.003	0.003	0.0007	70.2
-0.0023	-0.0015	0.0045	-0.0008	70.2
-0.0015	-0.0015	0.0075	0.0007	70.2
-0.0038	-0.0015	0.009	0.0007	70.2
-0.0023	-0.0008	0.0052	0	70.2
0.0022	0.0007	0.003	0	70.2
0.0015	0.0015	-0.0008	-0.0015	70.2
0.0045	0.0015	-0.003	-0.0023	70.2
0.0052	0.0022	-0.0068	-0.0023	70.2
0.006	0.0045	-0.0113	-0.0015	70.2
0.0075	0.0037	-0.012	-0.0015	70.2
0.0045	0.0015	-0.0091	-0.0023	70.2
0.0037	0.0015	-0.003	-0.0008	70.2
0.0015	-0.0008	-0.0008	0	70.2
0.0007	-0.0008	0.0007	-0.0008	70.2
-0.0008	0.0007	0.0022	0.0007	70.2
-0.0015	0.0007	0.0015	0	70.2
-0.0015	0	0.0015	0.0007	70.1
-0.0046	-0.0008	0.0045	0.0007	70.1
-0.0038	-0.0008	0.0067	-0.0008	70.1
-0.0053	-0.0015	0.0067	-0.0008	70.1
-0.0053	-0.0008	0.0052	-0.0008	70.1
-0.0015	-0.0008	0.0007	-0.0008	70.1
0.0007	-0.0008	-0.0038	0	70.1
0.003	0.0007	-0.0053	0.0007	70.1
0.0082	0.0007	-0.0075	-0.0008	70.1
0.0082	0.0022	-0.0091	-0.0015	70.1
0.006	0.003	-0.0091	-0.0008	70.2
0.0067	0.0007	-0.0053	-0.0015	70.2
0.0045	-0.0008	-0.0008	-0.0015	70.2
0	-0.0015	0.0015	-0.0008	70.2
0	-0.0023	0.0022	0.0007	70.2
-0.0015	-0.0023	0.0015	0.0007	70.2
-0.0023	-0.0023	0.0015	-0.0008	70.2
-0.0023	-0.0038	0.0022	0.0007	70.2
-0.0046	-0.0046	0.0052	-0.0008	70.2
-0.0046	-0.0046	0.009	0	70.2
-0.0008	-0.0046	0.0075	0.0015	70.2
-0.0008	-0.0038	0.006	0.0007	70.2
-0.0008	-0.0046	0.0015	-0.0008	70.2
0.0015	-0.0015	-0.003	-0.0008	70.2
0.0045	0.0007	-0.0053	-0.0008	70.2
0.0037	0.0007	-0.0068	-0.0015	70.2
0.0037	0.0015	-0.0091	-0.0015	70.2
0.0052	-0.0008	-0.0083	-0.0023	70.2
0.0015	0.0007	-0.0023	-0.0015	70.2
0	0.0007	0	-0.0008	70.2
-0.0008	0	0	0.0007	70.2
-0.0023	-0.0008	0	0	70.2
-0.0038	-0.0023	0.0022	-0.0008	70.2
-0.003	-0.0015	0.0052	0.0007	70.2
-0.0015	0	0.0045	0.0007	70.2
-0.0053	0	0.0052	0.0015	70.2
-0.0053	-0.0008	0.0067	0.0007	70.2
-0.0053	-0.0008	0.0075	-0.0008	70.2
-0.003	-0.0008	0.0045	-0.003	70.2
-0.0008	0.0007	0.0015	-0.003	70.2
0.0007	0.0015	-0.003	-0.0008	70.1
0.003	0.0015	-0.0068	-0.0008	70.1
0.0045	0.003	-0.0091	-0.0015	70.1
0.0067	0.0022	-0.0098	-0.0008	70.1
0.0067	0.0015	-0.0046	-0.0008	70.1
0.0037	0	-0.0008	0	70.1
0.0007	-0.0015	0.0015	0.0015	70.1
0	0.0015	0.0007	0.0015	70.1
0.0022	0.0022	0.0007	0.0015	70.1
-0.0008	-0.0008	0.0037	0.0015	70.1
-0.0038	-0.0015	0.0015	0.0015	70.1
-0.0015	-0.0008	0.0045	0.0007	70.1
-0.0015	-0.0008	0.0082	0	70.1
-0.003	-0.0015	0.009	0.0007	70.1
-0.003	0	0.0052	0	70.1
0	0.0015	0.0007	-0.0008	70.1
0.0015	0.0015	-0.0015	-0.0015	70.1
0.003	0.0015	-0.0046	-0.003	70.1
0.003	0	-0.006	-0.003	70.1
0.0015	0.0015	-0.0091	-0.0023	70.1
0.0052	0.0015	-0.0083	-0.0008	70.1
0.006	0.0015	-0.0046	-0.0008	70.1
0.0022	0.0007	-0.0015	-0.0008	70.1
0.0007	0	-0.0015	0.0007	70.1
0	-0.0015	0.0007	0.0007	70.1
-0.003	-0.0023	0.0015	0.0007	70.1
-0.003	-0.0015	0.0022	-0.0008	70.1
-0.003	-0.0015	0.0037	-0.0008	70.1
-0.003	-0.0008	0.0037	0.0007	70.1
-0.003	-0.0015	0.0075	0.0015	70.1
-0.0046	-0.0015	0.0082	0.0007	70.1
-0.0023	-0.0015	0.003	-0.0015	70.1
-0.0015	-0.0008	0.0007	-0.0015	70.1
0.0007	0.0015	-0.003	-0.0023	70.1
0.0022	0.0007	-0.0046	-0.003	70.1
0.0045	0.0007	-0.0053	-0.0023	70.1
0.003	0.0007	-0.0075	-0.0015	70.1
0.0015	0	-0.0068	-0.0008	70.1
0.003	0	-0.003	-0.0008	70.1
-0.0008	-0.0008	0	0	70.1
-0.0015	0	0	-0.0008	70.1
-0.0008	0.0007	0.0015	-0.0015	70.1
-0.0038	-0.0008	0.0007	0.0007	70.1
-0.003	-0.0015	0.003	0.0007	70.1
-0.0023	-0.0023	0.0045	-0.0008	70.1
-0.0023	-0.0023	0.0052	0.0007	70.1
-0.003	-0.0015	0.0067	0	70.1
-0.003	-0.0015	0.0052	-0.0008	70.1
0.0007	0	0.0037	-0.0008	70.1
0.003	0.0015	-0.0015	-0.0008	70.1
0.0045	0.0015	-0.003	-0.0015	70.1
0.0052	0.0015	-0.0053	-0.003	70.1
0.0067	0.003	-0.0075	-0.0046	70.1
0.0067	0.0015	-0.0083	-0.0046	70.1
0.0045	0.0007	-0.0068	-0.003	70.1
0.0037	0.0022	-0.003	-0.0008	70.1
0.0045	0.0015	-0.0008	0.0007	70.1
0.003	0.0015	0.0015	-0.0008	70.1
0.0007	0.0007	0.003	0.0007	70.1
0.0015	0	0.0052	0.0015	70.1
0.003	-0.0008	0.006	0.0015	70.1
0.0037	-0.0015	0.006	0.0015	70.1
0.0022	-0.0023	0.0082	0.0022	70.1
0	-0.0015	0.0082	0.0015	70.1
-0.0008	-0.0015	0.0052	0.0015	70.1
-0.0015	0	0.0007	0	70.1
-0.0015	-0.0008	-0.0015	-0.0008	70.1
0.0007	-0.0015	-0.0053	-0.0008	70.1
0.0022	-0.0008	-0.0083	-0.0015	70.1
0.0022	0	-0.0083	-0.0015	70.1
0.003	0.0015	-0.0068	-0.0015	70.1
0.0007	0.0015	-0.0038	-0.0015	70.1
0.0015	0.0007	-0.0008	0.0007	70.1
0.0007	0.0007	0.0022	0	70.1
-0.0008	0.0007	0.003	0.0007	70.1
0.0007	0.0007	0.0015	0.0015	70.1
-0.0015	-0.0008	0.003	0	70.1
-0.0015	-0.0008	0.0045	0.0007	70.1
-0.003	-0.0015	0.0045	-0.0008	70.1
-0.0046	-0.003	0.0075	0.0007	70.1
-0.0068	-0.0015	0.006	0.0007	70.1
-0.006	0	0.0045	0	70.1
-0.0008	0.0015	0.0007	0	70.1
-0.0015	-0.0008	-0.0046	-0.0008	70.1
0.0007	-0.0008	-0.0068	0.0015	70.1
0.0022	0.0007	-0.012	0	70.1
0.0015	0	-0.0128	-0.0008	70.1
0.003	0.0015	-0.0105	0.0007	70.1
0	-0.0015	-0.006	0.0007	70.1
-0.0015	-0.0015	-0.003	0	70.1
0	-0.0008	0.0007	0	70.1
-0.0015	-0.0015	0.0045	0.0007	70.1
-0.0008	-0.0008	0.0052	0.0007	70.1
-0.0023	-0.0023	0.006	0.0015	70.1
-0.0038	-0.003	0.0022	0.0007	70.1
-0.0038	-0.003	0.0045	0.0007	70.1
-0.0053	-0.003	0.0075	0.0007	70.1
-0.003	-0.0023	0.0045	-0.0008	70.1
-0.0015	-0.0008	0	-0.0023	70.1
0.0022	0.0007	-0.0046	-0.0046	70.1
0.0037	-0.0015	-0.003	-0.0015	70.1
0.0037	-0.0008	-0.0053	-0.0015	70.1
0.006	0.0015	-0.0068	-0.0023	70.1
0.0045	0.0007	-0.0068	-0.0023	70.1
0.003	0.0007	-0.0053	0.0015	70.1
0.0015	-0.0008	0.0007	0.003	70.1
0.0007	-0.0015	0.0015	0.0007	70.1
0.0007	-0.0023	0.003	0.0007	70.1
0.0007	-0.003	0.003	-0.0008	70.1
-0.0015	-0.003	0.0045	0	70.1
0	-0.003	0.003	0.0007	70.1
-0.0015	-0.0008	0.003	-0.0008	70.1
-0.0053	-0.0015	0.0075	0.0007	70.1
-0.0046	-0.0015	0.0052	0.0007	70.1
-0.0046	-0.0008	0.003	0.0007	70.1
-0.003	0	0	-0.0015	70.1
0.003	0.0022	-0.003	-0.0015	70.1
0.0067	0.0015	-0.0068	-0.0015	70.1
0.0067	0.0007	-0.0091	-0.0038	70.1
0.0082	0.0022	-0.0105	-0.0038	70.1
0.006	0	-0.0098	-0.0046	70.1
0.003	0	-0.0038	-0.0023	70.1
0.0007	-0.0008	-0.003	-0.0015	70.1
0	0	-0.0008	-0.0015	70.1
0.0015	0.0007	0.003	0	70.1
0.0015	-0.0008	0.0015	-0.0008	70.1
0.0007	-0.0023	0.003	0	70.1
-0.0015	-0.0015	0.003	-0.0008	70.1
-0.0015	-0.0008	0.0045	-0.0008	70.1
-0.003	-0.0023	0.009	0.0007	70.1
-0.003	-0.0015	0.0067	0.0007	70.2
0	-0.0008	0.0037	0.0015	70.2
-0.0008	-0.0008	0.0007	0	70.2
-0.0008	0.0015	-0.003	-0.0015	70.2
0	0.0015	-0.0038	-0.0008	70.2
0.003	0.0022	-0.0068	0	70.2
0.0052	0.0015	-0.0083	0.0007	70.2
0.0037	0.0015	-0.0053	0	70.2
0.0015	0.0015	-0.0023	0	70.2
0.0007	-0.0008	-0.0023	0.0007	70.2
0.0015	0.0007	-0.0008	0.0007	70.2
-0.0023	-0.0008	0.0007	0.0007	70.2
-0.003	-0.0015	0.003	0.0007	70.2
-0.003	-0.0015	0.0052	0.0015	70.2
-0.0046	-0.0015	0.0052	0.003	70.2
-0.0038	-0.0023	0.009	0.0022	70.2
-0.0038	-0.0008	0.009	0.003	70.2
-0.003	-0.0015	0.006	0.0015	70.2
-0.003	-0.0015	0.0022	-0.0015	70.2
-0.0008	0	0.0007	-0.0015	70.2
0.003	0	-0.0015	-0.0015	70.2
0.0045	0.0007	-0.0105	-0.0023	70.2
0.006	-0.0008	-0.012	-0.003	70.2
0.0067	-0.0008	-0.0098	-0.0015	70.2
0.006	0	-0.006	-0.0008	70.2
0.003	-0.0008	-0.0015	0	70.2
-0.0008	0.0007	-0.0008	0.0015	70.2
-0.0008	0	0.0007	0	70.2
-0.0015	0.0007	0.003	0.0015	70.2
-0.0023	0.0015	0.0015	0.0007	70.2
-0.0015	0.0007	0.003	0.0015	70.2
0.0007	0.0007	0.0052	0.003	70.2
-0.0008	0.0007	0.0067	0.0007	70.2
0	0	0.0082	0.003	70.2
-0.0008	-0.0008	0.0067	0.0015	70.2
-0.0023	0.0007	0.0015	0	70.2
-0.0015	0.0015	-0.0015	-0.0008	70.2
0.0007	0.0015	-0.0053	-0.0015	70.2
0.0037	0.0015	-0.0083	-0.0008	70.2
0.0045	0.0007	-0.0091	-0.0015	70.2
0.0045	0.0007	-0.0091	-0.0008	70.2
0.0022	-0.0008	-0.0046	-0.0008	70.2
0.0037	0	-0.0015	0.0007	70.2
0.003	0.0007	-0.0008	0.0007	70.2
0.0022	0	0.003	0.0007	70.2
0.003	0.0015	0.0015	0.0007	70.2
-0.0015	0	0.0037	0	70.2
-0.0015	-0.0008	0.0067	0	70.2
-0.0015	0.0007	0.0097	-0.0008	70.2
-0.0038	0.0007	0.0112	-0.0008	70.2
-0.003	-0.0008	0.0067	-0.0008	70.1
-0.003	0	0.0037	-0.0008	70.1
-0.0023	0.0007	-0.0015	0.0007	70.1
-0.0008	0.003	-0.0053	-0.0008	70.1
0.0015	0.0022	-0.0075	-0.003	70.1
0.0052	0.0015	-0.0105	-0.0023	70.1
0.0045	0.0022	-0.0091	-0.003	70.1
0.003	0.0015	-0.0053	-0.003	70.1
0.0007	0.0007	0.0007	-0.0015	70.1
-0.0015	0.0015	0.0007	-0.0008	70.1
-0.003	0.0015	0.0015	-0.0008	70.1
-0.0053	0	0.003	0	70.1
-0.0023	-0.0008	0.0022	0.0007	70.1
-0.0015	-0.0015	0.0015	-0.0008	70.1
-0.0015	-0.0015	0.0015	0	70.1
-0.0008	-0.003	0.006	0.0007	70.1
-0.0046	-0.0015	0.009	0.0007	70.1
-0.0046	-0.0023	0.006	0.0007	70.1
-0.003	-0.0015	0.0022	-0.0008	70.1
-0.0008	-0.0023	-0.0023	-0.0015	70.1
0.0007	-0.0023	-0.006	-0.0015	70.1
0.0015	-0.0008	-0.0091	-0.003	70.1
0.0045	-0.0008	-0.0113	-0.0023	70.1
0.0067	-0.0008	-0.0083	-0.0015	70.1
0.006	-0.0008	-0.0053	-0.0008	70.1
0.0037	0.0007	-0.0015	0.0007	70.1
0.0045	-0.0008	0	0	70.1
0.0022	-0.0015	0.0015	-0.0008	70.1
0.0022	-0.003	0.0037	0	70.1
0.0015	-0.003	0.0045	0.0015	70.1
0.0015	-0.0008	0.0052	0	70.1
0	-0.0008	0.0067	-0.0008	70.1
0.0007	-0.0015	0.009	0.0007	70.1
0	-0.0023	0.009	0.0007	70.1
-0.0008	0	0.0045	0	70.1
0.0015	0.0007	-0.0015	-0.0023	70.1
0.0015	0.0007	-0.0053	-0.0023	70.1
0.0045	-0.0015	-0.0068	-0.0023	70.1
0.003	-0.0008	-0.0105	-0.003	70.1
0.0045	0.0015	-0.0105	-0.003	70.1
0.003	0.0015	-0.0083	-0.0023	70.1
0.0015	0.0007	-0.0053	0	70.1
0.003	0	-0.0008	0.0007	70.1
0.0022	-0.0015	0.0015	0.0007	70.1
-0.0008	-0.0008	0.0037	-0.0008	70.1
-0.003	0.0007	0.003	0	70.1
0	0.0007	0.003	0.0015	70.1
0	-0.0008	0.003	0	70.1
0.0007	0	0.0075	0	70.1
-0.003	-0.0015	0.009	0.0015	70.1
-0.0046	-0.0015	0.0045	0.0015	70.1
-0.003	-0.0008	0.0037	0.0007	70.1
-0.0038	-0.0008	0	0	70.1
0.0007	-0.0008	-0.003	0	70.1
0	0.0007	-0.0075	-0.0008	70.1
0.003	0.0015	-0.0113	-0.0015	70.1
0.0037	0.0022	-0.0113	-0.003	70.1
0.0015	0.0015	-0.0068	-0.0023	70.1
0.0015	0	-0.0008	-0.0008	70.1
0	-0.0008	0.0007	-0.0015	70.1
-0.0015	-0.0015	0.0015	-0.0015	70.1
-0.003	0.0007	0.0052	-0.0008	70.1
-0.003	-0.0015	0.0052	0	70.1
-0.003	-0.0015	0.0037	-0.0008	70.1
-0.0023	0.0007	0.0037	-0.0008	70.1
-0.0038	-0.0015	0.0067	0	70.1
-0.0038	-0.0015	0.0082	0.0022	70.1
-0.003	-0.0008	0.0045	0.003	70.1
-0.0038	-0.0015	-0.0015	-0.0008	70.1
-0.0008	-0.0008	-0.003	-0.0008	70.1
-0.0008	0	-0.0053	-0.0015	70.1
0.0015	0	-0.0083	-0.0023	70.1
0.0052	-0.0008	-0.0098	-0.0023	70.1
0.0045	0.0007	-0.0075	-0.0015	70.1
0.0045	0.0007	-0.0015	0.0007	70.1
0.003	-0.0008	0.0007	0	70.1
0.0015	-0.0015	0.0015	-0.0008	70.1
0.0015	-0.0015	0.0045	0.0007	70.1
0	0.0007	0.0045	-0.0008	70.1
0.0007	-0.0008	0.0045	-0.0008	70.1
-0.0008	-0.0023	0.0045	-0.0008	70.1
-0.0038	-0.0008	0.0052	-0.0015	70.1
-0.0046	-0.0015	0.0097	-0.0008	70.1
-0.0053	-0.0023	0.006	-0.0008	70.1
-0.0046	-0.0015	0.0022	-0.0008	70.1
-0.0008	-0.0008	0.0007	0.0007	70.1
0.0015	0.0007	-0.003	-0.0008	70.1
0.0015	-0.0008	-0.006	-0.0008	70.1
0.003	0	-0.0098	-0.0008	70.1
0.0052	0	-0.0091	0	70.1
0.006	-0.0008	-0.0083	0.0007	70.1
0.0045	0.0007	-0.0038	0.0007	70.1
-0.0008	0.0007	0.0007	0.0015	70.1
0.0007	-0.0008	0.0037	0.003	70.1
0.0015	-0.0015	0.0052	0.0007	70.1
-0.0008	0	0.003	-0.0008	70.1
0.0015	0	0.0045	0.0015	70.1
-0.0008	-0.0015	0.0045	0.0022	70.1
-0.0008	0	0.0075	0.0015	70.1
-0.0008	0	0.0082	0.0015	70.1
-0.003	-0.0008	0.0045	0.003	70.1
-0.0023	0.0007	0.0007	0.0007	70.1
-0.0015	0.0015	-0.0023	-0.0008	70.1
0.0015	0.003	-0.0053	0	70.1
0.0037	0.003	-0.0083	-0.003	70.1
0.0067	0.0037	-0.0105	-0.003	70.1
0.009	0.003	-0.0098	-0.0015	70.1
0.0052	0.0015	-0.0068	0.0007	70.1
0.0022	0.0007	-0.0008	0.0007	70.1
0.0015	0	0.0015	-0.0015	70.1
0.0007	-0.0008	0.0022	-0.0015	70.1
-0.0008	-0.0015	0.0067	-0.0015	70.1
-0.0008	-0.0015	0.0052	-0.0008	70.1
-0.0015	0	0.003	-0.0015	70.1
-0.0023	-0.0008	0.0037	-0.0008	70.1
-0.0015	-0.0008	0.0045	-0.0008	70.1
-0.003	-0.0008	0.0067	-0.0008	70.1
-0.0008	-0.0015	0.0067	0.0007	70.1
-0.0008	-0.0015	0.0045	-0.0008	70.1
-0.0015	0	-0.0015	-0.0015	70.1
0.0022	0.0015	-0.0046	-0.003	70.1
0.0007	0.0007	-0.0053	-0.0015	70.1
0.003	0.0007	-0.0068	-0.0008	70.1
0.0045	0.0007	-0.0083	-0.003	70.1
0.0007	0.003	-0.0068	-0.0023	70.1
0.0022	0.0015	-0.003	-0.0008	70.1
0.0007	0.0007	-0.0038	0	70.1
0	0.0007	-0.0008	0.0007	70.1
-0.0008	0	0.0007	-0.0008	70.1
-0.0023	-0.0008	0.0015	-0.0008	70.1
-0.003	-0.0015	0.003	-0.0008	70.1
-0.0046	-0.0015	0.0045	0	70.1
-0.0038	-0.0015	0.0082	0.0007	70.1
-0.0023	-0.0023	0.0075	-0.0008	70.1
-0.0023	-0.0008	0.0045	-0.0008	70.1
-0.003	0.0007	-0.0008	0.0007	70.1
0	-0.0008	-0.0038	-0.0008	70.1
0.0007	-0.0015	-0.0053	-0.0015	70.1
0.003	0.0007	-0.0083	-0.0015	70.1
0.0037	0	-0.0091	-0.0008	70.1
0.0015	0	-0.0083	-0.0008	70.1
-0.0008	-0.0008	-0.0046	0.0007	70.1
-0.0015	-0.0008	-0.0015	0	70.1
-0.0015	-0.0008	0.0015	0.0007	70.1
-0.0008	-0.0008	0.0045	-0.0008	70.1
0	-0.0008	0.003	0.0007	70.1
-0.0015	-0.0015	0.0037	0.0015	70.1
-0.0015	-0.0015	0.0052	0.0007	70.1
-0.0015	-0.003	0.0067	0.0007	70.1
-0.003	-0.003	0.0082	0.0015	70.1
-0.0023	-0.0015	0.0052	0.0007	70.2
-0.0008	-0.0008	0.003	-0.0008	70.2
0	-0.0008	0	-0.0008	70.2
0.003	-0.0015	-0.0046	-0.0008	70.2
0.0067	0.0007	-0.0068	-0.0015	70.2
0.006	0.0015	-0.0098	-0.0023	70.2
0.0052	0.0015	-0.0105	-0.0015	70.2
0.0045	0.0037	-0.0068	0	70.2
0.0015	0.003	-0.003	0.0007	70.2
0.0015	0.003	-0.0008	0.0007	70.2
0	0.0015	0.0007	0	70.2
-0.0023	-0.0008	0.0015	0.0007	70.2
-0.0015	-0.0015	0.003	0.0007	70.2
-0.0015	-0.0008	0.0045	-0.0008	70.2
-0.0015	0.0007	0.006	-0.0008	70.2
-0.0038	-0.0015	0.0082	0.0007	70.2
-0.0046	-0.0008	0.0082	-0.0008	70.2
-0.003	-0.0008	0.0052	-0.0008	70.2
0.0007	-0.0008	0.0037	0	70.2
0.0015	-0.0008	-0.0008	-0.0008	70.2
0.0007	0.0007	-0.0046	0.0007	70.2
0.0022	0.0022	-0.0091	0	70.2
0.0022	0.0022	-0.0098	-0.0015	70.2
0.0045	0.0015	-0.0083	-0.0008	70.2
0.003	0	-0.006	-0.0015	70.2
0	0	-0.0008	-0.0015	70.2
0	-0.0008	0	0	70.2
-0.0023	-0.0008	0.003	-0.0008	70.2
-0.0023	-0.0015	0.0045	-0.0015	70.2
-0.0023	-0.0015	0.0022	-0.0015	70.2
-0.0015	-0.0015	0.0045	-0.0015	70.1
-0.0015	-0.003	0.0052	-0.0008	70.1
-0.0046	-0.003	0.0052	0.0007	70.1
-0.0046	-0.0023	0.0067	0.0007	70.1
-0.0008	-0.0008	0.0045	-0.0015	70.1
0.0007	0.0007	0.0015	-0.0015	70.1
0.003	0.0015	-0.003	-0.0015	70.1
0.0052	0.0015	-0.0083	-0.0038	70.1
0.0045	0.0015	-0.0083	-0.0046	70.1
0.0067	0.0007	-0.0083	-0.0038	70.1
0.0052	0.0007	-0.0083	0.0007	70.1
0.003	-0.0008	-0.0023	0.0022	70.1
0.0015	-0.0008	0.0015	0.0015	70.1
0.0015	-0.0023	0.0007	0.0015	70.1
0.0007	-0.0015	0.003	0.0007	70.1
-0.0008	0	0.003	0.0007	70.1
-0.0008	-0.0008	0.003	0.0007	70.1
-0.0015	-0.0008	0.0045	0.0015	70.1
-0.0015	-0.0015	0.0052	0.0007	70.1
-0.0015	-0.0023	0.0075	0.0007	70.1
-0.0008	-0.0015	0.0015	0.0015	70.1
-0.0008	0	-0.0015	0.0007	70.1
-0.0008	0.0015	-0.0008	0.0007	70.1
0	0	-0.003	-0.0015	70.1
0.003	0	-0.0053	-0.003	70.1
0.0052	0.0007	-0.0083	-0.0023	70.1
0.0052	0.0007	-0.006	-0.0015	70.1
0.0045	0.003	-0.0046	0.0007	70.1
0.0037	0.0007	-0.0015	0	70.1
0.0015	-0.0015	0	-0.0008	70.1
-0.0015	0	0.003	0.0007	70.1
-0.0015	0.0007	0.003	0.0015	70.1
-0.0015	0	0.0022	0.003	70.1
-0.0015	0.0007	0.003	0.0022	70.1
-0.0008	-0.0008	0.003	0.0015	70.1
-0.003	-0.0008	0.0067	0.0015	70.1
-0.003	-0.003	0.0067	0	70.1
-0.0023	-0.0023	0.0045	0.0007	70.1
-0.0008	-0.0015	0.0007	0	70.1
0.0015	-0.003	-0.0046	-0.0008	70.1
0.0037	-0.0015	-0.0053	-0.003	70.1
0.0052	-0.0008	-0.0083	-0.003	70.1
0.0067	0	-0.0105	-0.003	70.1
0.006	-0.0008	-0.0083	-0.003	70.1
0.0037	-0.0008	-0.003	-0.0015	70.1
0.003	-0.0008	-0.0015	-0.0015	70.1
0	-0.0008	-0.0023	-0.0023	70.1
0.0007	-0.0008	0.0007	-0.0015	70.1
0	-0.0008	0	-0.0008	70.1
0	0.0007	0	0.0007	70.1
0	-0.0008	0.0007	0.0015	70.1
-0.0015	-0.0008	0.0037	0.0015	70.1
-0.003	-0.0015	0.0067	0.0007	70.1
-0.003	-0.0038	0.0045	-0.0008	70.1
-0.0008	-0.0023	0.0022	-0.0015	70.1
0.0015	-0.0008	-0.0015	-0.003	70.1
0.0022	-0.0008	-0.003	-0.0038	70.1
0.0022	0	-0.0083	-0.003	70.1
0.0052	0.0007	-0.0083	-0.0015	70.1
0.006	-0.0008	-0.0046	-0.003	70.1
0.003	0	-0.003	-0.0023	70.1
0.0007	0.0007	0	-0.0008	70.1
-0.0008	-0.0008	0.0007	0.0007	70.1
-0.0008	-0.0008	0.0015	0.0007	70.1
-0.003	-0.0008	0.0045	0.0015	70.1
-0.0046	-0.0015	0.0052	0.0007	70.1
-0.0046	-0.0023	0.0045	0.0022	70.1
-0.0023	-0.0015	0.0045	0.0015	70.1
-0.003	-0.003	0.0075	0.0015	70.1
-0.0023	-0.0008	0.0082	0.0015	70.1
-0.0008	0.0007	0.0045	-0.0008	70.1
-0.0015	0.0015	0	-0.0015	70.1
0	0.0022	-0.0015	-0.0023	70.1
0.0007	0	-0.0038	-0.003	70.1
0.003	-0.0008	-0.0083	-0.0015	70.1
0.0052	0.0007	-0.0075	-0.0008	70.1
0.0045	0.0007	-0.006	-0.0008	70.1
0.0015	0.0007	-0.003	0.0007	70.1
-0.0015	0	0.0007	0.0015	70.1
-0.0015	-0.0008	0.0007	0.0007	70.1
-0.0015	-0.0015	0.0015	0.0007	70.1
-0.0015	-0.0015	-0.0008	0.0022	70.1
-0.0015	-0.0008	0.0015	0.0037	70.1
-0.0008	0	0.0052	0.0007	70.1
-0.003	0.0007	0.006	0.0015	70.1
-0.006	0	0.0067	0.0022	70.1
-0.006	-0.0008	0.0082	-0.0008	70.1
-0.0053	0.0007	0.006	-0.0008	70.1
0	0.0015	0.0007	-0.0008	70.1
0.0007	0.0015	-0.0015	-0.0008	70.1
0.003	0.0007	-0.0053	-0.0008	70.1
0.003	0	-0.0083	-0.003	70.1
0.003	0.0007	-0.0105	-0.0015	70.1
0.0067	0.0007	-0.0075	-0.0015	70.1
0.003	0.0007	-0.0023	-0.0008	70.1
0.0007	0	-0.0015	0.0007	70.1
0	0.0007	0.0022	0	70.1
0.0015	-0.0008	0.0037	-0.0008	70.1
0.0037	0.0007	0.0037	-0.0008	70.1
0.0022	0.0007	0.0052	-0.0015	70.1
0.003	-0.0015	0.0045	-0.0008	70.1
0	-0.003	0.0067	-0.0015	70.1
-0.0015	-0.0046	0.0082	-0.0015	70.1
0.0007	-0.0038	0.0052	-0.0015	70.1
-0.0008	-0.0015	0.0045	-0.0015	70.1
0.0015	-0.0015	-0.0008	-0.0008	70.1
0.0045	0	-0.0053	-0.003	70.1
0.0067	0.0015	-0.0068	-0.003	70.1
0.0082	0.003	-0.0091	-0.003	70.1
0.0082	0.003	-0.0083	-0.0023	70.1
0.0045	0.0022	-0.0053	-0.0008	70.1
0.0015	0.0015	-0.0015	0	70.1
-0.0008	0.0007	-0.0008	0.0015	70.1
-0.0038	0.0007	-0.0008	0.0015	70.1
-0.0053	-0.0008	0.003	0.0015	70.1
-0.006	-0.0015	0.003	0.0022	70.1
-0.0053	-0.0008	0.003	0.0015	70.1
-0.0053	-0.0008	0.0045	0.0015	70.1
-0.006	-0.0015	0.0082	0.003	70.1
-0.0046	-0.0015	0.0052	0.003	70.1
-0.0015	-0.0008	0.0022	0.0007	70.1
0.0015	0.0007	-0.0008	-0.0008	70.1
0.0022	0.0015	-0.0053	-0.0008	70.1
0.003	0	-0.0075	-0.0015	70.1
0.0045	0	-0.012	-0.0015	70.1
0.0037	0.0015	-0.0128	-0.003	70.1
0.0045	0.0007	-0.0105	-0.003	70.1
0.0045	0.0015	-0.0068	-0.0008	70.1
0.003	0.0007	-0.0008	-0.0015	70.1
0.0007	0	0.0007	-0.0008	70.1
-0.0008	0.0007	0.006	-0.0008	70.1
-0.0008	-0.0008	0.006	-0.0008	70.1
-0.0015	-0.0015	0.0052	-0.0008	70.1
0	-0.003	0.0067	-0.0015	70.1
0.0007	-0.003	0.006	0.0007	70.1
-0.0008	-0.003	0.009	0.0007	70.1
-0.0008	-0.003	0.0082	0.0007	70.1
-0.0038	-0.0023	0.0052	0.0007	70.1
-0.0015	-0.0008	0.0015	-0.0008	70.1
0.0007	0	-0.0015	-0.0023	70.1
0.0007	-0.0008	-0.0053	-0.003	70.1
0.0015	0.0007	-0.0091	-0.003	70.1
0.003	-0.0008	-0.0083	-0.003	70.1
0.0022	0.0007	-0.0053	-0.0008	70.1
0.0022	0	-0.0008	0	70.1
-0.0008	0	0.0007	0.0007	70.1
-0.003	0.0015	0.0015	-0.0015	70.1
-0.0023	0.0007	0.003	0	70.1
-0.0046	0	0.0022	0	70.1
-0.003	0.0007	0.003	-0.0023	70.1
-0.0023	0	0.0052	-0.0023	70.1
-0.0038	-0.0015	0.006	-0.0015	70.1
-0.0046	-0.0038	0.0067	0.0007	70.1
-0.0038	-0.0008	0.003	0.0007	70.1
-0.0038	0.0015	-0.0015	0.0015	70.1
-0.0015	0.0015	-0.0038	0.0015	70.1
0.0015	0.003	-0.0068	-0.0008	70.1
0.0015	0.0037	-0.0098	0.0007	70.1
0.003	0.003	-0.0128	-0.0008	70.1
0.0045	0.0015	-0.0105	-0.0015	70.1
0.0037	0.0022	-0.0053	-0.0008	70.1
0.0015	0.0015	-0.0015	-0.0008	70.1
0.0015	-0.0015	0.0015	0	70.1
0.0022	-0.0023	0.003	0.0007	70.1
0.0015	-0.0015	0.003	-0.0008	70.1
0.0007	-0.0015	0.0045	-0.0015	70.1
0.0007	-0.0015	0.0037	0	70.1
0.0007	-0.0008	0.003	0.0007	70.1
-0.0008	-0.0008	0.0067	0.0015	70.1
-0.003	-0.0008	0.0075	-0.0008	70.1
-0.003	-0.0008	0.0022	-0.0015	70.1
0	-0.0008	0.0007	0	70.1
0.0015	-0.0008	-0.0023	-0.0023	70.1
0.003	-0.0015	-0.003	-0.0046	70.1
0.0037	0	-0.0091	-0.003	70.1
0.0037	0.0007	-0.0128	-0.0023	70.1
0.0045	0.0037	-0.0091	-0.0008	70.1
0.003	0.0015	-0.0046	0	70.1
0.0022	0.0007	-0.0015	0	70.1
0.0015	0	0.0007	0.0007	70.1
0	0	0.0045	0.0022	70.1
-0.0008	0.0015	0.0045	0.0015	70.1
-0.0008	-0.0008	0.0045	0.0015	70.1
-0.0015	0.0015	0.0052	0.0015	70.1
-0.0015	0.0007	0.006	0.0022	70.1
-0.0023	-0.0015	0.009	0.0015	70.1
-0.0046	-0.0008	0.0067	0.0015	70.1
-0.003	-0.003	0.0045	-0.0008	70.1
-0.0023	-0.003	0.0015	-0.0015	70.1
0.0007	-0.0038	-0.0015	-0.0015	70.1
0.003	-0.0008	-0.0046	-0.0015	70.1
0.0052	0.0015	-0.0091	-0.0015	70.1
0.009	0.0007	-0.0083	-0.0023	70.1
0.0067	0.0015	-0.0023	-0.0015	70.1
0.0022	0.0015	0	0.0007	70.1
0.0007	0	0.0015	0.0007	70.1
-0.003	-0.0008	0.0015	0.0015	70.1
-0.0038	-0.0008	0.0015	0.0007	70.1
-0.0023	-0.0015	0	-0.0008	70.1
-0.0015	-0.0015	0.0022	0.0015	70.1
-0.0015	-0.0023	0.0037	0.0015	70.1
-0.003	-0.0015	0.003	0.0022	70.1
-0.0053	-0.0015	0.0045	0.0015	70.1
-0.0053	-0.0015	0.0037	-0.0015	70.1
-0.0015	0.0015	0.0007	0	70.1
0.0015	0.0007	-0.003	-0.0015	70.1
0.003	0.0007	-0.0053	-0.0008	70.1
0.0037	0.0007	-0.0083	-0.0015	70.1
0.0045	0.0007	-0.0091	-0.0023	70.1
0.0037	0.0007	-0.0083	-0.0023	70.1
0.0022	-0.0008	-0.003	-0.0015	70.1
0.0022	-0.0008	0.0007	-0.0008	70.1
0.0007	-0.0015	-0.0008	-0.0008	70.1
0.0022	-0.0015	0.0007	0.0007	70.1
0.0015	-0.0023	0.0045	0	70.1
0.0015	-0.0046	0.003	-0.0008	70.1
0	-0.0023	0.0045	-0.0015	70.1
0	-0.003	0.0067	-0.0008	70.1
-0.0008	-0.0038	0.0082	0.0007	70.1
-0.0008	-0.0023	0.009	0	70.1
0.0022	-0.0008	0.0045	0.0007	70.1
0.0015	-0.0008	0.0007	0.0007	70.1
0.0022	-0.0008	-0.003	-0.0015	70.1
0.0015	0.0007	-0.0053	-0.0015	70.1
0.003	0.0007	-0.0083	-0.0015	70.1
0.0045	0.0007	-0.0105	-0.003	70.1
0.0045	0.003	-0.0083	-0.0008	70.1
0.003	0.0015	-0.003	-0.0008	70.1
0	0.0015	0	0.0007	70.1
0.0015	0.0022	0.0015	0.0022	70.1
-0.0008	0.0015	0.0007	0.0015	70.1
-0.0023	0	0.0015	0.0022	70.1
-0.003	0.0007	0.0037	0.003	70.1
-0.0015	0	0.0037	0.0007	70.1
-0.0008	-0.0038	0.009	0.0007	70.1
-0.0023	-0.0015	0.012	0.0022	70.1
-0.0015	-0.0008	0.0067	0.0015	70.1
-0.0008	-0.0015	0.003	0.0015	70.1
0	-0.0008	-0.0015	0	70.1
0.0015	0.0007	-0.0023	-0.0008	70.1
0.0015	0.0015	-0.0053	-0.0015	70.1
0.0045	0.003	-0.0091	-0.003	70.1
0.0045	0.003	-0.0105	-0.0015	70.1
0.006	0.0015	-0.0075	-0.0015	70.1
0.003	0.0015	-0.0023	-0.0008	70.1
-0.0015	0.0007	0	0	70.1
0.0007	0.0007	0.0015	0	70.1
-0.0015	0.0007	-0.0008	-0.0008	70.1
-0.0015	0.0007	-0.0008	-0.0008	70.1
-0.0015	0.0015	0.003	0	70.1
-0.0023	0.0007	0.0037	-0.0015	70.1
-0.003	0.0007	0.006	0.0007	70.1
-0.0053	-0.0015	0.0075	0.0022	70.1
-0.0038	-0.0015	0.0052	0	70.1
-0.003	-0.0023	0.0015	-0.0023	70.1
-0.0008	-0.0023	-0.0015	-0.003	70.1
0.0015	-0.0008	-0.0038	-0.0015	70.1
0.003	0	-0.0105	-0.0015	70.1
0.0052	0	-0.0105	-0.0008	70.1
0.003	0.0015	-0.0083	0	70.1
0.0022	0	-0.006	0	70.1
0.0007	-0.0015	0.0007	0	70.1
0	-0.0008	0	-0.0008	70.1
-0.0015	0	0.0022	-0.0015	70.1
-0.003	-0.0008	0.0052	-0.0008	70.1
-0.0015	-0.0015	0.0037	-0.0008	70.1
-0.0023	-0.0008	0.0045	0.0007	70.1
-0.0015	-0.0008	0.0037	0.0015	70.1
-0.0053	-0.003	0.0067	0.0007	70.1
-0.006	-0.003	0.0067	0	70.1
-0.0008	-0.0015	0.0037	-0.0015	70.1
0.0007	-0.0008	0.0015	-0.0015	70.1
0.0015	0.0007	-0.0008	-0.0023	70.1
0.0022	0.0007	-0.0038	-0.003	70.1
0.0052	0.0015	-0.0083	-0.0046	70.1
0.0067	0.0015	-0.0091	-0.003	70.1
0.0052	0.0022	-0.006	-0.003	70.1
0.0052	-0.0008	-0.0008	-0.0008	70.1
0.0015	-0.0015	0.0015	-0.0008	70.1
0.0007	0	0.0007	-0.0008	70.1
-0.0008	-0.003	0.0015	-0.0008	70.1
-0.0038	-0.0023	0.0022	-0.0015	70.1
-0.0015	0	0.003	-0.0008	70.1
-0.0015	-0.0008	0.0037	0.0007	70.1
-0.003	-0.0015	0.006	0.0007	70.1
-0.003	-0.003	0.0075	0.0015	70.1
-0.0053	-0.0046	0.003	0.0007	70.1
-0.0046	-0.003	0.0022	0	70.1
-0.0015	-0.0008	-0.0015	-0.0015	70.1
0.0007	-0.0008	-0.006	-0.0023	70.1
0.003	0	-0.0083	-0.0008	70.1
0.0045	0.0015	-0.0105	-0.0023	70.1
0.0052	0.0022	-0.0083	-0.0023	70.1
0.0037	0.0015	-0.0038	-0.0008	70.1
0.0037	0.0015	-0.0015	0.0007	70.1
0.0015	0.0015	0.0007	0.0022	70.1
-0.0015	0	0.0022	0.003	70.1
0	-0.0008	0.003	0.003	70.1
-0.0015	-0.0008	0.0022	0.0015	70.1
-0.003	-0.0023	0.003	0.0015	70.1
-0.0008	-0.0015	0.0045	0.0007	70.1
-0.0015	-0.0008	0.009	0	70.1
-0.0038	-0.0023	0.009	0.0007	70.1
-0.0015	-0.0008	0.0052	0.0007	70.1
0.0007	0	0.0015	0.0007	70.1
0	0.0007	-0.003	0	70.1
0.0007	0.0015	-0.0046	0.0015	70.1
0.0022	0.0015	-0.0083	0	70.1
0.003	0.0015	-0.0105	-0.0038	70.1
0.0045	0.0015	-0.0083	-0.0015	70.1
0.0022	0	-0.0023	0	70.1
-0.0008	0	0.0007	0.0007	70.1
-0.0008	0	0	-0.0008	70.1
0	-0.0008	0.003	-0.0015	70.1
-0.0008	-0.0015	0.0015	-0.0008	70.1
-0.0015	-0.0015	0.0007	0	70.1
-0.0023	-0.0008	0.0007	0.0015	70.1
-0.0015	0	0.0022	0.003	70.1
-0.0038	-0.0015	0.0082	0.003	70.1
-0.0038	-0.0038	0.0082	0.0015	70.1
-0.0015	-0.003	0.0045	0.0015	70.1
0.0015	-0.003	0.0022	0.0015	70.1
0.0052	-0.0008	-0.003	-0.0015	70.1
0.0075	-0.0008	-0.0083	-0.0023	70.1
0.0045	0.0007	-0.0098	-0.0023	70.1
0.0052	0.0015	-0.0113	-0.003	70.1
0.0067	0.0007	-0.006	-0.0046	70.1
0.0045	0.0015	-0.0015	-0.003	70.1
0.0022	0.0022	-0.0008	-0.0008	70.1
0.0007	0.0007	0.0022	-0.0015	70.1
0.0015	0.0007	0.0022	0.0007	70.2
-0.0008	0	0.0037	0.0015	70.2
0.0007	0	0.0045	0.0007	70.2
-0.0015	0	0.0045	0.0015	70.2
-0.0046	-0.0015	0.006	0.0015	70.2
-0.003	-0.0008	0.009	0.0015	70.2
-0.003	0	0.0082	0.0007	70.2
-0.0015	-0.0008	0.0022	-0.0008	70.2
-0.0023	-0.0015	-0.0008	-0.0008	70.2
0	-0.0008	-0.003	-0.0015	70.2
0.003	-0.0008	-0.0091	-0.0023	70.2
0.0037	0	-0.0113	-0.0038	70.2
0.006	0.0007	-0.0105	-0.003	70.2
0.0052	0.0015	-0.0075	-0.0023	70.2
0.003	0.0007	-0.0015	-0.0008	70.2
0.0022	-0.0008	0.0007	0	70.2
0.0015	-0.0008	0	-0.0008	70.2
-0.0008	-0.0015	0.0015	-0.0008	70.2
-0.0008	-0.0023	0.0015	0	70.2
-0.0015	-0.003	0.0015	0.0007	70.2
-0.0008	-0.0015	0.0015	0.0022	70.2
-0.0015	-0.0015	0.006	0.0015	70.2
-0.0038	-0.0015	0.0082	0.0015	70.2
-0.0015	-0.0008	0.0037	0.0015	70.2
-0.0008	0	0.0007	0	70.2
0.0007	0	-0.0015	-0.0015	70.2
0.003	0.0007	-0.006	-0.0015	70.2
0.0037	0.0007	-0.0075	-0.0023	70.2
0.0045	0.0015	-0.0091	-0.0038	70.2
0.003	-0.0008	-0.0098	-0.003	70.2
0.0007	-0.0008	-0.0053	-0.0015	70.1
-0.0015	0	-0.0008	-0.0015	70.1
-0.0008	-0.0008	0.0007	-0.0015	70.1
0.0007	0.0007	0.0052	0.0007	70.1
-0.0008	0	0.0045	0.0007	70.1
-0.0015	0.0007	0.0052	0	70.1
-0.0015	0.0015	0.0067	0	70.1
-0.0023	0	0.0052	0	70.1
-0.0053	-0.0008	0.0097	0.0022	70.1
-0.0046	0.0007	0.009	0.0007	70.1
-0.003	-0.0008	0.0037	0.0007	70.1
0.0007	0	0.0007	0.0007	70.1
0.0015	0	-0.003	-0.0015	70.1
0.0022	0.0015	-0.0053	-0.0008	70.1
0.0052	0.0007	-0.0105	-0.0046	70.1
0.0052	0.003	-0.0105	-0.003	70.1
0.0052	0.0037	-0.0046	-0.0015	70.1
0.003	0.0015	-0.003	-0.0015	70.1
0	0.0007	-0.0015	0.0007	70.1
-0.0015	0.0007	0.0015	0.0007	70.1
-0.003	-0.0008	0.0015	0.0007	70.1
-0.0015	-0.0008	0.003	0	70.1
-0.0015	0	0.0052	-0.0008	70.1
-0.0015	-0.0008	0.003	0.0007	70.1
-0.0038	-0.0023	0.0045	0.0007	70.1
-0.003	-0.0015	0.006	0.0007	70.1
-0.0038	-0.003	0.0052	-0.0008	70.1
-0.0046	-0.003	0.0022	-0.003	70.1
-0.0008	-0.0015	-0.003	-0.003	70.1
0.003	0	-0.0038	-0.003	70.1
0.0045	-0.0008	-0.0098	-0.003	70.1
0.0045	-0.0015	-0.012	-0.0038	70.1
0.003	-0.0015	-0.0083	-0.0008	70.1
0.003	-0.0008	-0.0053	0.0007	70.1
0.0007	0.0007	0.0015	0.0007	70.1
-0.0008	0.0007	0.003	-0.0008	70.1
0.0007	-0.0008	0.0007	-0.0008	70.1
-0.0008	-0.0023	0.003	0	70.1
-0.0008	-0.003	0.0045	0.0007	70.1
-0.0015	-0.0038	0.0037	0.0022	70.1
-0.0008	-0.0015	0.0045	0.0045	70.1
-0.0008	-0.0015	0.0052	0.0037	70.1
-0.003	-0.0008	0.006	0.003	70.1
-0.0008	0.0015	0.0052	0.003	70.1
0.0007	0.0007	0.0007	0.0015	70.1
0.0015	0.0007	-0.0023	-0.0008	70.1
0.003	0.0007	-0.0068	-0.0008	70.1
0.0022	0.0007	-0.0105	-0.0008	70.1
0.0037	-0.0008	-0.0105	-0.0008	70.1
0.0022	-0.0008	-0.0083	-0.0008	70.1
0.003	0.0015	-0.0053	0.0007	70.1
0.0015	0.0007	-0.0008	0.0007	70.1
-0.0008	0.0007	0.0007	0.0007	70.1
-0.0008	0.0007	0.0022	0.0015	70.1
-0.0008	0.0007	0.003	0	70.1
0.0007	0.0007	0.0052	0.0015	70.1
0	0.0015	0.0045	0.0007	70.1
-0.0008	-0.0008	0.0052	-0.0008	70.1
-0.0023	-0.0015	0.0082	-0.0008	70.1
-0.003	-0.0008	0.0075	-0.0008	70.1
-0.0015	-0.0008	0.0037	0.0007	70.1
0.0007	0.0007	0.0015	0.0007	70.1
0.003	0.0007	-0.0008	0.0015	70.1
0.003	0.0015	-0.0046	0	70.1
0.0037	0.003	-0.0091	-0.0008	70.1
0.003	0.003	-0.0105	-0.0008	70.1
0.0015	0.0015	-0.0091	0.0007	70.1
0	0.0007	-0.0046	0.0007	70.1
-0.0015	-0.0008	-0.0015	0.0007	70.1
-0.0038	-0.0015	0.0007	0	70.1
-0.0046	-0.0008	0.003	-0.0015	70.1
-0.0023	-0.0008	0.0007	-0.0023	70.1
-0.0015	-0.0008	0.0007	-0.0015	70.1
-0.0038	-0.0015	0.0015	-0.0008	70.1
-0.003	-0.0008	0.0045	-0.0008	70.1
-0.0053	-0.0008	0.0052	0	70.1
-0.0091	-0.0008	0.0007	-0.0008	70.1
-0.0075	-0.0015	-0.0008	-0.0023	70.1
-0.0053	-0.0008	-0.003	-0.0046	70.1
-0.0008	0	-0.0046	-0.0038	70.1
0.0045	-0.003	-0.0068	-0.0023	70.1
0.0067	0.0007	-0.012	-0.003	70.1
0.0082	0.0015	-0.0113	-0.0023	70.1
0.0075	0	-0.0053	-0.0008	70.1
0.0052	-0.0015	0.0007	0.0007	70.1
0.0052	-0.003	0.0037	-0.0008	70.1
0.0105	-0.0023	0.0052	-0.0015	70.1
0.0127	-0.0038	0.0052	-0.0008	70.1
0.012	-0.003	0.0082	0.0007	70.1
0.009	0	0.0082	0.0007	70.1
0.0067	0	0.009	0.0007	70.1
0.003	0.0007	0.0142	0.0015	70.1
-0.0015	0.0015	0.012	0.003	70.1
-0.003	0.0015	0.0067	0.0015	70.1
-0.006	0.0022	0.003	-0.0008	70.1
-0.0075	0.0037	-0.0038	0	70.1
-0.0053	0.003	-0.0091	-0.0008	70.1
-0.0023	0.003	-0.0128	-0.0015	70.1
0	0.0037	-0.0165	-0.0023	70.1
-0.0008	0.003	-0.0143	-0.0015	70.1
-0.0053	-0.0008	-0.012	0	70.1
-0.0091	-0.0015	-0.0128	-0.0008	70.1
-0.0083	-0.0015	-0.0113	0.0007	70.1
-0.0075	-0.003	-0.006	0.0015	70.1
-0.0053	-0.0046	-0.0038	0.0007	70.1
-0.0038	-0.006	-0.0068	0.0007	70.1
-0.0015	-0.0053	-0.0068	-0.0008	70.1
-0.003	-0.0046	-0.003	-0.0008	70.1
-0.0038	-0.0023	0.0052	0.0007	70.1
-0.0046	-0.0008	0.015	0	70.1
-0.0046	0.0007	0.0165	-0.0015	70.2
0.0022	0.0015	0.009	-0.003	70.2
0.0105	0.0007	0.009	-0.0046	70.2
0.018	0	0.0082	-0.0053	70.2
0.024	0.0007	0.003	-0.0053	70.2
0.0292	0.003	0.0045	-0.0038	70.2
0.0277	0.0015	0.0112	-0.0015	70.2
0.0202	0.0007	0.0232	0	70.2
0.0157	0.0007	0.0232	-0.0008	70.2
0.0082	0	0.021	0	70.2
0.0037	0.0007	0.0255	0.0015	70.2
0.0007	0	0.0217	0.0015	70.2
-0.003	-0.0015	0.0127	0.0015	70.2
-0.003	-0.003	0.003	0.0015	70.2
-0.0053	-0.0023	-0.0015	0.003	70.2
-0.0053	-0.0015	-0.0015	0.0022	70.2
-0.0053	-0.003	-0.0053	0.0007	70.2
-0.0046	-0.0023	-0.012	0.0007	70.2
-0.003	-0.0008	-0.0143	0.0007	70.2
-0.0015	-0.0015	-0.0158	0.0007	70.2
-0.0015	-0.0008	-0.0218	0.0007	70.2
-0.0015	0.0007	-0.024	-0.0008	70.2
-0.0038	-0.0015	-0.0218	-0.0008	70.2
-0.0053	-0.0008	-0.0158	0.0007	70.2
-0.0068	-0.0015	-0.0105	0.0007	70.2
-0.0083	-0.0038	-0.0091	0.0007	70.2
-0.0053	-0.003	-0.006	0.0007	70.2
-0.0068	-0.0015	-0.0053	0.0007	70.3
-0.006	-0.0023	-0.0023	-0.0008	70.3
-0.0068	-0.0008	0.0007	-0.0015	70.3
-0.0075	-0.0008	0	-0.0008	70.3
-0.0068	-0.0008	0.0045	0.0007	70.3
-0.0068	-0.0008	0.006	0	70.3
-0.0046	-0.0008	0.0052	-0.0008	70.3
-0.0053	0.0015	0.006	-0.0015	70.3
-0.006	0.0007	0.0015	-0.003	70.3
-0.0023	0.0007	-0.0023	-0.0038	70.3
0	0.0007	-0.0075	-0.0023	70.3
0.003	0.0022	-0.0105	-0.0023	70.3
0.0007	0.0022	-0.0091	-0.0023	70.3
-0.0008	0	-0.0105	-0.0015	70.4
-0.0015	0.0007	-0.0128	-0.0008	70.4
-0.003	0.0015	-0.012	0	70.4
-0.0046	0.0007	-0.0098	0	70.4
-0.0068	0.0007	-0.0083	0.0015	70.4
-0.0068	0.0015	-0.0053	0.0015	70.4
-0.0038	0	-0.0053	0	70.4
-0.0023	-0.0015	0.0007	0.0022	70.4
-0.0008	0.0015	0.0067	0.0037	70.4
0.0045	0.0007	0.0052	0.0015	70.4
0.0097	0.0007	0.0075	0.0022	70.4
0.012	0.0015	0.0105	0.0015	70.4
0.0142	0.0015	0.0165	-0.0008	70.4
0.018	0.0007	0.0202	-0.0008	70.4
0.0187	0	0.0157	-0.0038	70.4
0.0217	0.0007	0.0127	-0.0046	70.5
0.018	0.0007	0.012	-0.0023	70.5
0.0127	0.0015	0.0157	0	70.5
0.009	0.0015	0.0202	0.003	70.5
0.0007	0.0022	0.0195	0.0015	70.5
-0.0008	0.0007	0.018	0.0015	70.5
-0.0046	0	0.0165	0.0007	70.5
-0.0083	-0.0015	0.0135	0.0007	70.5
-0.0083	0	0.0082	0.0007	70.5
-0.0105	0.0015	0.003	0.0007	70.5
-0.0091	-0.0015	0.0015	0.0015	70.5
-0.0091	-0.0015	-0.0015	0.0007	70.5
-0.0053	-0.003	-0.0053	-0.0015	70.5
-0.0038	-0.0008	-0.006	-0.0023	70.5
-0.0046	0	-0.0091	-0.0015	70.5
0	-0.0008	-0.0143	-0.0023	70.5
-0.0015	0	-0.0143	-0.0023	70.5
-0.0023	0.0007	-0.0143	-0.0015	70.5
-0.0015	0.0007	-0.0105	-0.0015	70.5
-0.003	0	-0.0083	-0.0015	70.6
0	0.0015	-0.0053	-0.0008	70.6
-0.003	0	-0.0015	0.0007	70.6
-0.0053	-0.0015	-0.0046	0.0007	70.6
-0.0046	-0.0023	-0.0046	-0.0008	70.6
-0.0023	-0.0008	-0.0015	-0.003	70.6
-0.003	-0.0008	0.0007	-0.0008	70.6
-0.0053	-0.0015	0.0052	0	70.6
-0.003	-0.0015	0.0052	0.0007	70.6
-0.003	-0.0015	0.0007	0.0022	70.6
0.0015	-0.0015	-0.0015	0.0007	70.6
0.003	-0.0023	-0.0046	0	70.6
0.0045	-0.0015	-0.0083	0.0007	70.6
0.0082	-0.0015	-0.0091	-0.0008	70.6
0.0052	-0.0008	-0.0091	0	70.6
0.0045	0	-0.0075	-0.0008	70.6
0.003	-0.0008	-0.0015	0	70.6
0.0007	0.0007	-0.0008	-0.0015	70.6
0.003	-0.0008	-0.003	-0.003	70.6
0.0022	-0.0015	-0.003	-0.0023	70.6
-0.0015	-0.0015	-0.0046	-0.0015	70.6
-0.0015	-0.0015	-0.0046	-0.003	70.6
-0.0008	-0.0015	-0.0038	-0.0023	70.6
-0.003	-0.0015	-0.0008	0	70.6
-0.003	-0.0015	0.0015	0.0015	70.6
-0.0015	-0.0008	0	0.0007	70.6
-0.0008	-0.0008	-0.0008	-0.0008	70.6
0.0022	-0.0015	-0.003	-0.0015	70.6
0.0067	0.0007	-0.003	-0.0015	70.6
0.0082	0	-0.003	-0.003	70.6
0.0097	0.0007	-0.003	-0.0023	70.6
0.0105	0.0007	-0.003	-0.0008	70.6
0.0067	0.0015	0.0045	0.0007	70.6
0.0037	0.0015	0.012	0.0007	70.6
0	0.0007	0.0127	-0.0008	70.6
-0.003	0.0007	0.012	-0.0008	70.6
-0.003	-0.0008	0.0112	-0.0008	70.6
-0.0015	0	0.012	-0.0008	70.6
-0.0008	0.0007	0.006	0.0015	70.6
-0.0008	0.0007	0.003	0	70.6
-0.0015	0	0.0067	0.0015	70.6
-0.0038	-0.0008	0.0037	0.0022	70.7
-0.0046	-0.0008	-0.0015	0.0015	70.7
-0.0023	0	-0.003	0.0015	70.7
0.0015	0	-0.0038	0	70.7
0.0052	0.0007	-0.0068	-0.0015	70.7
0.0075	0.0007	-0.0128	-0.0023	70.7
0.0045	0.0007	-0.0165	-0.0046	70.7
0.0022	-0.0008	-0.0143	-0.003	70.7
-0.0015	-0.0008	-0.0053	-0.0015	70.7
-0.0053	-0.0008	-0.003	-0.0008	70.7
-0.006	0	-0.0068	0	70.7
-0.0098	0.0007	-0.0113	-0.0008	70.7
-0.0091	0.0007	-0.0128	-0.0015	70.7
-0.0068	0.0007	-0.0113	-0.0015	70.7
-0.0053	0	-0.0068	-0.0015	70.7
-0.0015	0.0007	-0.003	-0.0008	70.7
-0.0008	0	0.0007	0	70.7
-0.0023	-0.0008	0.0075	0.0007	70.7
-0.0008	-0.0008	0.012	-0.0008	70.7
0.0015	0.0007	0.012	-0.0008	70.8
0.0052	0.0037	0.0075	-0.0008	70.8
0.0105	0.003	0.0082	-0.0015	70.8
0.0127	0.0015	0.0097	-0.0015	70.8
0.0157	0	0.0112	-0.0015	70.8
0.0165	-0.0008	0.0142	-0.0008	70.8
0.0157	-0.0015	0.015	0	70.8
0.0112	-0.0015	0.0165	0	70.8
0.0067	-0.0015	0.0157	-0.0008	70.8
0.0022	-0.0015	0.0112	0.0007	70.8
-0.0008	-0.0015	0.0112	0.0015	70.8
-0.0008	-0.0008	0.012	0.0007	70.8
-0.0015	0	0.009	0.0007	70.8
-0.0015	-0.0038	0.0037	0.0015	70.9
-0.0053	-0.0038	0.0015	0.0015	70.9
-0.0068	-0.003	-0.0023	0.0007	70.9
-0.0046	-0.0023	-0.0091	0	70.9
-0.0091	0.0007	-0.0128	-0.0008	70.9
-0.0046	0	-0.0181	-0.0008	70.9
0.0007	0.0015	-0.0233	-0.0008	70.9
0.0022	0.0022	-0.0233	0.0007	70.9
0.0007	0.0015	-0.024	-0.0008	70.9
-0.006	0.0015	-0.0248	0.0007	70.9
-0.0098	-0.0015	-0.021	0.0007	70.9
-0.012	-0.0015	-0.0203	0.0007	70.9
-0.012	0	-0.015	0.0015	70.9
-0.012	-0.0008	-0.0068	0	70.8
-0.0091	-0.0008	-0.0008	-0.0008	70.8
-0.003	0.0007	0.0045	-0.0015	70.8
-0.0046	-0.0008	0.0067	0.0015	70.8
-0.0046	-0.0038	0.015	0	70.8
0.0007	-0.0053	0.024	-0.0015	70.8
0.0067	-0.006	0.0277	-0.0015	70.8
0.012	-0.0046	0.0292	-0.0015	70.8
0.0157	-0.003	0.0255	-0.0008	70.8
0.018	-0.0008	0.0187	-0.0008	70.8
0.0127	0.0015	0.012	-0.0015	70.7
0.009	0.003	0.006	-0.0015	70.7
0.0082	0.003	0.0022	0.0007	70.7
0.0045	0.003	-0.0008	0.0007	70.7
-0.0008	0.0022	-0.0015	0	70.7
-0.0046	0.0022	-0.0023	0.0015	70.7
-0.0046	0.0015	-0.0046	0.0007	70.7
-0.0068	0.0015	-0.0083	0.0007	70.7
-0.0053	0.0007	-0.0113	0.0015	70.7
-0.0038	-0.0008	-0.0128	0.0015	70.7
-0.0083	-0.003	-0.012	0.0007	70.7
-0.006	-0.003	-0.0083	0.0007	70.7
-0.006	-0.0015	-0.0083	0.0015	70.7
-0.0068	-0.0015	-0.0098	-0.0008	70.7
-0.0046	-0.0015	-0.0091	-0.0008	70.7
-0.003	0	-0.0105	-0.0008	70.7
0.0007	0.0007	-0.0091	-0.0015	70.7
0.0015	0.0015	-0.0083	-0.0015	70.6
0.003	0.0015	-0.0083	-0.0046	70.6
0.0007	0	-0.003	-0.003	70.6
-0.0008	-0.0008	0	-0.0015	70.6
0.0022	0.0007	0.0022	-0.0015	70.6
0.0022	-0.0008	0.0067	-0.0008	70.6
0.003	0	0.0105	0	70.6
0.0052	0.0015	0.0127	0	70.6
0.0052	0.0007	0.0127	0	70.6
0.0052	0	0.009	0.0007	70.6
0.0045	0	0.0097	0.0007	70.5
0.0007	-0.0008	0.0127	0	70.5
-0.0015	-0.0008	0.0157	-0.0015	70.5
-0.0008	0.0015	0.0142	0	70.5
0.003	0.0007	0.0082	-0.0008	70.5
0.0037	-0.0008	0.0052	-0.0015	70.4
0.003	0.0007	-0.0068	-0.0015	70.4
0.0022	0.0007	-0.015	-0.0015	70.4
0.003	-0.0008	-0.0128	-0.0015	70.4
0.0045	0.0007	-0.0098	-0.0008	70.4
0.003	0.0007	-0.0046	0.0007	70.3
0.003	-0.0008	-0.0053	0.0015	70.3
0.0015	-0.0015	-0.0075	0.0007	70.3
0.0022	-0.003	-0.0068	0.0007	70.2
-0.0008	-0.0046	-0.003	0	70.2
-0.003	-0.0038	0.0022	0.0007	70.2
-0.006	-0.0038	0.0045	0	70.2
-0.0105	-0.0023	0.006	0.0007	70.2
-0.0128	-0.0023	0.003	0.0007	70.2
-0.0173	-0.0023	-0.0068	-0.0008	70.1
-0.0195	-0.0015	-0.0173	0	70.1
-0.015	-0.0015	-0.0263	-0.003	70.1
-0.0143	-0.0015	-0.0323	-0.0038	70.1
-0.0128	-0.0015	-0.0308	-0.003	70
-0.0068	-0.0008	-0.0278	-0.003	70
-0.0008	-0.0008	-0.0293	-0.003	70
0.0052	-0.0015	-0.0233	-0.0023	69.9
0.0112	0.0007	-0.015	-0.0015	69.9
0.0157	0.0015	-0.003	-0.0023	69.9
0.021	-0.0008	0.0135	-0.003	69.8
0.0232	0	0.0285	-0.003	69.8
0.027	0.0007	0.0442	-0.0008	69.8
0.0255	0.0007	0.0502	0.0007	69.8
0.024	0.0007	0.0555	0.0007	69.7
0.0202	0.0015	0.0577	0.0007	69.7
0.0127	0.0007	0.0495	0.0015	69.7
0.0067	-0.0008	0.0345	0.0015	69.6
0.0015	0.003	0.0195	0.0015	69.6
-0.0038	0.003	0.009	0.0007	69.6
-0.0091	0.003	0	0.0007	69.5
-0.0135	0.0052	-0.0113	0.0007	69.5
-0.0225	0.0045	-0.0218	0.0007	69.4
-0.0256	0.0037	-0.0263	0.0015	69.4
-0.0203	0.0022	-0.0293	0.0022	69.3
-0.0143	-0.0008	-0.0346	0.0007	69.3
-0.0098	-0.003	-0.0308	-0.0008	69.3
-0.0075	-0.0023	-0.0278	0.0015	69.3
-0.0038	-0.0008	-0.0256	0.0007	69.2
0.0007	0	-0.0203	-0.0008	69.2
0.0045	-0.0015	-0.0195	0.0007	69.1
0.012	-0.0038	-0.012	-0.0008	69.1
0.0202	-0.0038	-0.0068	0	69.1
0.027	-0.0023	-0.003	-0.0008	69
0.0232	0.0015	0.0082	-0.0015	68.9
0.018	0.0007	0.0255	-0.0008	68.9
0.0127	-0.0008	0.0405	0	68.9
0.003	-0.0008	0.0465	-0.0008	68.8
-0.0008	-0.0008	0.045	-0.0008	68.8
-0.003	0	0.0337	-0.0015	68.8
-0.0053	-0.0008	0.0142	-0.0015	68.8
-0.0053	0.0007	0.0045	0	68.7
-0.0075	0.0015	0.0052	0.0007	68.7
-0.0068	0.0007	0.006	-0.0008	68.6
-0.0091	-0.0008	-0.0023	-0.0023	68.6
-0.0091	-0.0008	-0.006	-0.0015	68.6
-0.0091	-0.0023	-0.0053	-0.0008	68.5
-0.012	-0.003	-0.0068	0.0022	68.5
-0.0105	-0.003	-0.006	0.003	68.4
-0.012	-0.0023	-0.0135	0.0015	68.4
-0.0105	-0.0008	-0.0203	0.0015	68.3
-0.0105	-0.0008	-0.0256	0.0007	68.3
-0.0105	-0.0023	-0.0293	0.0007	68.3
-0.0083	-0.0008	-0.03	-0.0008	68.3
-0.0046	0.0015	-0.0308	-0.0015	68.2
-0.0015	0.0007	-0.0293	0.0007	68.2
0	0.0007	-0.0293	-0.0008	68.1
0.0015	0	-0.0195	-0.0015	68.1
0.0067	-0.0015	-0.012	-0.0015	68
0.0127	-0.0015	-0.0053	-0.0015	68
0.0142	-0.0015	0.006	-0.0008	67.9
0.0142	-0.0015	0.0165	-0.0023	67.9
0.0105	-0.0008	0.03	-0.0015	67.9
0.0105	0.0015	0.039	-0.0015	67.8
0.006	0.0007	0.042	-0.0008	67.8
0.0015	0.0022	0.0375	0.0015	67.7
0.0045	0.0015	0.0255	0	67.7
0.0007	0.0015	0.0127	-0.0015	67.6
0.0015	0.0007	0.003	-0.0008	67.6
0.0037	0	-0.0046	-0.0008	67.5
0.0037	0.0015	-0.0128	-0.0015	67.5
0.0052	0	-0.0158	-0.0023	67.5
0.0045	0.0007	-0.0173	-0.0015	67.4
0.0022	0	-0.021	0	67.4
-0.0038	0.0015	-0.0181	0.0007	67.3
-0.0091	0.0015	-0.0165	-0.0015	67.3
-0.0143	-0.0008	-0.012	-0.0023	67.2
-0.0195	0	-0.0053	-0.0023	67.2
-0.0188	-0.0008	-0.0046	-0.0008	67.1
-0.0135	0.0007	-0.0046	0	67.1
-0.0046	0	-0.0015	0	67
0.0007	-0.0008	0.0082	0.0007	67
-0.0008	-0.0015	0.0172	0.0015	67
0.0007	-0.003	0.0217	0.0007	66.9
0.0052	-0.003	0.0217	-0.0023	66.8
0.0075	-0.0053	0.0195	-0.0015	66.8
0.012	-0.0053	0.015	0.0007	66.7
0.0195	-0.003	0.0022	0.0007	66.7
0.027	-0.0038	-0.0046	0.0007	66.6
0.0292	-0.0038	-0.0023	0.0007	66.6
0.0202	-0.0038	0.0045	-0.0015	66.6
0.012	-0.0023	0.0052	-0.0008	66.5
0.003	0.0007	0.0022	0.0007	66.5
-0.0023	0	0.0067	0.0007	66.4
-0.0008	0	0.0015	0.0007	66.3
0.003	0.003	0.0015	0.0007	66.3
0.0082	0.003	0.0045	0.0015	66.3
0.0082	0.003	0.0075	0.0015	66.2
-0.0015	0.0045	0.0157	0.0015	66.1
-0.0091	0.0052	0.0142	0.0015	66.1
-0.0128	0.0037	0.0105	0.0015	66.1
-0.015	0.0022	0.003	0.003	66
-0.0128	0.0015	-0.0105	0.0007	66
-0.0128	0.0015	-0.0165	0	65.9
-0.0113	0.0022	-0.0233	-0.0015	65.8
-0.0105	0.0007	-0.0256	-0.0038	65.8
-0.0098	0.0015	-0.024	-0.0015	65.7
-0.0105	0.0007	-0.0293	0.0007	65.7
-0.012	0	-0.039	0	65.7
-0.0046	0	-0.0405	-0.0008	65.6
-0.003	0	-0.0285	0	65.6
-0.0015	-0.0008	-0.0181	0.0007	65.5
-0.0008	-0.0015	-0.0053	0.0007	65.4
0.0007	-0.0023	0.0067	-0.0008	65.4
0.003	-0.0053	0.018	0.0007	65.3
0.0052	-0.003	0.024	0.0015	65.3
0.0157	-0.0015	0.0255	0	65.2
0.024	-0.003	0.0307	-0.0015	65.2
0.0232	-0.0015	0.039	-0.0015	65.1
0.0202	-0.0008	0.0472	0	65.1
0.0127	0.0045	0.048	-0.0015	65
0.0045	0.003	0.0382	0.0007	64.9
-0.003	0.003	0.021	0.0015	64.9
-0.0046	0.0045	-0.0046	-0.0015	64.8
-0.003	0.003	-0.0263	-0.0008	64.8
-0.006	0.0022	-0.0315	-0.0015	64.7
-0.0083	0	-0.033	-0.003	64.7
-0.012	-0.0008	-0.0315	-0.0015	64.6
-0.0128	-0.0015	-0.0278	-0.0008	64.5
-0.012	-0.003	-0.024	-0.0015	64.5
-0.0135	-0.003	-0.015	-0.0008	64.4
-0.0091	-0.003	-0.0075	0.0007	64.4
-0.0068	-0.003	-0.0008	0.0007	64.3
-0.0083	-0.003	0.0037	0.0007	64.3
-0.0046	-0.003	0.0135	0.0007	64.2
0.0022	-0.003	0.0277	0.0007	64.2
0.0105	-0.0023	0.0345	-0.0008	64.1
0.0165	0.0007	0.0262	-0.0023	64
0.0217	0.0007	0.012	-0.0023	63.9
0.0232	0.0015	0.0037	0	63.9
0.0195	0.0015	-0.0008	0.0015	63.8
0.0135	0.003	-0.0008	0.0007	63.8
0.009	0.0007	-0.0068	0.0007	63.7
0.0045	-0.0008	-0.0098	0	63.6
-0.0023	0.0007	-0.0068	-0.0008	63.5
-0.0068	-0.0008	-0.0038	-0.0008	63.5
-0.0105	0.0015	-0.0015	-0.0015	63.4
-0.0128	0.0007	-0.0038	0	63.4
-0.0135	-0.0008	-0.003	0	63.3
-0.0128	-0.0015	-0.0008	-0.0008	63.2
-0.0105	-0.003	-0.0046	-0.0008	63.2
-0.0105	-0.0008	-0.0091	-0.0015	63.1
-0.0091	0	-0.0105	-0.0015	63
-0.0083	0	-0.0083	-0.0023	63
-0.006	0.0007	-0.0098	-0.0046	62.9
-0.003	-0.0023	-0.0113	-0.006	62.8
-0.0038	-0.0015	-0.0105	-0.0046	62.8
-0.0046	-0.0023	-0.0105	-0.003	62.7
-0.0046	-0.003	-0.0113	-0.0008	62.6
-0.0023	-0.0008	-0.012	0.0007	62.5
-0.0053	-0.0015	-0.0128	0.0007	62.5
-0.006	-0.0015	-0.0143	0	62.4
-0.003	-0.0008	-0.012	0.0007	62.4
0	-0.0008	-0.0046	0.0015	62.3
0.0015	-0.0015	0.0067	0.0007	62.2
0.0015	-0.0046	0.018	0.0007	62.1
0.0067	-0.0023	0.0217	-0.0023	62.1
0.0127	-0.0015	0.027	-0.0046	62
0.0217	-0.0038	0.0277	-0.003	61.9
0.027	-0.0008	0.0277	-0.003	61.9
0.027	0.0022	0.033	-0.0008	61.8
0.0232	0.0045	0.0255	-0.003	61.7
0.0202	0.0045	0.0135	-0.0023	61.6
0.0127	0.003	0.0105	0	61.6
0.0052	0.0015	0.006	-0.0008	61.5
0.0015	0.0007	-0.006	0.0015	61.4
-0.0008	0.0007	-0.0165	0.0045	61.4
-0.0038	0.0007	-0.0248	0.0037	61.3
-0.0068	-0.0008	-0.027	0.003	61.2
-0.012	-0.0023	-0.0256	0.0007	61.1
-0.0181	-0.0015	-0.024	0.0007	61.1
-0.0248	-0.0038	-0.015	0.0015	61
-0.027	-0.003	-0.015	0.0015	60.9
-0.0218	-0.0023	-0.0203	0.003	60.8
-0.0165	-0.0023	-0.0188	0.0022	60.7
-0.015	-0.0008	-0.021	0.0015	60.7
-0.0128	0.0007	-0.0181	0.0007	60.6
-0.0038	0.0022	-0.0068	-0.0008	60.5
0.003	0.0007	0.012	-0.0008	60.4
0.003	0.0007	0.0315	-0.0015	60.3
0.006	-0.0008	0.0405	-0.0008	60.3
0.0127	-0.0008	0.0345	-0.0008	60.2
0.0195	0	0.0292	-0.0008	60.1
0.0255	-0.0008	0.0262	-0.0008	60.1
0.0292	-0.0008	0.0232	-0.0008	59.9
0.027	0.0015	0.0345	0.0015	59.9
0.0217	0.003	0.0397	0.0015	59.8
0.0142	0.003	0.0345	0.0015	59.8
0.0135	0.0037	0.03	0.0022	59.7
0.0157	0.0022	0.021	0	59.6
0.012	0	0.0097	-0.0015	59.5
0.0067	-0.0008	-0.0015	-0.0015	59.4
-0.0023	-0.0008	-0.0158	-0.0015	59.4
-0.0083	-0.0008	-0.027	-0.0008	59.3
-0.0075	0	-0.0308	-0.0008	59.2
-0.0068	0	-0.0368	-0.0015	59.1
-0.0091	0	-0.0368	-0.0008	59
-0.0098	-0.0015	-0.0308	0.0007	58.9
-0.0165	-0.003	-0.0278	0.0007	58.9
-0.0203	-0.0023	-0.0256	0.0007	58.8
-0.021	-0.0015	-0.0278	0.0007	58.7
-0.0203	0.0007	-0.0256	0.0007	58.6
-0.0203	0.0015	-0.0188	0.0007	58.5
-0.0203	0.0015	-0.0165	0	58.5
-0.0135	0.0015	-0.0135	0.0007	58.3
-0.0105	-0.0023	-0.0105	-0.0008	58.3
-0.006	-0.0023	-0.0091	-0.0015	58.2
0.003	-0.0015	-0.0091	-0.003	58.1
0.015	-0.0023	-0.0105	-0.0038	58
0.0232	0.0007	-0.0075	-0.0038	58
0.027	0	0.0037	-0.0053	57.9
0.0322	-0.0008	0.0232	-0.0046	57.8
0.0322	0.0007	0.0367	-0.0015	57.7
0.027	0.003	0.0427	-0.0008	57.7
0.0142	0.003	0.0322	0	57.6
0.0067	0.0015	0.018	0	57.5
0.0015	0.0015	0.012	0	57.5
-0.0068	0	0.012	0.0007	57.4
-0.0105	-0.003	0.0157	0.0022	57.3
-0.0135	-0.0015	0.012	0.0022	57.2
-0.0158	0.0015	0.0037	0.0037	57.1
-0.021	0.0015	-0.0091	0.0037	57.1
-0.0256	0	-0.0203	0.0022	57
-0.0233	-0.0008	-0.0293	0.0015	56.9
-0.021	0	-0.0405	0.0007	56.8
-0.0181	0.0015	-0.048	-0.0015	56.7
-0.0143	0.0007	-0.0503	-0.003	56.7
-0.012	-0.0015	-0.048	-0.0023	56.6
-0.0046	-0.0015	-0.033	-0.0023	56.5
0.0082	-0.0015	-0.0091	-0.003	56.5
0.012	-0.0015	0.0127	-0.0038	56.4
0.0082	-0.003	0.0345	-0.003	56.3
0.0105	-0.0008	0.0577	-0.0008	56.2
0.018	0.0015	0.078	0.003	56.2
0.0255	0.0007	0.0787	0.003	56.1
0.0187	0.0007	0.066	0.003	56
0.0105	0.0007	0.045	0.0022	55.9
0.0097	0	0.0217	0.0007	55.9
0.0105	0.0007	0.006	0.0007	55.8
0.0165	-0.0008	-0.0046	0.0007	55.7
0.018	0.0007	-0.0075	0	55.7
0.0187	0.0022	-0.0113	-0.0015	55.6
0.0127	0.0037	-0.0181	-0.0015	55.5
0.009	0.0037	-0.0278	-0.0015	55.4
0.0075	0.0015	-0.0308	-0.0023	55.3
-0.0015	0.0007	-0.0278	-0.003	55.3
-0.0105	0.0007	-0.0285	-0.003	55.2
-0.0195	-0.0008	-0.0256	-0.0008	55.1
-0.021	-0.0008	-0.0256	0.0007	55
-0.0173	-0.0023	-0.0233	0	54.9
-0.012	-0.003	-0.0158	0.0015	54.9
-0.0075	-0.0046	-0.0091	0.0007	54.8
-0.0091	-0.0046	0.0052	0	54.7
-0.0128	-0.003	0.0217	0	54.7
-0.0158	-0.0023	0.0307	0.0007	54.6
-0.0128	-0.0008	0.0195	0.0015	54.5
-0.0098	-0.0015	0.0082	-0.0008	54.4
-0.0113	-0.0008	0.003	-0.0023	54.4
-0.0091	-0.0008	-0.003	-0.0015	54.3
-0.006	0.0015	-0.006	0.0007	54.2
0.0007	0.003	-0.0158	-0.0008	54.1
0.0127	0.003	-0.0263	-0.0015	54
0.0157	0.0015	-0.0256	-0.0008	54
0.018	-0.0008	-0.0083	-0.0008	53.9
0.0225	0	0.0135	-0.0023	53.8
0.0195	0.0007	0.0345	-0.003	53.7
0.0142	-0.0015	0.0435	-0.0015	53.7
0.0127	-0.0053	0.0405	-0.0015	53.6
0.0075	-0.0053	0.0352	-0.0015	53.5
-0.0053	0	0.0292	0	53.5
-0.0075	0	0.0255	0.0007	53.4
-0.0053	-0.0008	0.0232	0.0015	53.3
-0.0015	-0.0008	0.0097	0.0015	53.2
-0.0008	-0.0023	-0.0091	0.0007	53.1
0.0007	-0.003	-0.0181	0	53.1
0.0007	-0.0015	-0.0256	-0.0015	53
-0.0023	-0.0008	-0.0323	-0.0015	52.9
0.003	-0.0015	-0.0346	-0.0015	52.9
0.0022	-0.0023	-0.0368	0	52.8
-0.0015	0	-0.0315	0.0015	52.7
-0.0008	0.0015	-0.0181	0.0007	52.6
-0.0023	0.0022	-0.0091	0.0022	52.6
-0.0053	0.0022	-0.0023	0.0007	52.5
-0.0053	0.0022	-0.0053	-0.0008	52.4
-0.0068	0.0022	-0.0091	-0.0008	52.3
-0.012	-0.0015	-0.0091	-0.0015	52.2
-0.0053	-0.0023	-0.006	0	52.2
0	-0.0008	0.0067	0.0007	52.1
-0.0008	-0.0015	0.024	0.0007	52
-0.0008	-0.0015	0.033	0.0015	51.9
0.003	-0.0008	0.0255	-0.0008	51.9
0.0067	0.0015	0.0187	-0.0046	51.8
0.0067	0.0015	0.0067	-0.0038	51.7
0.0112	0.0007	-0.012	-0.0008	51.7
0.0112	0.0022	-0.0158	-0.003	51.6
0.009	0.0015	-0.015	-0.0046	51.5
0.0112	-0.0008	-0.012	-0.0023	51.4
0.009	-0.0008	-0.0053	-0.0008	51.3
0.0067	0	0.0082	0.0007	51.3
-0.0008	-0.0008	0.0232	0.0015	51.2
-0.0128	-0.0008	0.0232	0.0015	51.1
-0.0188	-0.003	0.0165	-0.0008	51
-0.0195	-0.003	0.0007	-0.0008	50.9
-0.0195	0	-0.0128	0.0007	50.9
-0.0165	-0.0015	-0.0173	0	50.8
-0.0128	-0.0008	-0.0285	0.0007	50.7
-0.0105	-0.0015	-0.0368	-0.0008	50.7
-0.0068	-0.0008	-0.0353	-0.0038	50.6
-0.003	0.0022	-0.033	-0.0046	50.5
0.0007	0.0007	-0.0218	-0.0046	50.4
0.0067	0.0007	-0.0068	-0.003	50.4
0.0165	0.0007	-0.0008	-0.0008	50.3
0.0285	-0.0008	0.0045	-0.0008	50.3
0.033	-0.0008	0.0105	0.0022	50.2
0.0262	-0.0015	0.0217	0.0015	50.1
0.012	-0.0015	0.0367	-0.0008	50
0.0082	-0.0015	0.0517	0.0015	49.9
-0.0008	-0.003	0.0502	0	49.9
-0.0068	-0.0008	0.0367	-0.0015	49.8
-0.0053	0.0015	0.0277	0.0007	49.8
-0.0053	0.0015	0.0142	-0.0008	49.7
-0.0053	0	0.0082	0	49.6
-0.0053	-0.0008	0.0045	0.0015	49.5
0.0022	0.0007	0	0.0007	49.5
0.0105	0.0015	-0.003	0.0007	49.4
0.0105	0.0022	-0.0128	-0.0015	49.3
0.012	-0.0008	-0.0188	-0.0023	49.3
0.0082	-0.003	-0.0203	-0.003	49.2
-0.0015	-0.003	-0.0188	-0.0023	49.1
-0.0053	-0.0015	-0.015	-0.0008	49
-0.006	0.0007	-0.0105	0.0007	49
-0.0091	0.0015	-0.0098	-0.0008	48.9
-0.0105	0.0007	-0.0195	-0.0008	48.9
-0.0128	-0.0008	-0.0248	0.0007	48.8
-0.0143	-0.0008	-0.0315	0.0007	48.7
-0.0143	-0.0015	-0.0353	0.0007	48.6
-0.0158	-0.003	-0.0375	-0.0008	48.6
-0.0128	-0.003	-0.0368	0.0007	48.5
-0.0075	-0.003	-0.0263	-0.0008	48.4
-0.003	-0.003	-0.0203	-0.0008	48.4
0.0015	-0.0023	-0.0038	0.0007	48.3
0.006	-0.0015	0.0165	-0.0008	48.2
0.0075	0.0015	0.0292	0.0007	48.1
0.0075	0.0015	0.0375	-0.0008	48.1
0.0052	0.003	0.039	-0.0015	48
0.0075	0.0045	0.0307	0.0015	48
0.0082	0.003	0.0157	-0.0008	47.9
0.003	0.0015	0.0105	0	47.8
0.003	0.0007	0.0045	0.0015	47.7
-0.0008	0	0.0037	0	47.6
-0.0053	-0.0008	0.009	0.0007	47.6
-0.0008	-0.0008	0.0067	-0.0008	47.6
0.003	-0.0008	0.0067	-0.0008	47.5
0.009	-0.0008	0.0052	0	47.4
0.0075	-0.0008	0.006	-0.0008	47.3
0.0052	-0.0023	0.015	-0.0008	47.3
0.012	-0.0015	0.021	-0.0008	47.2
0.0172	0.0007	0.0187	0.0007	47.1
0.0172	0.003	0.0142	0.0015	47.1
0.0135	0.0045	0.0082	0.0007	47
0.0105	0.0045	-0.0038	-0.0008	46.9
0.012	0.0045	-0.0068	-0.0008	46.9
0.0082	0.003	-0.0015	-0.0008	46.8
-0.0008	0.0007	0.0022	-0.0015	46.7
-0.0105	0	0.0015	0	46.6
-0.0158	0.003	0.0015	0.0015	46.6
-0.0233	0.003	0.003	0.003	46.5
-0.0315	0.0015	0.006	0.0015	46.4
-0.033	0.003	0.0007	0.0007	46.4
-0.0256	0.003	-0.015	0.0015	46.3
-0.0143	0.0067	-0.0203	0.0022	46.3
-0.0143	0.009	-0.027	0	46.2
-0.0143	0.0052	-0.0465	-0.0015	46.1
-0.0128	0.003	-0.0675	-0.0023	46
-0.0128	0	-0.0675	-0.0015	46
-0.0053	-0.0008	-0.042	0.0007	45.9
0.0015	-0.0015	-0.0143	-0.0023	45.9
0.0067	-0.003	0.0015	-0.0046	45.8
0.0195	-0.0023	0.012	-0.0038	45.7
0.039	-0.0023	0.0225	-0.0038	45.6
0.0555	-0.003	0.0367	0.0007	45.6
0.0585	-0.003	0.063	0.003	45.5
0.0457	-0.003	0.0967	0.0022	45.4
0.0217	-0.0053	0.1057	0.003	45.4
0.009	-0.0053	0.0727	0.0037	45.3
0.0052	-0.0038	0.0262	0.003	45.3
-0.006	-0.003	-0.0068	0	45.2
-0.0143	-0.0015	-0.0203	-0.0008	45.1
-0.0256	-0.0008	-0.0046	-0.0008	45.1
-0.027	-0.0008	0.0082	-0.0008	45
-0.0233	0.0007	-0.0015	-0.0008	45
-0.0218	0.0007	-0.0053	-0.0023	44.9
-0.0165	0.0022	-0.0165	-0.003	44.8
-0.0165	0.0045	-0.0233	-0.0038	44.8
-0.0188	0.003	-0.027	-0.0015	44.7
-0.0165	0.003	-0.0323	-0.0015	44.6
0.0015	0.0007	-0.0413	-0.003	44.6
0.0067	-0.003	-0.0615	-0.0015	44.5
0.0045	-0.0008	-0.0795	-0.003	44.5
0.0105	-0.0015	-0.0713	-0.0008	44.4
0.0127	-0.0046	-0.0465	0	44.3
0.024	-0.003	-0.0338	-0.0008	44.3
0.0247	-0.006	-0.0113	-0.0015	44.2
0.0202	-0.0091	0.0195	-0.0046	44.1
0.0232	-0.0083	0.06	-0.0008	44.1
0.018	-0.0068	0.1095	0.003	44.1
0.0142	-0.0038	0.1365	0.003	44
0.0157	0.0015	0.1237	0.0015	43.9
0.0157	0.0022	0.078	0	43.9
0.0127	0.003	0.0292	0.0015	43.8
0.0127	0.003	-0.0128	0.0007	43.8
0.0052	0.0015	-0.033	-0.0008	43.7
-0.0173	0.0022	-0.0353	0	43.6
-0.039	0.0007	-0.0368	-0.0008	43.6
-0.0488	-0.0008	-0.0503	-0.0015	43.5
-0.0563	-0.003	-0.0608	-0.0015	43.5
-0.0645	-0.003	-0.063	-0.0015	43.4
-0.0578	-0.0023	-0.0728	-0.0015	43.4
-0.0458	-0.003	-0.081	-0.0015	43.3
-0.033	-0.0046	-0.0788	0	43.2
-0.0083	-0.003	-0.0623	0.0007	43.2
0.0082	-0.0015	-0.0308	0.0022	43.1
0.0195	-0.003	0.0127	0.0022	43.1
0.024	-0.003	0.0532	0.0015	43
0.0217	-0.003	0.069	0.0007	42.9
0.039	0	0.075	0	42.9
0.057	0.0015	0.075	0.0015	42.8
0.069	-0.0008	0.0705	0.003	42.8
0.0705	-0.0015	0.0667	0.0015	42.7
0.057	-0.0015	0.048	0.0007	42.7
0.0367	-0.0015	0.0315	0.0007	42.6
0.0082	-0.003	0.0217	-0.0015	42.6
-0.006	-0.0015	0.0082	-0.0015	42.5
-0.0091	0	0.0007	-0.0015	42.4
-0.0143	-0.0008	-0.0046	-0.0008	42.4
-0.0158	-0.0023	-0.0105	-0.0008	42.3
-0.0218	-0.0015	-0.0158	-0.003	42.3
-0.0218	-0.0023	-0.024	-0.0023	42.2
-0.0203	-0.0008	-0.0278	0	42.2
-0.0165	0.0007	-0.0315	0.0007	42.1
-0.0143	-0.0008	-0.0346	-0.0015	42
-0.0165	-0.0008	-0.0405	-0.0015	42
-0.012	-0.0008	-0.0428	-0.0015	41.9
-0.0113	0.0015	-0.039	-0.0023	41.8
-0.0128	0.0022	-0.0338	-0.0015	41.8
-0.0143	0.0022	-0.0293	-0.0038	41.8
-0.0098	0.0037	-0.024	-0.0038	41.7
-0.0023	0.0015	-0.0188	-0.0023	41.6
0.0015	0.0007	-0.0143	-0.0046	41.6
0.0007	0.0007	-0.0023	-0.0015	41.5
0.0007	0.0007	0.0105	0	41.5
0	0.0022	0.018	0.0007	41.4
-0.0053	0.0022	0.0217	0.0015	41.4
-0.0105	0.0007	0.0112	0.0015	41.3
-0.0181	-0.003	-0.0091	-0.0008	41.2
-0.0188	-0.0053	-0.0195	-0.0023	41.2
-0.0068	-0.0038	-0.024	-0.003	41.1
0.0097	-0.0015	-0.027	-0.003	41.1
0.018	-0.0015	-0.0263	-0.0038	41
0.018	-0.0046	-0.012	-0.0053	40.9
0.018	-0.0068	0.0097	-0.0053	40.9
0.0082	-0.0053	0.0277	-0.0038	40.9
-0.003	-0.0053	0.045	-0.003	40.8
-0.0053	-0.003	0.0577	-0.0015	40.7
0.0007	0	0.063	0.0015	40.6
0.0105	0.003	0.0667	0.0052	40.6
0.0105	0.0067	0.075	0.0045	40.6
0.0067	0.0082	0.0525	0.003	40.5
-0.0023	0.0067	0.0165	0.0022	40.5
-0.0143	0.0052	-0.0098	0.0015	40.4
-0.0158	0.0045	-0.0315	0.0007	40.4
-0.0105	0.003	-0.042	-0.0008	40.3
-0.0046	0.0022	-0.0503	-0.0023	40.2
-0.0083	0.0022	-0.0518	-0.003	40.2
-0.0158	0.0007	-0.048	-0.003	40.1
-0.0135	0.0015	-0.0361	-0.0015	40
0.0022	0.0022	-0.0293	-0.003	40
0.021	0.0007	-0.021	-0.0023	40
0.027	0.0007	0.0067	-0.0008	39.9
0.0262	0.0007	0.0405	0.0007	39.8
0.0202	-0.0015	0.0615	0.003	39.8
0.0142	-0.003	0.0577	0.0037	39.7
0.0097	-0.003	0.048	0.003	39.6
0.0007	-0.003	0.0322	0.0015	39.6
0.0007	-0.0023	0.0052	0.0007	39.5
0.0067	-0.0008	-0.0023	0.0015	39.5
0.0157	-0.0008	-0.0068	0.0007	39.5
0.0202	-0.0008	-0.0143	0	39.4
0.0112	-0.0008	-0.0083	-0.0008	39.3
0.006	-0.003	-0.006	-0.0008	39.3
-0.0008	-0.003	-0.012	-0.0008	39.2
-0.0068	-0.0008	-0.012	-0.0015	39.2
-0.0128	-0.003	-0.0128	-0.003	39.1
-0.021	-0.006	-0.0158	-0.0046	39.1
-0.0135	-0.0053	-0.012	-0.0046	39
-0.0046	-0.003	-0.0128	-0.0015	39
-0.0075	0	-0.0098	-0.0008	38.9
-0.0143	0	-0.0046	-0.0008	38.8
-0.0165	0.0007	-0.003	0.0015	38.8
-0.0195	0.0007	0.0037	0.0015	38.7
-0.015	0.0007	-0.0143	0.0037	38.7
0.0052	-0.0008	-0.0413	0.003	38.6
0.012	-0.0023	-0.0465	0.0022	38.6
0.0082	-0.0008	-0.0428	0.0037	38.5
0.0105	0.0007	-0.027	0.0045	38.4
0.024	0.0045	-0.0091	0.0037	38.4
0.0517	0.0075	-0.0046	0.003	38.4
0.0577	0.006	0.015	-0.0008	38.3
0.0315	0.0015	0.066	-0.0046	38.2
-0.0015	0	0.1005	-0.0038	38.2
-0.0158	0.0007	0.0862	-0.0038	38.2
-0.0248	0.0007	0.0532	-0.0046	38.1
-0.0293	-0.0015	0.0307	-0.0046	38
-0.0218	-0.0046	0.0105	-0.0038	38
-0.015	-0.0015	-0.0068	-0.0015	37.9
-0.0188	0.0007	-0.0203	-0.003	37.8
-0.0293	-0.0015	-0.039	-0.0015	37.8
-0.0165	-0.0046	-0.0653	-0.0015	37.8
0.0052	-0.0046	-0.0915	-0.0015	37.7
0.0082	-0.0053	-0.0818	-0.0008	37.6
0.0045	-0.0053	-0.0495	0.0007	37.6
0.0015	-0.0068	-0.0233	0.0007	37.5
0.0142	-0.0068	-0.0023	-0.0008	37.4
0.0315	-0.0015	0.0187	-0.0008	37.4
0.0262	0.0007	0.0577	0	37.3
0.015	0.0015	0.1102	0.0015	37.3
0.0127	0.0037	0.15	0.0015	37.3
0.0067	0.009	0.1372	0.0037	37.2
0.0067	0.009	0.0817	0.003	37.2
0.0052	0.0067	0.0352	0.0015	37.1
0.0007	0.0045	-0.0038	0.0015	37
0.003	0.0015	-0.0293	-0.0008	37
-0.0053	0.0007	-0.0383	-0.0008	36.9
-0.0105	-0.0008	-0.0398	-0.0015	36.9
-0.0128	-0.0046	-0.0383	-0.0023	36.9
-0.0188	-0.0053	-0.0346	-0.0038	36.8
-0.0181	-0.0046	-0.0338	-0.0038	36.8
-0.0105	-0.0023	-0.033	-0.0038	36.7
-0.0046	-0.0008	-0.0353	-0.0053	36.7
-0.0083	-0.003	-0.0383	-0.0046	36.6
-0.0143	-0.0023	-0.0323	-0.0046	36.5
-0.0135	0.0015	-0.03	-0.0046	36.5
-0.0143	0.003	-0.0353	-0.0053	36.4
-0.0128	0.003	-0.0413	-0.0046	36.4
-0.006	0.0022	-0.0458	-0.003	36.3
-0.006	0.0015	-0.0383	-0.0023	36.3
-0.006	-0.0015	-0.0256	-0.0008	36.3
-0.003	-0.0046	-0.015	0.0007	36.2
0.009	-0.003	-0.0143	0.003	36.1
0.0217	-0.0053	-0.0181	0.0022	36.1
0.0217	-0.0053	0.0022	0.0015	36
0.0165	-0.0053	0.042	0.0007	36
0.0217	-0.003	0.0667	0.0015	35.9
0.027	0.0007	0.0802	0.003	35.9
0.015	0.0015	0.0795	0.0022	35.8
0.0045	0.003	0.0607	0.0015	35.8
-0.0068	0.0022	0.0375	-0.0015	35.7
-0.0128	0.0022	0.0082	-0.0038	35.6
-0.006	0.003	-0.0143	-0.0046	35.6
-0.0015	0.003	-0.0165	-0.0053	35.5
-0.0046	0.0045	-0.0181	-0.0046	35.5
-0.0083	0.0037	-0.0091	-0.0038	35.5
-0.0113	0.0015	-0.0083	-0.003	35.4
-0.0128	0.0015	-0.0165	-0.0015	35.3
-0.0128	0.0007	-0.0165	0.0007	35.2
-0.0158	0	-0.0218	0.0007	35.2
-0.0165	-0.0015	-0.0195	-0.0015	35.2
-0.0143	-0.0008	-0.0158	0.0007	35.1
-0.0068	-0.0015	-0.0181	0.0007	35.1
0.0015	-0.0008	-0.0173	0.0022	35
0.003	-0.0015	-0.0135	0.003	35
-0.003	-0.003	-0.0105	0.0015	34.9
-0.0143	0	-0.0218	0	34.9
-0.0165	0.003	-0.0346	-0.0015	34.8
-0.012	0.0045	-0.0436	-0.0015	34.8
-0.0143	0.003	-0.0398	-0.0015	34.7
-0.0105	0	-0.0195	-0.0015	34.7
0.0105	0.0007	0	-0.0023	34.6
0.0382	-0.0015	0.0172	0	34.6
0.0517	-0.0075	0.0262	-0.0008	34.5
0.06	-0.0105	0.0427	-0.0008	34.5
0.063	-0.0068	0.0615	0.0015	34.4
0.0442	-0.0046	0.0705	0.0045	34.4
0.0217	-0.0015	0.0712	0.0052	34.3
0.0045	0	0.0652	0.003	34.2
-0.0173	-0.003	0.0577	0.0015	34.2
-0.0233	-0.0008	0.036	0.003	34.2
-0.0143	-0.0008	0.0247	0.0045	34.1
-0.0015	0	0.0232	0.0045	34.1
0.0015	-0.0015	0.0022	0.0022	34.1
-0.0098	-0.0015	-0.0165	0.0015	34
-0.0165	0.0007	-0.0375	-0.0008	34
-0.024	0.0007	-0.0428	-0.0008	33.9
-0.03	0.003	-0.03	-0.0008	33.9
-0.0233	0.0052	-0.0256	-0.0008	33.8
-0.0195	0.0052	-0.024	-0.0008	33.8
-0.0173	0.0067	-0.0278	0	33.7
-0.0046	0.0067	-0.03	0	33.7
0.015	0.0045	-0.033	-0.0008	33.7
0.0225	-0.0008	-0.033	-0.0008	33.6
0.0217	-0.0015	-0.027	-0.0008	33.6
0.0202	-0.003	-0.0181	-0.0008	33.5
0.0037	-0.0068	-0.003	0.0007	33.5
-0.0143	-0.0075	0.0067	0.0045	33.4
-0.0256	-0.0091	0.0075	0.0045	33.3
-0.0398	-0.0113	0.0045	0.003	33.3
-0.0458	-0.0091	-0.0008	0.0022	33.3
-0.0383	-0.0053	-0.0113	0.0015	33.3
-0.033	0	-0.0346	0.0015	33.2
-0.0278	0.0045	-0.048	0.0022	33.2
-0.0046	0.0052	-0.0458	0.0022	33.2
0.0165	0.0067	-0.033	0.003	33.1
0.018	0.006	0.0082	0.0045	33.1
0.0232	0.0045	0.045	0.006	33
0.027	0.0015	0.0525	0.003	33
0.0352	0.0015	0.048	0.0045	32.9
0.0435	0.0045	0.045	0.0052	32.9
0.0352	0.0037	0.0652	0.0045	32.8
0.0352	0.0067	0.072	0.006	32.8
0.051	0.0112	0.0727	0.006	32.8
0.0555	0.0082	0.075	0.003	32.8
0.0457	-0.0008	0.0517	-0.0008	32.7
0.0277	-0.0015	0.0345	-0.0023	32.7
0.003	0.0045	0.0015	-0.003	32.6
-0.0075	0.0015	-0.0405	-0.0068	32.5
-0.0203	-0.0038	-0.09	-0.0091	32.5
-0.0323	-0.0053	-0.1411	-0.0098	32.5
-0.0368	-0.0083	-0.1628	-0.0098	32.5
-0.0346	-0.0083	-0.156	-0.0083	32.4
-0.012	-0.0128	-0.1245	-0.0053	32.4
0.0105	-0.0105	-0.0915	0	32.4
0.0187	-0.0015	-0.0128	0.0045	32.4
-0.0105	-0.0046	0.0922	0.0045	32.3
-0.027	-0.0083	0.1507	0.0052	32.3
-0.0023	-0.006	0.1635	0.0052	32.3
0.0082	-0.0053	0.1672	0.0037	32.2
-0.012	-0.0091	0.1402	0.0015	32.2
-0.0256	-0.012	0.0795	-0.0008	32.2
-0.0143	-0.0113	0.0442	0	32.1
0.003	-0.0053	0.027	0.0015	32.1
0.0217	0.003	0.009	-0.003	32.1
0.0195	0.0105	-0.0218	-0.003	32
0.0075	0.0135	-0.0315	-0.003	32
0.0007	0.015	-0.024	-0.0046	32
-0.0046	0.0127	-0.0323	-0.0053	31.9
-0.0023	0.0082	-0.0518	-0.0068	31.9
-0.0068	-0.0008	-0.048	-0.0053	31.9
-0.012	-0.0015	-0.0038	-0.0068	31.9
-0.0105	-0.0008	0.006	-0.0053	31.8
-0.0008	-0.003	-0.0008	-0.0038	31.8
0.0007	-0.003	-0.0038	-0.0038	31.8
0.0015	-0.0015	-0.012	-0.0038	31.7
0.0022	0.0007	-0.0143	-0.0023	31.7
-0.0113	0.0007	-0.0225	0	31.7
-0.0173	-0.0015	-0.0256	0.0007	31.6
-0.0203	-0.0015	-0.0405	-0.0008	31.6
-0.0346	-0.0015	-0.0436	-0.0053	31.6
-0.039	-0.0015	-0.0346	-0.0075	31.5
-0.0165	-0.0015	-0.0308	-0.0083	31.5
0.0082	-0.0015	-0.024	-0.0068	31.5
0.0232	-0.0008	-0.0203	-0.0068	31.5
0.0382	-0.003	0.006	-0.006	31.4
0.054	-0.0053	0.0517	-0.0008	31.4
0.057	-0.0046	0.0757	0.0022	31.4
0.0487	-0.0038	0.0585	0.0022	31.3
0.0285	-0.006	0.0345	0.0015	31.3
-0.0015	-0.0068	0.0202	0.0007	31.3
-0.012	-0.0053	0.0045	0.0022	31.2
-0.012	-0.0023	-0.003	0.0022	31.2
-0.0105	0.0007	0.0052	0.0007	31.1
-0.0158	0.0007	0.0075	0.0022	31.1
-0.0248	0	-0.0046	0.003	31.1
-0.0218	0.0007	-0.0128	0.0015	31
-0.0165	-0.0008	-0.024	-0.0008	31
-0.0181	-0.003	-0.0428	-0.0015	31
-0.0158	-0.0038	-0.0518	-0.003	31
-0.0105	-0.0015	-0.0413	-0.0053	30.9
-0.0015	0.0015	-0.033	-0.0068	30.9
0.012	0.0045	-0.0293	-0.0075	30.8
0.0127	0.0022	-0.0233	-0.006	30.8
0.0157	0.0007	-0.0173	-0.003	30.8
0.018	0	-0.024	-0.0015	30.7
0.0052	0.0022	-0.0383	-0.0038	30.7
-0.0165	0.0052	-0.0495	-0.0023	30.7
-0.0248	0.0045	-0.075	-0.0008	30.6
-0.0143	-0.003	-0.0983	-0.003	30.6
-0.0008	-0.0068	-0.0863	-0.003	30.6
0.0015	-0.0098	-0.0473	-0.0015	30.6
0.0045	-0.0105	0.0127	0	30.5
0.0082	-0.0046	0.075	-0.0008	30.5
0.0082	-0.0015	0.1342	-0.0015	30.5
0.0232	0.0037	0.1777	0.0007	30.4
0.024	0.0127	0.1942	0.0007	30.4
0.0037	0.0127	0.1777	-0.0008	30.3
-0.0128	0.0127	0.1042	-0.0008	30.3
-0.0165	0.012	0.0412	-0.0015	30.3
-0.0091	0.0082	0.0075	-0.003	30.2
-0.0128	0.0015	-0.0308	-0.003	30.2
-0.0181	-0.0023	-0.075	-0.0008	30.1
-0.0105	-0.0068	-0.0998	0	30.1
-0.0053	-0.0068	-0.0915	0.0007	30.1
0.003	-0.0023	-0.0825	0.0045	30.1
0.0307	0.0015	-0.0706	0.0022	30
0.0487	0.0037	-0.0308	0.0015	30
0.033	0.0015	0.0442	0.0067	29.9
0.0165	-0.0015	0.1117	0.0075	29.9
0.0195	-0.0015	0.1215	0.0052	29.9
0.0195	-0.0008	0.0817	0.003	29.9
0.018	0.0037	0.0315	0.0015	29.8
0.0157	0.0067	-0.0203	-0.0046	29.8
0.0105	0.012	-0.0675	-0.0091	29.8
0.0067	0.0112	-0.0885	-0.0091	29.7
0.0022	0.0082	-0.1118	-0.0083	29.7
-0.0075	0.0045	-0.1253	-0.0053	29.7
-0.0293	-0.0008	-0.1253	-0.0053	29.7
-0.0315	-0.0046	-0.114	-0.0046	29.7
-0.0105	-0.006	-0.093	-0.0008	29.6
0.0112	-0.0053	-0.0675	0.003	29.6
0.0142	-0.006	-0.0225	0.0052	29.6
-0.0105	-0.0091	0.0532	0.0067	29.5
-0.0233	-0.0068	0.15	0.0082	29.5
-0.0256	-0.0015	0.183	0.012	29.5
-0.0218	-0.0008	0.1402	0.009	29.4
-0.027	-0.003	0.0915	0.0037	29.4
-0.0203	-0.0008	0.054	0.003	29.3
0.0015	0.0022	0.0495	0.0015	29.3
0.0052	0.0067	0.0555	-0.0008	29.3
0.0127	0.009	0.0112	-0.0015	29.3
0.0067	0.009	-0.0593	-0.003	29.2
0.006	0.0075	-0.0908	-0.0015	29.2
-0.0015	0.003	-0.0878	0.0022	29.2
-0.0165	0.003	-0.078	0.0015	29.2
-0.0233	-0.0023	-0.0555	0	29.2
-0.012	-0.0038	-0.0361	0	29.1
0.0075	-0.003	-0.0195	0	29.1
0.0015	-0.003	0.0217	0.0015	29.1
-0.0046	-0.0008	0.09	0.0022	29
-0.0053	-0.003	0.1245	0.0045	29
0.0202	0.0015	0.0952	0.0052	29
0.0517	0.0045	0.0487	0.003	28.9
0.0607	0	0.0127	0.0007	28.9
0.057	0.0007	0.0007	-0.0008	28.9
0.045	0	0.0037	0	28.8
0.0255	-0.003	-0.0158	-0.0015	28.8
0.006	-0.0046	-0.0338	-0.003	28.8
0.0045	-0.0068	-0.0346	-0.0015	28.8
-0.0075	-0.0053	-0.039	-0.0023	28.8
-0.0233	-0.0046	-0.0548	-0.0008	28.7
-0.0368	-0.003	-0.0721	0.0007	28.7
-0.0443	-0.003	-0.0735	0.0007	28.7
-0.048	-0.0053	-0.0728	-0.0015	28.7
-0.048	-0.0075	-0.0728	-0.003	28.6
-0.039	-0.006	-0.0608	0.0007	28.6
-0.0353	-0.006	-0.0323	0.0045	28.6
-0.0315	-0.0053	0.006	0.0082	28.5
-0.03	-0.0046	0.039	0.0067	28.5
-0.03	-0.003	0.048	0.0045	28.5
-0.0293	0	0.03	0.0045	28.5
-0.0195	0.0052	0.0157	0.0015	28.4
0.0022	0.009	0.015	-0.0008	28.4
0.0202	0.009	0.024	-0.003	28.4
0.0555	0.0097	0.039	-0.0008	28.4
0.0892	0.0097	0.0495	0.0007	28.3
0.0892	0.0067	0.0555	-0.0015	28.3
0.0855	0.009	0.0382	0.0007	28.3
0.0802	0.009	0.0292	0.0015	28.3
0.054	0.0082	0.048	0.0037	28.3
0.027	0.0067	0.069	0.006	28.2
0	0.003	0.0675	0.0045	28.2
-0.0135	0.0007	0.0322	0.003	28.2
-0.0203	-0.0046	0.018	0.0015	28.2
-0.0361	-0.0098	-0.0053	0.0015	28.2
-0.039	-0.0091	-0.0285	-0.0015	28.1
-0.039	-0.0046	-0.0353	-0.0046	28.1
-0.0383	-0.0015	-0.0436	-0.0038	28.1
-0.0428	0.0015	-0.0465	-0.0038	28.1
-0.0623	0.0015	-0.0713	-0.0046	28
-0.0743	-0.0015	-0.1028	-0.0053	28
-0.0698	-0.0046	-0.1343	-0.0068	28
-0.0518	-0.0075	-0.1358	-0.003	27.9
-0.0113	-0.0068	-0.1073	0	27.9
0.0345	-0.0075	-0.0608	0.0007	27.9
0.0495	-0.0068	0.0165	0.0045	27.9
0.0375	-0.0053	0.0885	0.006	27.9
0.021	-0.0015	0.1462	0.009	27.8
0.006	0.0037	0.1837	0.0127	27.8
-0.0075	0.0052	0.1672	0.0105	27.8
-0.0023	0.009	0.1057	0.0127	27.8
0.009	0.0097	0.054	0.0105	27.8
0.024	0.0082	0.024	0.0067	27.7
0.0465	0.0082	0.012	0.003	27.7
0.0577	0.009	0.0022	-0.003	27.7
0.057	0.012	-0.0233	-0.0068	27.7
0.0495	0.009	-0.0346	-0.012	27.6
0.0442	0.003	-0.0278	-0.0158	27.6
0.0307	-0.0023	-0.0165	-0.0165	27.6
0.0082	-0.0075	-0.0075	-0.0113	27.6
-0.0188	-0.0075	-0.0143	-0.006	27.5
-0.0436	-0.0046	-0.0218	-0.0038	27.5
-0.0645	-0.0075	-0.0285	-0.0015	27.5
-0.0668	-0.0091	-0.054	-0.0008	27.5
-0.0668	-0.0083	-0.0856	0	27.5
-0.0683	-0.0083	-0.1193	0.0007	27.4
-0.0578	-0.0083	-0.1305	0.0037	27.4
-0.0398	-0.0083	-0.1208	0.0045	27.4
-0.0091	-0.0068	-0.1058	0.003	27.4
0.0195	-0.0046	-0.0706	0.0037	27.4
0.0352	-0.003	0.0037	0.0037	27.4
0.0285	-0.0015	0.096	0.003	27.3
0.0465	0.0015	0.1417	0.0007	27.3
0.0667	0.0105	0.1545	-0.0008	27.3
0.045	0.015	0.159	0.0015	27.3
0.0382	0.0165	0.1162	0.0007	27.3
0.024	0.0105	0.0727	-0.0008	27.2
0.0067	0.0067	0.0465	-0.0008	27.2
0.0037	0.0075	0.0142	-0.0008	27.2
-0.0075	0.0045	-0.0046	-0.0008	27.2
-0.0053	0.0045	-0.0218	-0.0008	27.2
-0.0008	0.0007	-0.0375	-0.0023	27.1
0	-0.0008	-0.0465	0	27.1
-0.0105	0.0007	-0.0458	0.0022	27.1
-0.0315	-0.003	-0.039	0.003	27.1
-0.042	-0.0023	-0.0338	0.0022	27.1
-0.0353	-0.0023	-0.024	-0.0015	27
-0.0143	-0.0023	-0.0128	-0.0038	27
0.0007	-0.0023	0.0015	-0.0053	27
0.0135	-0.0008	0.0045	-0.006	27
0.0307	0.0015	0.0067	-0.0046	27
0.0375	0.0007	0.006	-0.0038	27
0.0165	0.0015	-0.0075	-0.0008	26.9
-0.012	-0.0008	-0.0225	0	26.9
-0.0218	-0.0015	-0.033	0.0007	26.9
-0.0368	-0.0053	-0.0233	0.003	26.9
-0.0443	-0.0053	-0.021	0.003	26.8
-0.0368	-0.0053	-0.0278	0.0052	26.8
-0.0181	-0.0023	-0.0293	0.0067	26.8
0.0075	-0.0015	-0.0368	0.0045	26.8
0.0105	-0.0068	-0.0458	0.0037	26.7
0.0262	-0.0075	-0.039	0.003	26.7
0.0465	-0.0046	0.0052	0.0015	26.7
0.042	-0.0046	0.0487	-0.0008	26.7
0.0457	-0.003	0.0585	-0.003	26.7
0.0367	-0.003	0.0502	-0.0083	26.6
0.018	-0.0008	0.0322	-0.0091	26.6
0.024	0.0045	0.0082	-0.0068	26.5
0.0165	0.0052	-0.0128	-0.003	26.5
0.0082	0.0007	-0.0361	-0.0038	26.5
0.0022	-0.0038	-0.054	-0.0046	26.5
0.0015	-0.0015	-0.0338	-0.0015	26.5
-0.0038	-0.0015	0.0007	0.0015	26.5
-0.0083	-0.0053	0.0202	0.0022	26.5
-0.0046	-0.0053	0.045	0.003	26.5
-0.0256	-0.0075	0.078	0.003	26.4
-0.0308	-0.0046	0.1162	0.0067	26.4
-0.0203	0.0007	0.129	0.0075	26.4
-0.0256	0.0007	0.0832	0.0015	26.4
-0.0218	0.0045	0.024	0	26.4
-0.0083	0.0052	0.0007	-0.0008	26.3
0.009	0.0045	-0.015	-0.0015	26.3
0.024	0.0045	-0.0278	-0.0015	26.3
0.0285	0.0052	-0.024	-0.0038	26.3
0.0157	0.0075	0.0022	-0.0046	26.2
0.0067	0.003	0.0172	-0.003	26.2
0.0022	-0.003	-0.021	-0.003	26.2
-0.0053	-0.003	-0.0608	-0.0038	26.1
-0.0203	-0.0046	-0.0743	-0.0038	26.1
-0.039	-0.0075	-0.0856	-0.0015	26.1
-0.0495	-0.0083	-0.0818	0.0007	26.1
-0.0495	-0.0083	-0.0645	0.0007	26.1
-0.042	-0.0083	-0.0315	0.0007	26.1
-0.0181	-0.0083	0.0015	0.0015	26.1
0.0015	-0.0083	0.0405	0.0015	26.1
0.0007	-0.0091	0.0727	-0.0008	26.1
0.0277	-0.0046	0.0705	-0.0015	26.1
0.0502	-0.0015	0.0532	-0.0008	26.1
0.0472	-0.0008	0.0307	-0.0008	26.1
0.0367	0.0015	0.0165	-0.0046	26.1
0.0195	0.0015	0.015	-0.003	26.1
0.021	0.0067	0.0097	-0.0008	26.1
-0.0008	0.0067	0.0007	0.0007	26.1
-0.0158	0.0052	0.0045	0.003	26.1
-0.0105	0.0067	0.009	0.003	26.1
-0.0098	0.0052	0.003	0.0015	26
-0.0128	0.0052	0.0015	0.0007	26
-0.0181	0.0007	0.0022	0.0015	26
-0.003	0.0015	-0.0008	-0.0015	26
-0.0068	0.003	-0.0113	-0.0015	26
-0.012	-0.0008	-0.0195	0.0015	26
-0.0128	-0.0023	-0.0293	-0.0008	26
-0.03	-0.003	-0.0495	0.0007	26
-0.0428	-0.0053	-0.0728	-0.0023	26
-0.033	-0.0083	-0.0788	-0.0046	25.9
0.0052	-0.0053	-0.0713	-0.003	25.9
0.0442	-0.0008	-0.0638	-0.0046	25.9
0.0682	0.003	-0.0278	-0.003	25.9
0.0757	0.0052	0.0337	-0.0015	25.9
0.063	0.0052	0.0817	-0.0008	25.9
0.027	0.0015	0.081	0.0007	25.9
-0.0046	-0.0038	0.0622	0.0022	25.8
-0.0128	-0.0053	0.0555	0.0015	25.8
-0.0181	-0.003	0.0352	0	25.8
-0.0091	-0.0046	0.0135	-0.0015	25.8
0.0052	-0.0068	0.0037	-0.0015	25.8
0.0037	-0.0091	0.0052	-0.0008	25.8
0	-0.0098	0.0165	-0.0008	25.7
0.0067	-0.0068	0.0165	0	25.7
0.006	-0.0023	0.0082	-0.0008	25.7
-0.0105	0.0022	-0.006	-0.0015	25.7
-0.0218	0.0052	-0.012	-0.003	25.7
-0.0285	0.006	-0.0203	-0.0046	25.7
-0.0353	0.009	-0.0368	-0.003	25.7
-0.0233	0.0127	-0.0458	-0.0023	25.7
-0.015	0.0135	-0.0518	-0.003	25.7
-0.0091	0.012	-0.048	-0.0008	25.7
0	0.009	-0.0368	-0.0008	25.7
0.0015	0.006	-0.0143	-0.0015	25.7
0.0142	0.0037	-0.0083	-0.0015	25.7
0.0412	0.0015	-0.0158	-0.0015	25.6
0.06	-0.0008	-0.0046	-0.0015	25.6
0.0592	-0.0046	0.0225	-0.0015	25.6
0.0495	-0.0083	0.0615	-0.0008	25.6
0.0195	-0.0068	0.0847	0.0015	25.6
-0.0188	-0.0015	0.0705	0.0015	25.6
-0.0346	0.003	0.039	-0.0015	25.6
-0.0383	0.0045	-0.0083	-0.0015	25.6
-0.033	0.0067	-0.0615	-0.0046	25.6
-0.0203	0.006	-0.0953	-0.0053	25.6
-0.0181	0.006	-0.0968	-0.0046	25.6
-0.0046	0.0052	-0.0795	-0.003	25.6
0.0112	0.0007	-0.0578	0	25.5
0.0007	0.0007	-0.0173	-0.0008	25.5
-0.024	0.0045	0.0502	0.0045	25.5
-0.0488	0.0037	0.1042	0.0067	25.5
-0.048	0.0067	0.09	0.0075	25.5
-0.0346	0.0075	0.0405	0.0082	25.5
-0.0278	0.012	0.0225	0.0037	25.5
-0.0203	0.012	0.0225	0.003	25.4
-0.015	-0.0015	0.0157	0	25.4
-0.0008	-0.0075	-0.003	-0.003	25.4
0.0202	-0.0015	-0.024	-0.0046	25.4
0.0345	-0.0015	-0.0203	-0.0083	25.4
0.039	-0.003	-0.0083	-0.0083	25.4
0.0517	-0.0046	-0.0143	-0.0098	25.4
0.0832	-0.0008	-0.033	-0.012	25.3
0.09	0.003	-0.0338	-0.012	25.3
0.0517	-0.006	-0.0105	-0.006	25.3
0.0217	-0.0091	0.0142	-0.0008	25.3
0.0052	-0.0091	0.0262	0.0007	25.3
-0.003	-0.0098	0.0112	0.0007	25.3
-0.0053	-0.0083	-0.0083	0.0015	25.3
-0.0053	-0.0075	-0.0143	0.003	25.3
-0.003	-0.0053	0.0015	0.0052	25.3
-0.0158	-0.0046	0.03	0.0082	25.3
-0.0346	-0.003	0.0585	0.0105	25.3
-0.0593	-0.0053	0.0645	0.009	25.3
-0.0765	-0.0091	0.0442	0.0052	25.3
-0.0691	-0.0053	0.0127	0.003	25.3
-0.0503	-0.0015	-0.027	0.0007	25.3
-0.0308	0.0007	-0.0533	-0.003	25.3
0.0067	0.003	-0.0578	-0.0053	25.3
0.0495	0.0067	-0.0525	-0.0046	25.3
0.0472	0.0067	-0.0098	-0.003	25.3
0.0292	0.0045	0.0337	-0.0008	25.3
0.0232	0.0045	0.021	-0.0015	25.3
0.039	0.0037	0.0142	-0.003	25.2
0.0532	-0.0008	0.0142	-0.0008	25.2
0.0315	-0.0023	0.0195	0	25.2
0.027	-0.003	0.0472	0	25.2
0.0172	-0.0015	0.042	0.0015	25.2
-0.0015	-0.0015	0.0337	0.003	25.2
-0.0135	-0.0046	0.024	0.0052	25.2
-0.024	-0.0046	0.0172	0.0045	25.2
-0.0323	-0.0008	0.0142	0.003	25.2
-0.042	0.0007	-0.0105	0.0007	25.2
-0.0436	0.0007	-0.0218	-0.0023	25.2
-0.039	-0.0023	-0.0338	-0.0038	25.2
-0.0293	-0.0015	-0.0511	-0.006	25.2
-0.0075	0.0015	-0.0675	-0.0046	25.2
0.0202	0.003	-0.0706	-0.0046	25.2
0.024	-0.0008	-0.054	-0.0038	25.2
0.0127	-0.0053	-0.0346	-0.0015	25.2
0.0067	-0.006	-0.0083	-0.0008	25.2
-0.0015	-0.0053	0.0142	0.0007	25.2
0.0007	-0.0008	0.0292	0.0045	25.2
0.0105	0.0022	0.0382	0.0052	25.2
0.0165	0.0015	0.03	0.0045	25.2
0.0097	-0.0015	0.0202	0.0045	25.2
-0.0046	-0.0068	0.0225	0.0052	25.2
-0.0075	-0.006	0.0135	0.0052	25.2
-0.0008	-0.003	-0.0068	0.003	25.2
0.0067	-0.0008	-0.0338	0.0007	25.2
0.0037	0	-0.063	-0.0023	25.2
0.0007	0.0007	-0.084	-0.006	25.2
0.0045	-0.0015	-0.0945	-0.0083	25.2
0.0105	-0.003	-0.0878	-0.0075	25.2
0.0142	-0.0008	-0.0578	-0.003	25.2
0.018	0.0007	-0.0038	0.0022	25.2
0.0262	0.0075	0.0435	0.006	25.2
0.012	0.0067	0.0922	0.0082	25.2
-0.003	0.009	0.1222	0.0082	25.2
-0.003	0.009	0.1245	0.0052	25.2
-0.0083	0.0045	0.1125	0.0045	25.2
-0.0128	0.0037	0.0787	0.0045	25.2
-0.0143	-0.0015	0.0517	0.0037	25.2
-0.0293	-0.003	0.0285	0.0015	25.2
-0.0405	0	0.006	0.003	25.2
-0.0323	0.0045	-0.024	0.0022	25.2
-0.0285	0.0015	-0.0383	-0.0008	25.2
-0.0323	-0.006	-0.0405	-0.0023	25.2
-0.0383	-0.0046	-0.0511	-0.0053	25.2
-0.0308	0	-0.0518	-0.0053	25.2
-0.0068	0.0007	-0.0503	-0.003	25.2
0.021	0.0007	-0.0361	-0.0008	25.2
0.039	0.0022	-0.021	0.0015	25.2
0.039	0.0075	-0.0158	0.0022	25.2
0.0472	0.0082	-0.012	0.0022	25.2
0.0502	0.0007	-0.0173	-0.0008	25.2
0.048	-0.0075	-0.0293	-0.003	25.2
0.045	-0.006	-0.0278	-0.0046	25.2
0.024	-0.0015	-0.0135	-0.0046	25.2
0.0165	-0.0105	0.0007	-0.0023	25.2
0.0165	-0.0158	0.0187	-0.0008	25.2
-0.0023	-0.0113	0.0502	0.0007	25.2
-0.0091	-0.0075	0.069	0.0007	25.2
0.0007	0.0007	0.069	-0.0008	25.2
-0.0105	0.0037	0.0495	-0.0015	25.2
-0.021	0.0045	0.0172	-0.003	25.2
-0.0188	0.0082	0.0112	-0.0015	25.2
-0.024	0.0105	0.0067	0	25.2
-0.0248	0.0082	-0.003	-0.0008	25.2
-0.0308	0.0045	-0.0165	-0.0008	25.2
-0.0293	0.0022	-0.0511	0.0015	25.2
-0.0173	0.0007	-0.078	0.003	25.2
-0.0008	0.0007	-0.0848	0.0007	25.2
0.003	-0.003	-0.078	-0.0008	25.2
0.0007	-0.0046	-0.063	-0.0015	25.2
0.0255	-0.0008	-0.039	-0.003	25.2
0.0255	0.0007	0.006	0.0007	25.2
0.0045	0.0015	0.0367	0.0022	25.2
-0.0098	0.0015	0.0165	-0.0008	25.2
-0.0195	0.0015	-0.033	-0.003	25.2
-0.0195	0	-0.0706	-0.0053	25.2
-0.0165	-0.0053	-0.066	-0.0091	25.2
0.0135	-0.0023	-0.0323	-0.006	25.2
0.0345	-0.0008	0.0427	-0.0023	25.2
0.03	-0.003	0.1417	0.0015	25.2
0.0285	0.0015	0.1657	0.0067	25.2
0.0165	0.0015	0.147	0.0045	25.2
0.012	-0.0023	0.1305	0.0037	25.2
0.018	-0.0015	0.099	0.0067	25.2
0.0067	0	0.0855	0.0037	25.2
0.0037	-0.0015	0.0645	0.003	25.2
0.0097	-0.0038	0.042	0.0037	25.2
0.0015	-0.0008	0.0292	0.0045	25.2
-0.0023	0.0007	0.0097	0.0045	25.2
-0.0038	-0.0053	-0.012	0.0007	25.2
-0.012	-0.0053	-0.0405	-0.0008	25.2
-0.0113	-0.0008	-0.048	-0.0015	25.2
-0.003	0.0037	-0.0488	-0.0015	25.2
0.0067	0.0067	-0.0645	-0.0046	25.1
0.0172	0.0075	-0.0765	-0.0068	25.1
0.0157	0.0052	-0.0706	-0.0068	25.1
0.0007	0.0015	-0.0533	-0.0046	25.1
-0.0233	-0.0015	-0.0428	-0.003	25.1
-0.0465	-0.0023	-0.039	-0.003	25.1
-0.063	-0.0046	-0.0278	-0.0015	25.1
-0.0645	-0.0098	-0.0098	-0.0015	25.1
-0.0405	-0.0075	0.0135	-0.0023	25.1
-0.0053	-0.0023	0.027	0.0007	25.1
0.012	-0.0015	0.0277	0.0015	25.1
0.0112	-0.0038	0.0352	0.003	25.1
0.0082	-0.0046	0.0247	0.0015	25.1
0.0165	-0.0008	0.0037	0.0007	25.1
0.0277	0.0007	-0.0195	0	25.1
0.024	0.0045	-0.0383	-0.0023	25.1
0.033	0.0082	-0.042	-0.003	25.1
0.0457	0.0037	-0.045	-0.0068	25.1
0.0442	-0.0038	-0.0465	-0.0105	25.1
0.03	-0.0068	-0.045	-0.0091	25.1
0.0135	-0.0046	-0.0353	-0.0053	25.2
0.0007	-0.003	-0.0256	-0.0008	25.2
-0.0038	-0.0008	-0.0128	0.0015	25.2
-0.0015	-0.003	0.003	0.0007	25.2
-0.0158	-0.0053	0.0127	0.0015	25.2
-0.0203	-0.0008	0.0262	0.0037	25.2
-0.0203	0.0015	0.0345	0.006	25.2
-0.03	0.0022	0.0292	0.0067	25.2
-0.039	0.0037	0.0202	0.0067	25.2
-0.0428	0.003	0.0127	0.003	25.2
-0.0405	0.0015	0.0022	0.0015	25.2
-0.0285	0.0015	-0.0083	-0.0008	25.2
-0.012	0.003	-0.0165	-0.0023	25.2
-0.003	0.0037	-0.0285	-0.0015	25.2
0.0157	0.0052	-0.0413	-0.0046	25.2
0.0307	0.0097	-0.048	-0.0038	25.2
0.0405	0.0105	-0.0503	-0.0023	25.2
0.045	0.0112	-0.0488	0.0007	25.2
0.0322	0.0097	-0.0375	0.0022	25.2
0.0225	0.0022	-0.0195	-0.0008	25.2
0.0187	-0.0023	-0.003	-0.0008	25.2
0.027	-0.0046	0.024	-0.0008	25.2
0.0247	-0.0046	0.048	0.0007	25.2
0.012	-0.0023	0.0577	0.003	25.2
0.0075	-0.0015	0.072	0.0037	25.2
0.0022	-0.0015	0.0802	0.0037	25.2
-0.003	-0.0038	0.0802	0.0015	25.2
-0.0098	-0.0015	0.0675	-0.0008	25.2
-0.0248	0.0015	0.054	0	25.2
-0.027	0.0037	0.039	-0.0015	25.2
-0.0263	0.0052	0.0045	-0.0046	25.2
-0.0278	0.006	-0.0233	-0.0053	25.2
-0.024	0.0067	-0.0405	-0.0053	25.2
-0.0323	0.0015	-0.0563	-0.0046	25.2
-0.0315	-0.003	-0.0645	-0.003	25.2
-0.0248	-0.0083	-0.06	-0.0023	25.2
-0.0068	-0.0083	-0.0465	-0.0008	25.2
0.0225	-0.003	-0.0308	0.0015	25.2
0.0082	-0.0046	0.0015	0.006	25.2
-0.0105	-0.0023	0.0307	0.009	25.2
-0.003	0.0045	0.054	0.0105	25.2
-0.0098	0.0082	0.0727	0.012	25.2
-0.027	0.0052	0.048	0.0067	25.2
-0.027	-0.003	-0.0015	0.003	25.2
-0.0046	-0.0091	-0.0293	0	25.2
0.0142	-0.0075	-0.0361	-0.0046	25.2
0.0232	-0.003	-0.0346	-0.0053	25.2
0.0382	-0.0023	-0.012	-0.0075	25.2
0.0292	-0.0038	0.0195	-0.006	25.2
0.0285	0	0.0345	-0.0053	25.2
0.039	0.0007	0.0405	-0.006	25.2
0.0127	-0.0015	0.0352	-0.003	25.2
-0.0008	-0.003	0.0195	-0.0023	25.2
-0.0105	-0.0046	0.0007	-0.0008	25.2
-0.033	-0.003	-0.0263	-0.0008	25.2
-0.0495	-0.003	-0.0346	0.0007	25.2
-0.0615	-0.003	-0.0113	0.003	25.2
-0.0458	-0.0053	0.0165	0.0045	25.2
-0.0143	-0.006	0.0292	0.0067	25.2
0.0157	-0.003	0.0202	0.003	25.2
0.045	0	0.024	0.003	25.2
0.0592	0.0045	0.0615	0.003	25.2
0.0765	0.0127	0.0787	0.0022	25.2
0.0877	0.0202	0.0405	-0.0008	25.2
0.0832	0.0195	-0.0038	-0.0053	25.2
0.09	0.012	-0.0233	-0.0105	25.2
0.0787	0.003	-0.0308	-0.012	25.2
0.0487	-0.0046	-0.0218	-0.0091	25.2
0.0165	-0.0083	-0.0165	-0.0068	25.2
-0.0181	-0.0105	-0.0203	-0.0053	25.2
-0.0436	-0.0091	-0.0263	-0.003	25.2
-0.057	-0.0068	-0.0383	-0.0023	25.2
-0.0608	-0.0053	-0.0443	0.0007	25.2
-0.0653	-0.006	-0.0465	0.0037	25.2
-0.0721	-0.0105	-0.0465	0.0052	25.2
-0.0788	-0.0083	-0.0533	0.0052	25.2
-0.084	-0.0083	-0.0645	0.0015	25.2
-0.078	-0.0068	-0.0788	0.0007	25.2
-0.06	-0.0053	-0.0863	0	25.2
-0.0398	-0.0068	-0.0713	-0.003	25.2
-0.0008	-0.003	-0.0413	-0.003	25.2
0.0435	0.0015	0.006	-0.0015	25.2
0.0652	0.0067	0.0495	0.0007	25.2
0.0787	0.0127	0.0855	0.003	25.2
0.0772	0.0157	0.1192	0.003	25.2
0.0502	0.0112	0.1297	-0.0008	25.1
0.039	0.0045	0.1087	-0.0023	25.1
0.039	0.0015	0.0727	-0.0015	25.1
0.036	0.003	0.0405	-0.003	25.1
0.0322	0.0015	0.0105	-0.003	25.1
0.0127	-0.0068	-0.0083	0	25.1
-0.0135	-0.0128	-0.0128	-0.0008	25.1
-0.0263	-0.0075	-0.0113	0	25.1
-0.027	-0.0023	-0.0188	0.0015	25.1
-0.0248	0.0015	-0.0361	0	25.1
-0.015	0.0082	-0.0503	-0.003	25.1
0.003	0.009	-0.057	-0.006	25.1
0.012	0.0075	-0.057	-0.0091	25.1
0.0112	0.006	-0.048	-0.0091	25.1
0.0022	0.0022	-0.0308	-0.006	25.1
-0.0068	0.0015	-0.0128	-0.0023	25.1
-0.0113	0	-0.0038	0.0007	25.1
-0.0098	-0.0015	0.003	0.0015	25.1
-0.0075	-0.0038	0.0082	0.003	25.1
-0.0135	-0.0083	0.0082	0.0037	25.1
-0.0188	-0.0068	0.0105	0.0045	25.1
-0.0203	-0.0053	0.0142	0.0037	25.1
-0.0233	-0.0068	0.0217	0.0052	25.1
-0.0256	-0.0053	0.0217	0.0075	25.1
-0.0218	-0.0046	0.0142	0.0052	25.1
-0.0165	-0.003	0.0082	0.0045	25.1
-0.012	-0.0008	0	0.0022	25.1
-0.0083	0.0007	-0.0053	0.0007	25.1
-0.003	0.0045	-0.0143	-0.0015	25.1
0.0052	0.009	-0.024	-0.0023	25.1
0.0067	0.012	-0.027	-0.0015	25.1
0	0.0105	-0.0203	-0.0015	25.1
-0.0053	0.0052	-0.0068	-0.0015	25.1
-0.0091	0.0022	-0.006	-0.0008	25.1
-0.0083	-0.0023	-0.0068	-0.0008	25.1
-0.012	-0.006	-0.0091	-0.003	25.1
-0.0135	-0.0068	-0.0173	-0.003	25.1
-0.0008	-0.0068	-0.0128	-0.0008	25.1
0.0045	-0.0068	-0.0015	0.0015	25.1
-0.0046	-0.0075	0.021	0.0075	25.1
0.0052	-0.0053	0.0412	0.006	25.1
0.0165	-0.0008	0.0562	0.003	25.1
0.0157	0.0007	0.0667	0.0037	25.1
0.0255	0	0.0585	0.003	25.1
0.0412	0.0015	0.0465	0.0015	25.1
0.0465	0.0045	0.0262	-0.003	25.1
0.0382	0.0037	0.0037	-0.0038	25.1
0.0202	0.0022	-0.006	-0.0023	25.1
-0.0053	0.0015	-0.0091	-0.0015	25.1
-0.0218	-0.0008	-0.0278	0.0015	25.1
-0.012	-0.0053	-0.054	0.0007	25.1
-0.0015	-0.0046	-0.057	0.0007	25.1
-0.0135	-0.0053	-0.0436	0	25.1
-0.0068	-0.0038	-0.0256	0.0015	25.1
0.021	0.0007	-0.0053	0.0037	25.1
0.024	-0.0015	0.036	0.003	25.1
0.003	-0.0015	0.075	0.0052	25.1
-0.0158	-0.0023	0.0862	0.0045	25.1
-0.0068	0.0022	0.0705	0	25.1
-0.0083	0.0045	0.057	-0.003	25.1
-0.0105	0	0.0427	-0.006	25.1
0.0052	0.0022	0.0105	-0.0083	25.1
0.0052	0.0037	-0.0135	-0.0098	25.1
0.0015	0.0022	-0.0315	-0.0083	25.1
-0.006	0.003	-0.0346	-0.0068	25.1
-0.0053	0.003	-0.0285	-0.0046	25.1
0.003	0.003	-0.03	-0.0023	25.1
0	0.0007	-0.0278	-0.0015	25.1
-0.012	-0.0015	-0.027	0	25.1
-0.0218	0.0007	-0.0218	0.0015	25.1
-0.0225	0.0015	-0.0105	0.0037	25.1
-0.0278	0.0007	0.0082	0.003	25.1
-0.0308	-0.0008	0.015	0.003	25.1
-0.0293	-0.0015	0	0.0045	25.1
-0.0218	-0.0015	-0.0233	0.0037	25.1
-0.0158	-0.003	-0.0465	0.0022	25.1
-0.0091	-0.0053	-0.057	-0.0008	25.1
0.012	-0.0053	-0.0615	-0.0023	25.1
0.039	-0.0015	-0.0653	-0.003	25.1
0.0555	0.0022	-0.0488	-0.0046	25.1
0.057	0.0022	-0.0203	-0.006	25
0.0697	0	-0.0015	-0.0053	25
0.075	-0.006	0.0052	-0.0038	25
0.069	-0.0098	0.0045	-0.0015	25
0.0585	-0.0053	0.003	0.0007	25
0.027	-0.003	0.0255	0.0015	25
0	-0.0023	0.0667	0.003	25
-0.027	0.0037	0.087	0.0052	25
-0.0353	0.0075	0.0712	0.0067	25
-0.0368	0.0037	0.0405	0.0067	25
-0.0436	0.0015	0.0255	0.003	25
-0.0353	0.0015	0.0142	0.0007	25
-0.0375	0.0007	0.003	-0.0008	25
-0.0383	0	0	-0.0038	25
-0.0405	0.003	-0.0083	-0.006	25
-0.0555	0.0037	-0.0195	-0.0083	25
-0.0578	0.0022	-0.033	-0.0068	25
-0.042	0.003	-0.0338	-0.0046	25
-0.0263	0.0037	-0.0285	-0.0015	25
-0.0105	0.0037	-0.024	-0.0008	25
0.0045	0.003	-0.0195	-0.0015	25
0.0165	0.0015	-0.0143	-0.003	25
0.0457	0.003	0.0007	-0.0015	25
0.0675	0.0045	0.0112	0.0015	25
0.0825	0.0075	0.0067	0.003	25
0.0915	0.0097	0.0097	0.0045	25
0.0825	0.0067	0.0202	0.003	25
0.0682	-0.003	0.0277	-0.0008	25
0.0465	-0.0143	0.0255	-0.0038	25
0.0202	-0.0158	0.012	-0.006	25
-0.012	-0.0091	-0.0083	-0.0068	25
-0.033	-0.0068	-0.0368	-0.0053	25
-0.0323	-0.0023	-0.0495	-0.0046	25
-0.0405	0	-0.0511	-0.0046	25
-0.0443	-0.0015	-0.0503	-0.003	25
-0.0428	-0.0015	-0.033	0.0007	25
-0.0443	-0.0015	-0.0105	0.0015	25
-0.0308	-0.0008	0.0105	0.0015	25
-0.0098	-0.0015	0.021	0.0007	25
-0.0158	0	0.0217	-0.0015	25
-0.0428	-0.0075	0.0277	0.0015	25
-0.0428	-0.0091	0.0427	0.0052	25
-0.033	-0.0053	0.0487	0.0045	25
-0.0135	-0.0053	0.0255	0.003	25
0.0232	-0.0015	0.0082	0.0015	25
0.0442	-0.0008	0.0105	0.0015	25
0.057	0.0015	0.0255	-0.0008	25
0.045	0.0045	0.039	-0.0023	25
0.0202	0.0067	0.0345	-0.0038	25
0.0225	0.0105	0.0225	-0.0038	25
0.0322	0.0142	0.015	-0.0015	25
0.033	0.0105	0.0082	-0.003	25
0.021	0.0052	0.0022	-0.0046	25
-0.0015	0.0022	-0.0075	-0.0046	25
-0.0263	-0.0015	-0.0165	-0.0008	25
-0.0413	-0.0038	-0.0173	-0.0008	25.1
-0.045	-0.0038	-0.0218	-0.0023	25.1
-0.0428	-0.0038	-0.0256	0.0015	25.1
-0.0353	-0.0046	-0.0181	0.003	25.1
-0.0368	-0.0068	-0.006	0.0052	25.1
-0.0368	-0.006	-0.0008	0.0052	25.1
-0.0315	-0.003	-0.003	0.0007	25.1
-0.0218	0	-0.012	-0.0008	25.1
-0.0075	0	-0.024	-0.0015	25.1
0.0127	-0.0008	-0.0346	-0.0038	25.1
0.0292	0.0022	-0.0428	-0.0046	25.1
0.0345	0.003	-0.0405	-0.0053	25.1
0.039	0.0022	-0.0278	-0.003	25.1
0.039	0.0015	-0.0075	-0.0008	25.1
0.0255	0.003	0.0157	0.0015	25.1
0.0112	0.0045	0.036	0.003	25.1
0.006	0.0052	0.0562	0.0037	25.1
-0.0015	0.0052	0.0525	0.0045	25.1
-0.0015	0.0015	0.033	0.003	25.1
0.0007	-0.0023	0.0202	0.0022	25.1
-0.0091	-0.0075	0.0165	0.0045	25
-0.0195	-0.0091	0.0195	0.0045	25
-0.0233	-0.0075	0.012	-0.0008	25
-0.0203	-0.0075	-0.0008	-0.003	25
-0.0083	-0.0046	-0.012	-0.0023	25
0.0022	-0.0015	-0.0165	-0.0038	25
0.012	0	-0.0233	-0.0068	25
0.0217	0.0015	-0.0293	-0.0068	25
0.0277	0.0037	-0.0346	-0.006	25
0.0247	0.003	-0.0428	-0.0046	25
0.0105	0.0007	-0.0555	-0.003	25
0.012	-0.0015	-0.066	-0.003	25
0.0135	-0.0038	-0.057	-0.0015	25
0.0142	-0.0038	-0.0458	0.0007	25
0.0285	0.0007	-0.0225	0.0015	25
0.0157	0.0007	0.0292	0.003	25
-0.0143	-0.0008	0.087	0.0067	25
-0.0203	0.0007	0.1125	0.0075	25
-0.0165	0.0015	0.1005	0.0082	25
-0.0195	0.003	0.0757	0.0067	25
-0.0165	0.0015	0.0352	0.003	24.9
-0.0105	0.0007	-0.0008	0.0007	24.9
-0.0098	-0.0008	-0.0233	-0.003	24.9
-0.012	-0.0008	-0.0465	-0.006	24.9
-0.006	0.0022	-0.0608	-0.0068	24.9
0.006	0.0015	-0.0638	-0.006	24.9
0.0097	0	-0.0473	-0.0075	24.9
0.0097	-0.0008	-0.0346	-0.0068	24.9
0.0232	-0.0008	-0.0233	-0.0046	24.9
0.0247	-0.0008	0.0052	-0.0015	24.9
0.0015	-0.0023	0.0345	0.0007	24.9
-0.0143	-0.0046	0.0607	0.003	24.9
-0.0143	-0.0068	0.0637	0.0037	24.9
-0.0113	-0.0046	0.0495	0.003	24.9
-0.0135	-0.0046	0.0345	0.0037	24.9
-0.0203	-0.0038	0.0187	0.003	24.9
-0.0308	-0.0015	-0.0038	0.0015	24.9
-0.0405	-0.0008	-0.039	0	24.9
-0.0353	0	-0.0608	0.0007	24.9
-0.012	-0.0008	-0.0645	0	24.9
0.0052	-0.003	-0.0578	-0.0038	24.8
0.0195	0.0015	-0.0368	-0.003	24.8
0.0367	0.0045	-0.0105	-0.0015	24.8
0.0382	0.0022	0.027	0.0015	24.8
0.0322	0	0.0555	0.003	24.8
0.042	-0.0015	0.0525	0.0037	24.8
0.051	0.0052	0.042	0.0045	24.8
0.0502	0.0052	0.0307	0	24.8
0.051	0	0.024	-0.0023	24.8
0.0427	0.0007	0.024	-0.0008	24.8
0.0195	0.0007	0.0277	-0.0008	24.8
-0.0053	0.0007	0.03	0.0015	24.8
-0.0181	0.0007	0.015	0.0007	24.8
-0.024	0.0007	-0.0053	-0.0008	24.8
-0.024	0.0007	-0.03	-0.0015	24.8
-0.0203	0.0007	-0.0436	-0.0046	24.9
-0.0195	0.0015	-0.0473	-0.006	24.9
-0.0158	0.0022	-0.0495	-0.0068	24.9
-0.012	0.003	-0.045	-0.0046	24.9
-0.0128	0.003	-0.039	-0.0015	24.9
-0.0233	0.0015	-0.0346	-0.0008	24.9
-0.0315	0.0007	-0.0315	0.0015	24.9
-0.0338	0.0022	-0.0308	0.0022	24.9
-0.0233	0.0007	-0.0256	0.0022	24.9
-0.0068	-0.0008	-0.0113	0.0022	24.9
0.0015	-0.0038	0.0045	0.0015	24.9
0.009	-0.0046	0.0277	0.0015	24.9
0	-0.0083	0.0495	0.003	24.9
-0.003	-0.0105	0.0517	0.0045	24.9
0.012	-0.0046	0.0532	0.003	25
0.0067	-0.003	0.0517	0	25
-0.0075	-0.0015	0.0315	-0.0023	25
-0.0181	0	0.009	-0.0053	25
-0.0263	0.003	-0.0113	-0.0068	25
-0.0181	0.006	-0.0218	-0.0068	25
-0.0083	0.0045	-0.0181	-0.006	25
-0.003	0.003	-0.0091	-0.0038	25
0.0007	0.0015	-0.0046	-0.003	25
0.009	0.003	0.0015	-0.0015	25
0.0195	0.0045	0.0015	0.0007	25
0.0232	0.003	-0.003	0.0037	25
0.0262	0.003	-0.0053	0.003	25
0.0187	0.0007	0	0	25.1
0.0127	-0.0008	0.0097	0	25.1
0.0082	-0.0008	0.0157	0.0007	25.1
0.0015	-0.0038	0.0135	0.0007	25.1
0.0052	-0.0046	0.0097	0	25.1
-0.003	-0.0046	0.0142	-0.0015	25.1
-0.0083	-0.0038	0.0165	-0.0015	25.1
0	0.0022	0.0112	-0.003	25.1
0.0015	0.003	0.0052	-0.0038	25.1
-0.0008	0.0015	-0.0098	-0.0038	25.1
-0.0008	0.0045	-0.0181	-0.003	25.1
0.0045	0.0015	-0.024	-0.0008	25.1
0	-0.0038	-0.0383	0.0007	25.1
0	-0.003	-0.0525	0.0007	25.2
0.009	-0.0046	-0.0615	0.0015	25.2
0.009	-0.006	-0.0533	0.0015	25.2
0.018	-0.0053	-0.0383	0.0007	25.2
0.0247	-0.0046	-0.0158	0.0022	25.2
0.0157	-0.0046	0.0315	0.0045	25.2
-0.0068	-0.0046	0.0757	0.0067	25.2
-0.0218	-0.003	0.0937	0.0052	25.2
-0.0256	-0.0008	0.0922	0.0022	25.2
-0.024	0	0.0585	0.0015	25.2
-0.0068	0.0007	0.0157	-0.0008	25.2
-0.0038	0.003	-0.0143	-0.003	25.2
-0.0008	0.0045	-0.0405	-0.006	25.2
-0.003	0.0045	-0.0465	-0.0068	25.2
-0.006	0.003	-0.0518	-0.006	25.2
-0.0046	0.0007	-0.0525	-0.0023	25.2
-0.0083	-0.0015	-0.048	-0.0015	25.2
0.0007	-0.0046	-0.0398	-0.003	25.2
0.018	-0.0023	-0.0218	0	25.2
0.036	0	0.0037	0.003	25.2
0.0217	0.0015	0.0412	0.0045	25.3
0.0105	-0.0008	0.0675	0.006	25.3
0.0082	-0.0015	0.093	0.0082	25.3
-0.0105	-0.0008	0.0982	0.0067	25.3
-0.015	-0.0008	0.0727	0.003	25.3
-0.0128	0.0015	0.039	0	25.3
-0.003	0.0022	0	-0.0038	25.3
0.0075	0.0022	-0.0218	-0.0068	25.3
0.012	0.003	-0.033	-0.0068	25.3
0.015	0.003	-0.039	-0.0083	25.3
0.012	-0.0015	-0.033	-0.006	25.3
0.0082	-0.0053	-0.0218	-0.0046	25.3
0.003	-0.003	-0.0143	-0.0023	25.4
0.0045	0.0015	-0.0165	0	25.4
-0.0015	0.003	-0.0203	0.0015	25.4
-0.012	0.0015	-0.0256	0.0022	25.4
-0.0158	0.0007	-0.024	0.003	25.4
-0.0165	0.0022	-0.0203	0.003	25.4
-0.0143	0.0015	-0.0091	0.0037	25.4
-0.0181	-0.0038	0.0052	0.0052	25.5
-0.0233	-0.0075	0.015	0.0052	25.5
-0.0165	-0.0075	0.0172	0	25.5
-0.0038	-0.0053	0.006	-0.0008	25.5
0.0007	-0.003	-0.0046	-0.0008	25.5
0.0007	-0.0008	-0.012	-0.0038	25.5
0.0082	0.003	-0.0165	-0.0053	25.6
0.0142	0.0037	-0.021	-0.0068	25.6
0.015	0.0022	-0.0225	-0.0053	25.6
0.0135	-0.0023	-0.0128	-0.0015	25.6
0.0172	0	-0.0053	0	25.6
0.0112	0	-0.0008	0.0007	25.6
0.0007	-0.0053	0.009	0.0007	25.6
0.0015	-0.003	0.0202	0.003	25.6
-0.003	0.0007	0.0232	0.006	25.7
-0.0083	0.0015	0.0142	0.0045	25.7
-0.0046	-0.0023	0.0135	0.0037	25.7
-0.003	-0.0038	0.0172	0.003	25.7
0.003	-0.0046	0.0105	0	25.7
0.0097	-0.0053	0.0045	-0.0015	25.8
0.0105	-0.0046	0.0007	-0.0015	25.8
0.0105	-0.0023	-0.0053	-0.0038	25.8
0.0112	0.003	-0.0143	-0.0046	25.9
0.0082	0.0052	-0.0233	-0.003	25.9
0.0052	0.0045	-0.0278	-0.003	25.9
0.003	0.0045	-0.0248	-0.003	25.9
0.0007	0.0007	-0.0181	-0.0008	26
0.0022	0.0015	-0.012	-0.0008	26
0.0045	0.0015	-0.0046	0	26
-0.0046	-0.0008	-0.0053	0.003	26
-0.0143	-0.0008	-0.0091	0.003	26
-0.0173	-0.0008	-0.0128	0.0022	26.1
-0.0218	-0.0023	-0.0143	0.0045	26.1
-0.027	-0.003	-0.012	0.0067	26.1
-0.0256	-0.0046	-0.0165	0.006	26.1
-0.021	-0.0046	-0.0113	0.0037	26.1
-0.0218	-0.0053	0.006	0.0015	26.2
-0.0135	-0.0046	0.0232	-0.0015	26.2
0.006	-0.0015	0.0277	-0.003	26.2
0.0225	0.006	0.027	-0.003	26.3
0.042	0.0097	0.045	-0.003	26.3
0.045	0.0082	0.0615	-0.0008	26.3
0.0367	0.0082	0.0495	0.0015	26.4
0.0285	0.006	0.0247	-0.0008	26.4
0.0105	0.003	0.0022	-0.003	26.4
0.0105	0.0007	-0.012	-0.003	26.4
0.003	-0.0008	-0.0181	-0.003	26.5
-0.0091	-0.0015	-0.0225	-0.003	26.5
-0.012	-0.0053	-0.0173	-0.003	26.5
-0.0225	-0.0083	-0.003	-0.0015	26.5
-0.0278	-0.012	0.0142	-0.0008	26.5
-0.03	-0.0083	0.0367	-0.0008	26.6
-0.0181	-0.0023	0.042	0.0007	26.6
-0.006	0.0007	0.0457	0.0015	26.6
0.0015	0.0037	0.0555	0.0015	26.7
0.0015	0.0022	0.0292	-0.0023	26.7
-0.0008	0.003	-0.0098	-0.0046	26.7
0.0015	0.003	-0.0293	-0.0046	26.7
-0.0053	0.0015	-0.0383	-0.0015	26.8
-0.0181	0.0007	-0.0353	0.0007	26.8
-0.0346	-0.003	-0.0308	-0.0008	26.8
-0.0346	-0.0015	-0.024	0.0015	26.9
-0.0278	-0.003	-0.0188	0.0015	26.9
-0.0165	-0.0046	-0.0158	0.0015	26.9
0	-0.0015	-0.012	0.003	26.9
0.0097	-0.0015	-0.0083	0.0037	27
0.024	-0.0008	0.003	0.0045	27
0.0322	-0.0038	0.012	0.003	27
0.033	-0.0053	0.0105	0.003	27
0.033	-0.003	0.0007	0.0022	27
0.0367	0.0022	-0.0105	0.0007	27
0.0367	0.0052	-0.012	-0.0023	27.1
0.0315	0.0067	-0.012	-0.0068	27.1
0.0285	0.0082	-0.0218	-0.0053	27.1
0.0232	0.0052	-0.027	-0.0046	27.2
0.0135	0.0037	-0.0173	-0.0046	27.2
0.0007	0.0022	-0.012	-0.0015	27.2
-0.0105	0.0022	-0.0098	-0.0008	27.3
-0.0165	0.0007	0	0.0015	27.3
-0.0225	0.0015	0.003	0.0015	27.3
-0.027	0.0015	-0.0015	0.0007	27.3
-0.0263	-0.003	-0.0143	0.0007	27.4
-0.024	-0.0046	-0.0278	-0.0008	27.4
-0.0233	-0.0053	-0.0263	0.0015	27.4
-0.0165	-0.0068	-0.0203	0.0007	27.4
0.0022	-0.0038	-0.0135	-0.0038	27.4
0.018	-0.0015	-0.003	-0.003	27.5
0.0157	0	0.0105	-0.0023	27.5
0.0157	0.0045	0.0292	-0.0008	27.5
0.0202	0.0052	0.054	-0.0008	27.6
0.0165	0.0067	0.0622	-0.0008	27.6
0.0157	0.009	0.048	0.0007	27.6
0.0105	0.0082	0.0352	0.0015	27.7
0	0.003	0.0127	0	27.7
-0.0015	-0.0038	-0.0068	-0.0008	27.7
-0.0083	-0.0053	-0.003	0.0007	27.7
-0.0113	-0.0046	-0.0053	-0.0008	27.8
-0.0091	-0.003	-0.0008	0.0015	27.8
-0.0083	-0.0015	0.0105	0.003	27.8
-0.0091	-0.003	0.024	0.003	27.9
-0.0158	-0.0046	0.027	0.003	27.9
-0.0135	-0.003	0.0082	0	27.9
-0.0083	-0.0015	-0.0068	-0.0008	27.9
-0.003	-0.0008	-0.0165	-0.0015	27.9
0.0037	0.0015	-0.024	-0.0015	28
0.0075	0.0045	-0.0353	-0.003	28
0.0097	0.0052	-0.0458	-0.006	28
0.0075	0.0052	-0.0495	-0.0046	28.1
0.0007	0.003	-0.0488	-0.0015	28.1
-0.0015	0.0007	-0.0353	-0.0015	28.1
-0.0023	-0.0023	-0.0233	-0.0015	28.1
0.006	-0.0046	-0.0098	-0.0008	28.2
0.0165	-0.0046	0.0007	0.0007	28.2
0.0135	-0.0046	0.0165	0.0015	28.2
0.0067	-0.003	0.0405	0.003	28.3
0.0007	0.0007	0.0607	0.0045	28.3
-0.0046	0	0.078	0.0052	28.3
-0.0053	-0.0008	0.066	0.0045	28.3
0.0015	0.0007	0.0465	0.003	28.4
0.0105	-0.0015	0.0277	0.0007	28.4
0.0172	0.0007	0.0082	-0.0008	28.4
0.0202	0.0022	-0.0046	-0.003	28.5
0.0247	0.0015	-0.024	-0.0053	28.5
0.024	0.0015	-0.0368	-0.0075	28.5
0.0112	0.0007	-0.0338	-0.0083	28.6
-0.0015	-0.0023	-0.0256	-0.0075	28.6
-0.0135	-0.0046	-0.0181	-0.0068	28.7
-0.0203	-0.0046	-0.0181	-0.0046	28.7
-0.0203	-0.0046	-0.0188	-0.0046	28.7
-0.021	-0.0038	-0.0203	-0.0015	28.8
-0.0203	-0.0008	-0.0173	0	28.8
-0.024	-0.0008	-0.0098	0.0022	28.8
-0.0278	0.0007	-0.0008	0.0045	28.8
-0.0308	-0.0008	0.0105	0.003	28.8
-0.0233	-0.0008	0.012	0.0045	28.9
-0.012	0.0022	0.0105	0.0045	28.9
-0.006	0.0015	0.0172	0.003	29
0.0015	0.0015	0.0142	0.0007	29
0.0052	0.0022	-0.0008	-0.0015	29
0.0082	-0.0008	-0.0203	-0.003	29.1
0.009	0.0022	-0.0383	-0.0038	29.1
0.0075	0.0037	-0.0398	-0.0015	29.1
0.012	0	-0.027	0.0015	29.2
0.0127	-0.0046	-0.021	0.003	29.2
0.0135	-0.0053	-0.0105	0.003	29.2
0.0187	-0.003	0.003	0.0037	29.2
0.021	-0.0023	0.0165	0.0037	29.3
0.0157	-0.0015	0.0277	0.003	29.3
0.018	0.0007	0.0367	0.0015	29.3
0.0157	0.0015	0.0465	0.0015	29.4
0.009	0.0015	0.0367	0.0015	29.4
0.0037	0.0007	0.0262	0	29.4
-0.003	0.0015	0.0217	-0.0008	29.5
-0.0046	0.0007	0.0112	-0.0023	29.5
-0.006	0.0015	0.0007	-0.0046	29.5
-0.0046	0.003	-0.0165	-0.0046	29.6
-0.0053	0.0045	-0.033	-0.0053	29.6
-0.0015	0.0052	-0.0405	-0.0053	29.6
0.003	0.0045	-0.033	-0.003	29.7
0	0.003	-0.0256	0	29.7
0.0015	0.0007	-0.0233	0.0015	29.7
-0.0015	0	-0.012	0.003	29.7
-0.006	-0.0015	-0.0053	0.0015	29.7
-0.012	-0.0015	-0.003	0.0015	29.8
-0.0278	0.0007	0.0007	0.0022	29.8
-0.0428	0.0007	-0.0008	0.003	29.8
-0.0405	-0.0023	0.0052	0.0045	29.9
-0.0218	-0.0038	0.0165	0.0052	29.9
-0.0083	-0.003	0.0187	0.003	29.9
0.0007	-0.0015	0.0135	-0.0008	30
0.0142	0.0007	0.0112	-0.0023	30
0.0255	0.0022	0.0127	-0.003	30
0.024	0.0037	0.0187	-0.0053	30.1
0.0262	0.0037	0.0232	-0.0053	30.1
0.039	0.0015	0.018	-0.0038	30.1
0.0495	0.0007	0.0097	-0.0015	30.1
0.0367	0	0.0105	-0.0015	30.2
0.0217	0.0007	0.0105	-0.0023	30.2
0.018	0.0007	0.0135	-0.0008	30.2
0.0097	-0.0023	0.0217	0	30.3
0.0015	-0.0046	0.0255	0.0007	30.3
-0.0075	-0.0023	0.0195	0	30.3
-0.0218	-0.0053	0.0127	0.0015	30.4
-0.0308	-0.0068	0.0097	0.0045	30.4
-0.0248	-0.006	0.003	0.0037	30.4
-0.0218	-0.0046	0.0007	0.0007	30.5
-0.0165	-0.0008	-0.0046	-0.0008	30.5
-0.0143	0.0022	-0.0105	0.0007	30.5
-0.0195	0.0022	-0.0181	-0.0008	30.6
-0.0256	0.0007	-0.0315	-0.003	30.6
-0.0225	0.003	-0.0361	-0.0038	30.6
-0.015	0.003	-0.0346	-0.0023	30.6
-0.0113	0.0007	-0.0248	-0.0008	30.7
-0.0046	0	-0.0233	0.0007	30.7
0.0037	-0.0008	-0.0233	0.0007	30.8
0.0112	-0.003	-0.0165	-0.0008	30.8
0.018	-0.006	-0.0083	0.0015	30.8
0.018	-0.0091	-0.003	0.0015	30.9
0.0127	-0.0068	0	0.0007	30.9
0.0105	-0.0046	0.0105	0.0015	31
0.0067	-0.0046	0.0255	0.0022	31
0.0105	-0.0023	0.0315	0.0015	31
0.0112	-0.0008	0.0337	-0.0008	31
0.0142	0.0022	0.0352	-0.0015	31.1
0.0202	0.0045	0.0307	-0.0053	31.1
0.009	0.0037	0.0232	-0.0046	31.2
0.0015	0.0052	0.006	-0.0053	31.2
-0.0038	0.0052	-0.0053	-0.0068	31.3
-0.003	0.0007	-0.0068	-0.0015	31.3
-0.0015	0	-0.0083	-0.0008	31.3
-0.0075	0	-0.0098	-0.0015	31.4
-0.0083	0.0015	-0.0143	0.0022	31.4
-0.0098	0.0007	-0.015	0.0015	31.5
-0.0091	-0.0015	-0.0143	0.0015	31.5
-0.0053	-0.003	-0.012	0.003	31.5
-0.0015	-0.0038	-0.0083	0.003	31.6
-0.0008	-0.0046	-0.0046	0.0045	31.6
-0.0053	-0.0053	0.0045	0.003	31.7
-0.003	-0.0046	0.0082	0.0022	31.7
0.003	-0.0023	0.0105	0.0015	31.8
0.003	-0.0008	0.0082	0	31.8
0	0.0007	0.0015	-0.0015	31.9
-0.0008	0	-0.0135	-0.0046	31.9
0.0045	0.0045	-0.0263	-0.0046	31.9
0.0052	0.006	-0.03	-0.0038	31.9
0.0082	0.003	-0.0263	-0.0023	32
0.0052	0.003	-0.0173	0.0007	32
-0.0015	0.0015	-0.0135	0.0015	32.1
0.0015	-0.0008	-0.0038	0.0007	32.1
0.0045	-0.0046	0.0045	-0.0015	32.2
0.0015	-0.0083	0.012	-0.0046	32.2
0.0015	-0.0068	0.024	-0.003	32.3
0.0007	-0.006	0.0405	0	32.3
-0.0098	-0.003	0.0615	0.003	32.4
-0.0135	-0.003	0.0502	0.0022	32.4
-0.0091	-0.0015	0.0262	-0.0015	32.4
-0.0053	0.0022	0.009	-0.0015	32.5
0.0007	0.003	-0.0135	-0.0008	32.5
0.0052	0.0045	-0.0203	-0.0023	32.5
0.0022	0.0045	-0.0248	-0.0015	32.6
-0.0038	0.0067	-0.0368	-0.0023	32.6
-0.0008	0.0082	-0.0413	-0.0023	32.7
-0.0053	0.006	-0.048	-0.0008	32.7
-0.0083	0.0037	-0.0503	-0.0008	32.8
-0.0053	0.003	-0.0353	0.0007	32.8
-0.0053	0.003	-0.0091	0.003	32.8
0	-0.0008	0.0135	0.0015	32.9
0	-0.006	0.018	0.0022	32.9
0.0007	-0.0068	0.018	0.0037	32.9
0.0045	-0.0053	0.0255	0.003	33
0.0052	-0.006	0.027	0.003	33
0.012	-0.0046	0.0165	0.0022	33.1
0.0202	-0.0015	0.0082	0	33.1
0.027	0.0015	-0.0008	-0.003	33.1
0.0277	0.0015	-0.0091	-0.0046	33.2
0.0277	0.0007	-0.0181	-0.0038	33.2
0.027	0.0015	-0.021	-0.0046	33.2
0.0255	0.003	-0.0165	-0.0046	33.3
0.0187	0.003	-0.012	-0.0015	33.3
0.0052	0.0015	-0.0053	0.0007	33.3
-0.0046	0.003	-0.006	0	33.3
-0.012	0.0022	-0.0068	-0.0008	33.4
-0.0165	-0.0008	-0.0008	0.0007	33.4
-0.0203	-0.0015	0.0045	0.0015	33.4
-0.021	-0.0008	0.0045	0.003	33.4
-0.0203	-0.0015	0.0052	0.0045	33.5
-0.0278	-0.003	0.018	0.0045	33.5
-0.0278	-0.0038	0.0202	0.0052	33.5
-0.0225	-0.0023	0.018	0.003	33.6
-0.0181	-0.0008	0.0142	-0.0008	33.6
-0.0105	-0.0015	0.0037	-0.0015	33.6
-0.006	-0.0008	-0.0083	-0.0046	33.7
0.0015	0	-0.0165	-0.0053	33.7
0.0105	0.0015	-0.0173	-0.0046	33.7
0.0202	0.0015	-0.0091	-0.0038	33.7
0.0292	0.0015	0.0045	-0.0015	33.8
0.0277	0.0015	0.012	-0.0008	33.8
0.027	0.003	0.0112	0.0015	33.9
0.0202	0.0045	0.0105	0.0015	33.9
0.0082	0.003	0.0187	0	33.9
-0.0008	0.0007	0.027	0	34
-0.0046	-0.0008	0.0285	0.0015	34
-0.012	-0.0015	0.0352	0.0037	34.1
-0.0181	-0.0046	0.0382	0.0045	34.1
-0.0181	-0.0053	0.0277	0.003	34.1
-0.0135	-0.0046	0.012	0.0007	34.1
-0.0053	-0.0038	-0.0015	-0.0008	34.2
0.003	-0.0023	-0.0105	-0.003	34.2
0.0015	-0.0038	-0.0233	-0.0053	34.3
0.0015	-0.0015	-0.0323	-0.0053	34.3
-0.0023	0.0015	-0.0361	-0.0038	34.3
-0.015	0.0015	-0.0323	-0.0015	34.4
-0.0353	0.0007	-0.0285	0.0007	34.4
-0.0593	0.0015	-0.0315	0.0015	34.5
-0.0608	0	-0.0256	0.0022	34.5
-0.0458	-0.003	-0.0203	0.0007	34.5
-0.0233	-0.0046	-0.0158	0.0015	34.6
0.0082	-0.0038	-0.0046	0.0045	34.6
0.039	-0.0015	0.009	0.003	34.6
0.0592	-0.0046	0.0292	0.003	34.7
0.069	-0.0038	0.0442	0.0037	34.7
0.075	0	0.0435	0.003	34.8
0.0757	0.003	0.042	0.0007	34.8
0.0622	0.0052	0.0345	-0.0015	34.8
0.0427	0.0052	0.0142	-0.0046	34.9
0.0315	0.0067	-0.0008	-0.006	34.9
0.0292	0.0075	-0.0068	-0.0083	35
0.0157	0.0067	-0.0128	-0.0091	35
0.0007	0.0037	-0.0098	-0.0053	35
-0.015	-0.0008	-0.0053	-0.0023	35.1
-0.027	0.0007	-0.012	-0.0023	35.1
-0.0308	0	-0.0143	-0.003	35.1
-0.0353	-0.0023	-0.012	-0.0008	35.2
-0.0346	-0.0023	-0.0105	0.0007	35.2
-0.0315	-0.0053	-0.003	0.0007	35.3
-0.0308	-0.0053	0.0052	0.0022	35.3
-0.0285	-0.0038	0.012	0.003	35.4
-0.0256	-0.0038	0.0127	0.0037	35.5
-0.0181	-0.0023	0.006	0.003	35.5
-0.0091	-0.0008	-0.0015	0.0007	35.5
0.0007	0.0015	0.0007	-0.0015	35.6
0.009	0.0015	0.009	-0.0023	35.6
0.0157	0.0015	-0.003	-0.003	35.7
0.0202	0.003	-0.0173	-0.0038	35.7
0.0157	0.0015	-0.0278	-0.003	35.8
0.006	0.0007	-0.033	-0.0015	35.8
0.0037	-0.0008	-0.027	-0.0008	35.9
0.0015	-0.0023	-0.0218	0.0007	36
-0.0015	-0.0008	-0.0128	0.0022	36
-0.0023	-0.0015	-0.0098	0.003	36
-0.0053	-0.0008	-0.0105	0.003	36.1
-0.0053	-0.0008	-0.0053	0.0045	36.1
-0.0075	0	0.0007	0.0045	36.2
-0.0128	-0.0008	0.0037	0.003	36.2
-0.012	-0.0015	-0.0023	0.0015	36.3
-0.0083	-0.006	-0.0091	-0.0023	36.3
-0.0075	-0.0083	-0.0135	-0.0046	36.4
-0.0053	-0.003	-0.015	-0.0053	36.4
-0.0015	0.003	-0.0128	-0.0053	36.4
0.0075	0.006	-0.0173	-0.006	36.5
0.0157	0.0082	-0.0195	-0.0046	36.5
0.0172	0.0052	-0.0143	0	36.6
0.0142	0.0007	0.0037	0.0007	36.7
0.012	-0.0023	0.0277	0.003	36.7
0.009	-0.0015	0.039	0.0037	36.8
0.0052	-0.0023	0.0382	0.0015	36.8
-0.0015	-0.003	0.0382	0.003	36.9
-0.0053	-0.0046	0.0315	0.0022	36.9
-0.006	-0.0038	0.0307	0.0015	36.9
-0.0113	-0.0046	0.039	0.003	37
-0.0135	-0.0068	0.0457	0.003	37
-0.012	-0.0053	0.036	0.0015	37.1
-0.0046	-0.0008	0.0142	-0.0015	37.1
0.003	0.0007	-0.0008	-0.003	37.2
0.0082	0.003	-0.0165	-0.003	37.2
0.0127	0.0037	-0.027	-0.0053	37.3
0.0157	0.003	-0.0338	-0.0046	37.3
0.0142	0.0045	-0.0346	-0.0053	37.3
0.0112	0.0022	-0.027	-0.003	37.4
0.0045	0.0007	-0.0218	-0.0015	37.4
0	0.0015	-0.0195	-0.0015	37.5
-0.0008	0.0007	-0.0158	-0.0008	37.6
-0.0046	-0.0015	-0.012	0.0007	37.6
-0.0075	-0.003	-0.0046	0.0015	37.7
-0.0135	-0.0046	0.0015	0.0022	37.7
-0.0173	-0.0015	0.009	0.0045	37.8
-0.0203	-0.0015	0.0202	0.0045	37.8
-0.0203	-0.003	0.0225	0.0015	37.8
-0.0203	-0.0038	0.0165	-0.0008	37.9
-0.015	-0.0053	0.0082	-0.0023	37.9
-0.0015	-0.0015	-0.0008	-0.0038	38
0.0127	0.0015	-0.0105	-0.0046	38
0.0217	0.0015	-0.0188	-0.0046	38.1
0.012	0.0015	-0.0218	-0.0038	38.1
-0.0008	0.0015	-0.0218	-0.0038	38.2
-0.0075	0.0022	-0.0195	0.0007	38.2
-0.0046	0.0007	-0.0143	0.0022	38.3
-0.0038	0.0015	-0.003	0.0022	38.3
0.0007	0.0015	0.009	0.0052	38.4
0.0082	-0.0008	0.0165	0.0045	38.4
0.0105	-0.0015	0.0277	0.003	38.5
0.0195	-0.0023	0.0307	0.0045	38.6
0.018	-0.0023	0.036	0.0037	38.6
0.012	-0.0008	0.0382	0.0037	38.6
0.0097	-0.0023	0.0315	0.0007	38.7
0.0105	-0.0008	0.0217	0	38.7
0.0142	0.0022	0.0082	-0.0023	38.8
0.0165	0.0015	0	-0.0053	38.8
0.018	0.0007	-0.0143	-0.0068	38.9
0.018	0	-0.021	-0.0105	39
0.0067	0.0015	-0.0248	-0.0083	39
-0.0091	0.0007	-0.027	-0.0068	39.1
-0.0181	0	-0.0195	-0.0046	39.1
-0.0165	0.0015	-0.015	-0.0015	39.1
-0.0113	0.0022	-0.0105	-0.0015	39.2
-0.0105	0.0007	-0.0068	-0.0008	39.3
-0.0068	-0.0015	-0.0046	0.0007	39.3
-0.0053	-0.0008	0.0007	0.0007	39.4
-0.0068	-0.0015	0.0052	0.0015	39.4
-0.0105	-0.0015	0.0157	0.0045	39.5
-0.0143	-0.0015	0.0195	0.003	39.6
-0.0143	-0.0008	0.0127	0.0015	39.6
-0.0091	0.0007	0.003	0.003	39.6
-0.0008	0.003	-0.0083	0.0007	39.7
0.0007	0.0037	-0.015	-0.0015	39.8
0.0037	0.0052	-0.0285	-0.0046	39.8
0.009	0.0082	-0.0353	-0.0046	39.9
0.012	0.0045	-0.0323	-0.0046	39.9
0.0097	0.0015	-0.0248	-0.003	40
0.003	0	-0.0203	-0.0008	40
0.0037	-0.0046	-0.0135	0	40.1
0.0075	-0.0046	-0.0008	0	40.1
0.0067	-0.0038	0.0067	0	40.2
-0.0008	-0.0046	0.0142	-0.0008	40.2
-0.0068	-0.0046	0.0195	0.0007	40.3
-0.0091	-0.0053	0.0262	0.003	40.4
-0.0165	-0.0046	0.036	0.0037	40.4
-0.0158	-0.0015	0.0345	0.0022	40.5
-0.0128	-0.0008	0.024	0.0007	40.5
-0.0083	0.0015	0.0105	0	40.6
-0.003	0.003	-0.0008	-0.0015	40.6
0.0015	0.0052	-0.0113	-0.0053	40.7
0.0112	0.0052	-0.021	-0.0068	40.8
0.0202	0.0052	-0.0218	-0.0053	40.8
0.0292	0.0037	-0.012	-0.0015	40.9
0.0315	0.0007	0.0045	-0.0015	40.9
0.0285	0.0015	0.0195	-0.0015	41
0.0195	0.0007	0.03	0	41
0.0045	-0.0008	0.0292	0.0015	41.1
-0.0008	-0.0015	0.0247	0.0015	41.2
-0.0008	-0.0015	0.0195	0.0007	41.2
0.0007	-0.0015	0.0157	0.0022	41.3
-0.003	-0.0038	0.015	0.003	41.3
-0.0143	-0.003	0.003	0.003	41.4
-0.0135	-0.0038	-0.0165	0.003	41.4
-0.012	-0.0038	-0.0338	0.0007	41.5
-0.012	-0.0046	-0.039	0.0007	41.6
-0.0091	-0.0038	-0.0428	-0.003	41.6
-0.0053	-0.0008	-0.045	-0.0053	41.7
0.0015	0.0007	-0.0405	-0.003	41.8
0.0067	0.003	-0.0315	-0.003	41.8
0.0052	0.0022	-0.0158	-0.0015	41.9
0.0045	0.003	-0.003	0	41.9
0.003	0.0045	0.003	0.0007	42
0.0022	0.0022	0.0075	0.0015	42.1
0.0015	0.0007	0.0105	0.003	42.1
0.0007	0.0015	0.0105	0.003	42.2
0.0007	0.0007	0.009	0.003	42.3
-0.0008	-0.0015	0.0135	0.003	42.3
-0.0046	-0.0038	0.0217	0.003	42.3
-0.0083	-0.003	0.0255	0.003	42.4
-0.0105	-0.003	0.0217	0.0015	42.5
-0.0075	-0.0008	0.015	0.0007	42.5
-0.0015	-0.0008	0.0067	-0.0015	42.6
0.0037	-0.0008	-0.0068	-0.0046	42.7
0.0097	0.0022	-0.0181	-0.0053	42.7
0.012	0.0045	-0.0233	-0.0053	42.7
0.0082	0.0037	-0.0195	-0.0053	42.8
0.0052	0.0015	-0.0113	-0.003	42.9
0.003	0.0007	-0.0046	-0.0008	42.9
0	0.0022	-0.0008	-0.0015	43
-0.003	-0.0015	0.0037	-0.0008	43.1
-0.0091	-0.0053	0.0127	0.0007	43.1
-0.0113	-0.0046	0.0217	0.0037	43.1
-0.0083	-0.0008	0.0225	0.003	43.2
-0.0053	-0.003	0.0262	0.003	43.2
-0.0053	-0.0053	0.027	0.0045	43.3
-0.0046	-0.0053	0.0217	0.003	43.4
-0.003	-0.003	0.0202	0.0015	43.4
-0.003	0	0.0105	-0.0008	43.5
0.0007	0.0007	0.0022	-0.0015	43.6
0.0045	0.003	-0.0023	-0.0015	43.6
0.006	0.0015	-0.012	-0.003	43.6
0.0067	0.0007	-0.015	-0.0046	43.7
0.003	-0.0008	-0.0158	-0.0023	43.8
0.003	-0.0015	-0.0135	0.0007	43.9
0.003	-0.003	-0.0158	0.0007	43.9
0.0067	-0.0046	-0.0248	0	44
0.0142	-0.0023	-0.0181	0.0007	44.1
0.0097	-0.0023	-0.0091	0.0015	44.1
0.0082	-0.003	-0.0068	0.0015	44.2
0.0045	-0.0015	0.0007	0.0022	44.2
-0.0008	-0.0023	0.0105	0.0045	44.3
-0.0046	-0.003	0.0142	0.0045	44.4
-0.0038	-0.0008	0.0097	0.0015	44.4
-0.0015	0.0022	0.012	-0.0008	44.5
-0.003	0.003	0.0082	-0.0015	44.5
0.0015	0.0045	-0.0053	-0.0038	44.6
0.0045	0.0045	-0.0158	-0.006	44.7
0.0075	0.0052	-0.0218	-0.006	44.7
0.0052	0.006	-0.021	-0.0053	44.8
-0.0008	0.003	-0.012	-0.0023	44.9
-0.0105	0.0007	-0.0023	-0.0008	44.9
-0.0181	-0.0008	0.0007	-0.0008	45
-0.0203	-0.0015	0.003	0.0022	45
-0.0233	-0.0023	0.012	0.0022	45.1
-0.0173	-0.0023	0.0142	0.0022	45.2
-0.0128	-0.0015	0.0142	0.0037	45.2
-0.0113	-0.0015	0.0142	0.0045	45.3
-0.0128	-0.006	0.0202	0.0052	45.3
-0.0143	-0.0083	0.0195	0.0045	45.4
-0.0098	-0.0068	0.0112	0.0007	45.4
-0.003	-0.0053	0.0075	-0.0023	45.5
0.0052	-0.003	0.0015	-0.0023	45.6
0.009	-0.0015	-0.0053	-0.003	45.6
0.0157	-0.0008	-0.0143	-0.0046	45.7
0.018	0.0007	-0.0181	-0.003	45.8
0.0165	-0.0008	-0.0098	-0.0038	45.8
0.021	-0.0008	0.003	-0.0015	45.9
0.0202	-0.0008	0.0142	-0.0008	45.9
0.0127	0	0.0195	0	46
0.0067	0.0015	0.0247	0.0022	46
0.0015	0.0015	0.021	0.0015	46.1
0.0045	0.0015	0.0157	0.0037	46.2
0.006	0.0007	0.0165	0.0022	46.3
0.0052	0	0.0157	0.0015	46.3
0.0022	0.0007	0.0142	0.003	46.4
-0.0008	0.0007	0.0105	0.0037	46.4
0	0.0007	0.0082	0.0022	46.5
-0.0038	0.0007	-0.0008	-0.0008	46.6
-0.0015	0	-0.012	-0.0015	46.6
0.0037	0.0007	-0.0203	-0.0046	46.7
0.0067	0.0015	-0.0285	-0.0053	46.8
0.0105	0.0052	-0.0278	-0.003	46.8
0.0105	0.0045	-0.024	-0.0046	46.9
0.0082	-0.0008	-0.0158	-0.003	47
0.0052	-0.0015	-0.012	-0.0023	47.1
0.0045	-0.0023	-0.0083	-0.0023	47.1
0.0037	-0.003	-0.0046	0.0007	47.2
0.0037	-0.0015	-0.003	0.0007	47.2
0.0022	-0.0023	0.0015	0.0007	47.3
-0.003	-0.0015	0.0067	-0.0008	47.4
-0.0083	-0.0038	0.015	0.0007	47.5
-0.012	-0.006	0.0127	0.0015	47.5
-0.0113	-0.0068	0.0052	0	47.6
-0.0091	-0.0053	0	-0.0008	47.6
-0.0046	-0.003	-0.0068	-0.0015	47.7
0	-0.0015	-0.0128	-0.0038	47.8
0.0037	-0.0008	-0.0233	-0.0053	47.9
0.009	0.0015	-0.0293	-0.0053	47.9
0.0082	0.0015	-0.0285	-0.0046	48
0.009	0.0007	-0.0188	-0.0023	48.1
0.0045	0.0007	-0.0091	-0.0008	48.1
0.0015	0.0007	-0.0038	-0.0008	48.2
-0.0023	0.0007	0.0052	0	48.3
-0.0068	0.0007	0.0127	0.0015	48.4
-0.0083	-0.0008	0.0165	0.0007	48.4
-0.0091	-0.0015	0.0135	-0.0008	48.5
-0.0053	0.0007	0.0105	0.0015	48.6
-0.0091	-0.0015	0.0135	0.0015	48.6
-0.012	-0.003	0.0127	0.0007	48.7
-0.0068	-0.0023	0.0067	0.0007	48.8
-0.0015	-0.0015	0.003	0	48.9
0.0022	0.0015	-0.0046	-0.0015	48.9
0.0052	0.003	-0.0113	-0.0038	49
0.0105	0.003	-0.0195	-0.0046	49.1
0.0157	0.0022	-0.0218	-0.0023	49.1
0.0195	0.003	-0.0158	-0.0008	49.2
0.018	0.003	-0.0068	0.0007	49.3
0.015	0.0007	0.0007	0.0015	49.4
0.0112	0.0007	0.0022	0.0015	49.5
0.0045	0	0.003	0.0007	49.5
-0.0008	0.0022	0.0007	0.0015	49.6
-0.003	0.0022	0.0067	0.0007	49.7
-0.0023	-0.0008	0.018	-0.0015	49.7
-0.0083	-0.003	0.0202	0.0015	49.8
-0.0135	-0.0053	0.024	0.003	49.9
-0.0143	-0.0015	0.0225	0.003	49.9
-0.0143	0.0015	0.0082	0.0007	50
-0.0091	0	-0.0015	-0.0008	50.1
-0.0068	0.0022	-0.012	-0.0015	50.2
-0.0023	0.0045	-0.021	-0.0023	50.3
0.003	0.0045	-0.0225	-0.0046	50.4
0.0067	0.0045	-0.0256	-0.0038	50.4
0.009	0.0007	-0.0181	-0.0008	50.5
0.0067	0.0007	-0.0105	0.0007	50.6
0.0067	0.0007	-0.0068	0.0015	50.7
0.0045	0.0007	-0.0015	0.0022	50.8
0.0007	0.0015	0.003	0	50.8
-0.0046	0	0.0105	-0.0008	50.9
-0.0091	0.0007	0.018	-0.0008	51
-0.0105	0.0007	0.0232	-0.0008	51.1
-0.0128	-0.0015	0.03	0.0022	51.1
-0.0158	-0.0008	0.0307	0.003	51.2
-0.0128	-0.0008	0.0195	0.003	51.3
-0.0075	0.0007	0.009	0.0037	51.3
-0.006	0.0015	-0.0015	0.0022	51.4
-0.0046	0.0007	-0.0091	0.0007	51.5
-0.0015	0.0015	-0.0113	-0.0015	51.6
0.0015	0.0007	-0.0143	-0.003	51.7
0.0052	-0.003	-0.0135	-0.0046	51.7
0.0067	-0.003	-0.0023	-0.003	51.8
0.0067	-0.0008	0.0142	-0.0008	51.9
0.006	-0.0015	0.0232	-0.0015	52
0.0045	-0.0015	0.0202	0	52.1
0.0022	-0.0015	0.0127	0.0022	52.2
-0.0008	-0.0038	0.0067	0.0015	52.2
-0.003	-0.0015	-0.0023	-0.0008	52.3
-0.003	-0.0008	0.0015	0.0007	52.4
-0.0068	-0.0023	0.0052	0.003	52.5
-0.0105	-0.0023	0.0007	0.0015	52.5
-0.012	-0.0015	-0.0053	0.0015	52.6
-0.0105	0	-0.0173	-0.0023	52.7
-0.0068	0.0007	-0.024	-0.003	52.7
-0.0023	0.0007	-0.0285	-0.0038	52.8
0.0082	0.003	-0.0315	-0.0075	52.9
0.0135	0.0045	-0.0293	-0.0053	53
0.015	0.0045	-0.0233	-0.0038	53.1
0.012	0.003	-0.0158	-0.0008	53.1
0.0082	0.0015	-0.0083	0.0007	53.2
0.0082	0.0015	-0.0075	-0.0008	53.3
0.0067	0.0015	-0.0053	0	53.4
0.0052	-0.0008	0.0007	-0.0008	53.5
0.0015	-0.0046	0.0067	0.0007	53.5
0	-0.0046	0.0127	0.003	53.6
-0.0008	-0.0053	0.0195	0.0037	53.6
-0.003	-0.0068	0.0232	0.0037	53.7
-0.0008	-0.0053	0.021	0.0022	53.8
-0.0015	-0.0038	0.0135	0.0015	53.9
0.0007	0	0.0045	0.0007	54
0.0022	-0.0008	-0.0015	-0.0008	54
0.0022	0	-0.0075	-0.003	54.1
0.0067	0.0022	-0.012	-0.0046	54.2
0.0082	0.0007	-0.0105	-0.003	54.2
0.006	0.0022	-0.0083	-0.0008	54.3
0.0052	0.0015	-0.006	0.0007	54.4
0.0067	0.0007	-0.0038	-0.0015	54.4
0.0097	-0.0008	0.0052	-0.0008	54.5
0.0097	-0.003	0.018	-0.0008	54.6
0.0075	0.0007	0.024	-0.0023	54.7
0.0075	0.0007	0.0255	0.0007	54.7
0.0045	-0.0008	0.0247	0.0015	54.8
-0.003	-0.0015	0.0262	0.0007	54.9
-0.006	-0.0015	0.0217	0.0007	54.9
-0.0068	-0.0015	0.0082	-0.0008	55
-0.0068	-0.0008	-0.0046	-0.003	55.1
-0.0053	0.0015	-0.0158	-0.003	55.2
-0.0015	0.0022	-0.0256	-0.0038	55.2
0.0022	0.003	-0.03	-0.0038	55.3
0.006	0.0045	-0.0323	-0.003	55.3
0.0067	0.003	-0.0315	-0.0046	55.4
0.0022	0.0022	-0.0195	-0.0015	55.5
-0.0015	-0.0008	-0.0098	0.0007	55.6
-0.0015	0	-0.0083	0.0015	55.7
-0.0046	0	-0.0023	0.0022	55.7
-0.0083	-0.0015	0.0015	0.003	55.8
-0.0075	-0.003	0.0015	0.003	55.8
-0.0091	-0.003	0.0045	0.003	55.9
-0.0083	-0.003	0.012	0.003	56
-0.0091	-0.0046	0.0225	0.0037	56.1
-0.0091	-0.0023	0.0217	0.0022	56.1
-0.0038	-0.003	0.0157	-0.0008	56.2
0.0007	-0.0008	0.012	-0.0023	56.3
0.0082	0.0015	0.0037	-0.0023	56.3
0.012	0.0022	-0.0053	-0.0046	56.4
0.0142	0.0045	-0.0128	-0.0053	56.5
0.0165	0.0007	-0.0173	-0.0046	56.6
0.012	0.0015	-0.0165	-0.0015	56.7
0.0082	0	-0.0091	-0.0008	56.7
0.0015	-0.003	-0.0023	-0.0008	56.8
-0.0023	-0.0023	0.0022	-0.0008	56.8
-0.0038	-0.003	0.009	0.0007	56.9
-0.0068	-0.0008	0.0135	0.0007	57
-0.0068	0.0007	0.0135	0.0015	57.1
-0.0091	0.0007	0.0112	0.0037	57.1
-0.0091	0	0.0127	0.0045	57.2
-0.0128	-0.003	0.0157	0.0045	57.3
-0.0143	-0.0038	0.0097	0.0015	57.4
-0.0105	-0.0046	0.0007	-0.0008	57.4
-0.0083	-0.0038	-0.0143	-0.0015	57.5
-0.0046	-0.0053	-0.0293	-0.003	57.6
-0.0008	-0.0038	-0.0368	-0.0053	57.6
0.0052	0.0007	-0.0353	-0.0053	57.7
0.0105	0.0022	-0.0256	-0.0038	57.8
0.0097	0.0015	-0.012	-0.0015	57.8
0.0082	0.0007	-0.0008	-0.0008	57.9
0.0075	0.0007	0.0105	0.0007	58
0.0052	0.0015	0.0195	0.003	58
0.0015	0.0007	0.021	0.0015	58.1
-0.0015	0.0007	0.0232	0	58.1
-0.0046	0.0007	0.0202	0.0015	58.2
-0.0023	0.0007	0.0202	0.003	58.3
-0.0008	-0.0008	0.0255	0.0045	58.3
-0.003	-0.0008	0.0217	0.0037	58.4
-0.003	-0.0008	0.0142	0	58.5
0.0015	-0.0008	0.006	-0.0015	58.5
0.006	-0.0008	-0.0038	-0.0038	58.6
0.0105	-0.0015	-0.0188	-0.006	58.6
0.0142	0.0015	-0.0315	-0.0075	58.7
0.0187	0.0052	-0.0368	-0.0068	58.8
0.018	0.0045	-0.0323	-0.0053	58.9
0.012	0.0045	-0.0203	-0.003	58.9
0.0045	0.003	-0.0158	-0.0008	58.9
-0.0015	0.0007	-0.0113	0.0015	59
-0.006	-0.0008	-0.003	0.0022	59.1
-0.0083	-0.0023	0.0022	0.0015	59.2
-0.0083	-0.0015	0.0067	0.0015	59.2
-0.0091	-0.0008	0.0105	0.003	59.3
-0.0098	-0.0015	0.018	0.0037	59.4
-0.015	-0.0008	0.0225	0.003	59.4
-0.015	0.0007	0.0202	0.0022	59.5
-0.0113	-0.0008	0.0142	0.0007	59.5
-0.0083	-0.0008	0.0067	0	59.6
-0.003	-0.0015	-0.0008	-0.0008	59.7
0.0007	-0.0008	-0.0083	-0.0023	59.7
0.0052	0.0007	-0.0165	-0.0046	59.8
0.0105	0.0015	-0.0218	-0.0046	59.8
0.0127	0.003	-0.0181	-0.003	59.9
0.0075	0.0007	-0.006	0	60
0.003	0.0007	0.0007	0	60
0.003	0.0015	0.0022	0	60.1
0.0015	-0.0008	0.0052	0.0015	60.2
0	-0.0008	0.009	-0.0008	60.2
0	-0.003	0.0142	0.0007	60.3
0.0015	-0.003	0.018	0.0015	60.3
-0.0015	-0.0046	0.0217	0.0022	60.4
-0.0083	-0.0053	0.0277	0.0045	60.4
-0.0098	-0.0046	0.0232	0.0015	60.5
-0.0091	-0.0038	0.0135	-0.0008	60.6
-0.003	-0.0015	0.0067	-0.0015	60.6
0.003	0.0007	-0.0015	-0.003	60.7
0.009	0.003	-0.0105	-0.0053	60.7
0.0127	0.0045	-0.0165	-0.0053	60.8
0.0112	0.0052	-0.0173	-0.003	60.8
0.0082	0.0045	-0.0135	-0.0023	60.9
0.006	0.0045	-0.0068	-0.0015	60.9
0.0015	0.0045	-0.0038	0.0007	61
-0.0023	0.0015	0.0007	0.0015	61.1
-0.0023	0	0.003	0.0007	61.1
-0.0023	-0.0008	0.0052	0.0022	61.2
-0.003	-0.0038	0.009	0.0015	61.2
-0.0046	-0.0046	0.0105	0.0007	61.3
-0.0083	-0.0053	0.018	0.0015	61.3
-0.0105	-0.0068	0.0142	0.0015	61.4
-0.0091	-0.006	0.009	0.0015	61.4
-0.003	-0.0038	0.0045	-0.0008	61.5
0.0007	-0.0015	-0.0068	-0.0008	61.6
0.0022	-0.0008	-0.0158	-0.0015	61.6
0.0082	-0.0008	-0.0278	-0.003	61.6
0.0112	0	-0.0315	-0.003	61.7
0.0127	0.0015	-0.024	-0.0038	61.7
0.0112	0.0007	-0.0158	-0.0015	61.8
0.0052	-0.0015	-0.0068	-0.0015	61.8
0.003	-0.0015	-0.0038	-0.0015	61.9
0.0022	-0.0008	-0.0015	-0.0015	61.9
0.0022	-0.0008	0.0015	0	62
0.0007	-0.0008	0.0067	0.003	62.1
-0.0015	-0.0008	0.0135	0.003	62.1
-0.0038	-0.0008	0.0225	0.0045	62.1
-0.0091	-0.0023	0.0292	0.0052	62.2
-0.0128	-0.0023	0.027	0.003	62.2
-0.0135	-0.0015	0.0127	0.0022	62.3
-0.0075	0	-0.0023	0.0007	62.3
-0.0023	0.0015	-0.012	-0.0015	62.4
0.0007	0.0015	-0.0165	-0.0023	62.4
0.009	0.0022	-0.0233	-0.003	62.5
0.0112	0.0015	-0.0293	-0.0046	62.5
0.0127	0.0022	-0.0218	-0.003	62.5
0.009	0.0022	-0.0128	-0.0008	62.6
0.006	0.0007	-0.0083	-0.0008	62.6
0.0052	0.0007	-0.003	-0.0008	62.7
0.0037	0	0	0	62.8
0.006	-0.0008	0.0015	0.0007	62.8
0.0037	-0.0015	0.003	-0.0008	62.9
-0.0008	-0.0023	0.0097	0.0007	62.9
-0.003	-0.003	0.0165	0.0015	63
-0.0068	-0.0023	0.0202	0.0007	63
-0.0068	-0.0008	0.0187	0.0007	63
