File Name: 3Nmar.log
Channel 1: 'RF', 6922 values, engineering units: mV, no filters.
Channel 2: 'BF', 6922 values, engineering units: mV, no filters.
Channel 3: 'VM', 6922 values, engineering units: mV, no filters.
Channel 4: 'ST', 6922 values, engineering units: mV, no filters.
Channel 5: 'FX', 347 values, engineering units: deg, no filters, extrapolated from 50 to 1000 samples per second.

-0.0008	0.0015	0.0007	-0.0023	4.9
-0.0008	-0.0008	0.003	-0.0023	4.9
0	0.0007	0.0015	0	4.9
-0.0008	0	0.003	-0.0015	4.9
-0.0008	-0.0008	0.0022	-0.0015	4.9
0.0007	0	0.0015	-0.0015	4.9
0	-0.0008	0	0	4.9
-0.0015	-0.0008	0.0007	-0.0008	4.9
-0.0023	-0.0008	0.0007	-0.0023	4.9
-0.003	-0.0015	-0.0008	-0.003	4.9
-0.0015	-0.0038	0.0015	-0.003	4.9
-0.0008	-0.0008	0.003	0.0015	4.9
-0.0023	0	0.0007	-0.0008	4.9
-0.0015	-0.0008	0.0007	0.0007	4.9
-0.0008	-0.0015	0.0007	0.0045	4.9
0	-0.0008	-0.0008	0.0007	4.9
0.0007	0.0007	-0.0015	-0.0008	4.9
0	0	-0.0015	-0.0008	4.9
0	0.0015	0.0007	-0.0008	4.9
0.0015	0.0015	0.0015	-0.0008	4.9
0.0007	0.0015	0.0022	-0.0038	4.9
0.0022	0.0007	0.0052	-0.0015	4.9
0.0007	-0.0015	0.0052	0.0022	4.9
-0.0008	-0.0015	0.0052	-0.0008	4.9
-0.0008	-0.0046	0.0045	-0.0046	4.9
-0.0008	-0.0053	0.0022	-0.003	4.9
0.0007	-0.0015	0.0015	-0.003	4.9
0.0007	0	0.0015	-0.003	4.9
0.0015	0.0007	0.0015	-0.0015	4.9
0.003	-0.0008	0.0007	-0.0015	4.9
0.0022	-0.003	0.003	-0.0046	4.9
0.003	-0.0008	0.0045	-0.0091	4.9
0.0015	-0.0008	0.0045	-0.0128	4.9
0.0007	-0.0038	0.0045	-0.0128	4.9
0.0007	-0.003	0.003	-0.0046	4.9
0.0007	-0.0023	0.003	0.0015	4.9
-0.0008	-0.0008	0.003	0.0015	4.9
-0.0008	-0.0015	0.0015	0.0015	4.9
-0.0008	-0.0015	0.0007	0.0052	4.9
0	-0.0008	-0.0008	0.006	4.9
0	0	0.0007	0.006	4.9
-0.0015	0.0015	0.0022	0.0045	4.9
-0.0008	0.0015	0.0015	0.0015	4.9
0	0.0007	0.003	0.0015	4.9
0	0.0007	0.0015	0.0007	4.9
-0.0015	0.0007	-0.0015	0	4.9
-0.0023	0	-0.0015	0	4.9
-0.0015	0.0015	-0.003	0	4.9
-0.003	0.0007	-0.0023	0.0007	4.9
-0.003	0.0007	0	0.0007	4.9
-0.0015	0.0015	-0.0008	-0.0015	4.9
-0.0015	0	0	0	4.9
0.0007	-0.0008	0.0007	0	4.9
0.0007	-0.0008	0.0007	-0.0015	4.9
0	-0.0008	0.0007	-0.0015	4.9
0	-0.0015	0	-0.0008	5
-0.0015	-0.0015	-0.0008	-0.0015	5
-0.0008	-0.0008	-0.0015	-0.0015	5
-0.0015	-0.0015	-0.0038	-0.0015	5
-0.0015	-0.003	-0.0046	-0.0008	5
-0.0008	-0.0023	-0.003	0	5
-0.0008	-0.0015	-0.003	0	5
0.0007	-0.0008	-0.0038	0	5
0.0007	0	-0.0008	0	5
-0.0008	0.0007	0	-0.0015	5
0	0.0015	0	-0.0015	5
0.0007	0.0007	0.0022	-0.0008	5
-0.0008	-0.0015	0.0015	0	5
0.0007	-0.0015	0.0045	-0.0008	5
0	0.0007	0.003	-0.0038	5
0.0007	-0.0008	0.003	-0.006	5
0.003	-0.0023	0.0052	-0.0098	5
0.0022	-0.003	0.0045	-0.0158	5
0.003	-0.0015	0.0067	-0.0143	5
0.003	-0.0008	0.006	-0.0075	5
0.0022	0	0.006	-0.003	5
0.0022	-0.0008	0.0075	-0.0008	5
0.003	-0.0008	0.0082	0.003	5
0.0022	-0.0023	0.0112	0.006	5
0.0037	-0.0015	0.0105	0.0075	5
0.0045	-0.0008	0.009	0.006	5
0.0045	-0.0008	0.0067	0.003	5
0.003	-0.0008	0.0045	0.0007	5
0.0015	-0.0008	0.0052	0	5
-0.0015	-0.0008	0.0015	-0.0015	5
-0.006	-0.003	-0.0038	-0.0083	4.9
-0.0075	-0.006	-0.0091	-0.012	4.9
-0.0083	-0.0046	-0.0105	-0.0075	4.9
-0.0091	-0.003	-0.0083	-0.0046	4.9
-0.0083	-0.0015	-0.006	-0.0023	4.9
-0.0068	0	-0.0046	0	4.9
-0.0053	0.0007	-0.0015	-0.0008	4.9
-0.0023	0.0007	0.0015	-0.0008	4.9
0.0015	-0.0008	0.0045	-0.0015	4.9
0.0007	-0.0008	0.003	-0.003	4.9
0	0	0.003	-0.0038	4.8
0.0007	0	0.0015	-0.003	4.8
-0.0015	0.0015	0.0007	-0.0015	4.8
-0.0015	-0.0008	0	-0.0015	4.8
-0.003	-0.0015	-0.0023	-0.0008	4.8
-0.0015	-0.0023	-0.0008	0	4.7
0.0007	-0.0023	0.0007	-0.0008	4.7
0	-0.0008	0.003	-0.003	4.7
-0.0008	-0.0008	0.003	-0.0015	4.7
-0.0008	-0.0015	0.0007	-0.0008	4.7
0.0007	-0.0008	0.0007	0.0007	4.7
0.0007	-0.0008	-0.0015	0.0007	4.6
0.0007	-0.0008	0.0007	-0.0008	4.6
0	0.0007	0.0015	-0.0008	4.6
0.0015	0	0.0015	-0.0008	4.6
0.0022	0.0015	0.003	-0.0008	4.5
0.0015	0.0007	0.0022	0.0015	4.5
0.0015	0.0015	0.0022	0.0037	4.5
0.0037	0.0015	0.0045	0.0015	4.5
0.0045	0.0007	0.0052	0.0007	4.5
0.0037	0.0015	0.0052	0.0015	4.5
0.0022	0.0007	0.0052	0.0007	4.5
0.0015	0.0007	0.003	-0.0008	4.4
0.0007	0	0.0015	-0.003	4.4
0	0.0007	0.0007	-0.003	4.4
0	0.0007	0.003	-0.003	4.3
0.0007	-0.0008	0.0037	-0.003	4.3
-0.0008	0.0007	0.003	-0.0038	4.3
0.0015	0.0007	0.003	-0.0068	4.3
0.0007	0.0007	0.0015	-0.0083	4.4
0.0007	0.0007	0	-0.0083	4.4
0.0007	-0.0008	-0.0008	-0.0038	4.4
0	0.0007	0.0015	0.0007	4.4
0.0015	0.003	0	0.0022	4.4
0	0.0037	0	0.0015	4.4
0.0007	0.003	0.0007	0.0045	4.4
0.0015	0.0045	0.003	0.0105	4.4
0.0015	0.003	0.0045	0.0067	4.4
0	-0.0015	0.003	0.012	4.4
-0.0008	-0.0015	0.0045	0.024	4.4
0	-0.0023	0.003	0.021	4.4
-0.0008	-0.0105	0.0007	0.0187	4.4
-0.0008	-0.0158	0	-0.003	4.5
-0.0008	-0.015	-0.0008	-0.0188	4.5
-0.003	-0.0113	-0.0023	-0.0165	4.5
-0.003	-0.0038	-0.003	-0.0181	4.5
-0.0038	-0.0008	-0.0053	-0.0105	4.5
-0.006	-0.0008	-0.0083	-0.0158	4.5
-0.0053	-0.0038	-0.012	-0.0181	4.4
-0.0068	-0.0068	-0.0083	-0.0105	4.4
-0.0053	-0.006	-0.0046	-0.003	4.4
-0.0046	-0.0008	-0.0008	0.0022	4.3
-0.0015	0.0037	0.0022	0.0015	4.3
0.0015	0.0022	0.0045	0.0037	4.3
0.0015	0.0045	0.009	0	4.3
0.0045	0.0045	0.0105	0.0007	4.2
0.003	0.0037	0.0112	-0.0008	4.2
0.003	0.0045	0.0097	-0.0008	4.2
0.0015	0.0037	0.0082	0.0045	4.1
0.0007	0.0052	0.0067	0.0082	4.1
0.0015	0.0052	0.0045	0.0105	4.1
0	0.0037	0.0015	0.0105	4
0.0007	0.003	0.0022	0.0067	4
0	0.003	0.0022	0.0007	4
0.0015	0.0015	0.0022	-0.0053	4
0.003	-0.0008	0.0037	-0.0113	3.9
0.0015	-0.0008	0.0045	-0.0158	3.9
0.0015	-0.0015	0.0037	-0.021	3.9
0.0007	-0.0023	0.0022	-0.0233	3.9
0.0037	-0.0015	0.003	-0.0195	3.9
0.0015	0.0007	0.003	-0.0105	3.9
0.0015	0.0015	0.0015	0.0007	3.8
0.003	0.0015	0.0015	0.003	3.8
-0.0008	-0.0015	0.003	0.012	3.8
-0.0008	-0.0015	0.003	0.0142	3.8
-0.0015	0.0007	0.0007	0.0067	3.7
-0.0046	-0.0008	-0.0008	0.0045	3.7
-0.003	-0.0015	-0.0015	0.0015	3.7
-0.0015	-0.003	-0.0008	0.0052	3.7
-0.0008	-0.0008	-0.0015	0.015	3.7
-0.003	0.0015	-0.0046	0.0187	3.6
-0.0038	0.003	-0.003	0.0037	3.6
-0.0015	0.0022	-0.0015	-0.0218	3.6
-0.0008	-0.0038	0.0015	-0.0293	3.6
-0.0008	-0.0046	0.0022	-0.0135	3.6
0.0007	-0.003	0.0045	0.003	3.5
0.0007	-0.0008	0.0045	0.0142	3.5
-0.0008	-0.0046	0.0022	0.009	3.5
-0.0008	-0.0105	0.0015	-0.0083	3.5
-0.0008	-0.0135	0.0022	-0.012	3.4
-0.0015	-0.0128	0.0052	0.0052	3.4
0.0015	-0.0053	0.006	0.0142	3.3
0.003	-0.0008	0.0045	-0.0008	3.3
0.0052	-0.0008	0.0037	-0.0218	3.3
0.003	-0.0008	0.0045	-0.0278	3.2
0.0007	0.0015	0.0037	-0.0128	3.2
0.0015	0.0015	0.003	-0.0075	3.2
0.0015	-0.0008	0.0022	-0.0053	3.1
0.0007	0	0	-0.0053	3.1
-0.0008	-0.003	-0.0015	-0.0158	3.1
-0.0008	-0.0068	-0.0023	-0.0075	3.1
0.0007	-0.0038	-0.0023	0.0105	3
0.0007	0.0007	0.0015	0.0157	3
0.0015	0.0037	0.0022	0.0007	2.9
0.0022	0.003	0.003	0.0007	2.9
0.003	0.003	0.0045	0.0082	2.8
0.0037	0.003	0.0015	0.0007	2.8
0.0015	0.0052	0.003	-0.0015	2.8
0.0007	0.009	0.003	0.0015	2.7
0.0007	0.0105	0.0045	0.006	2.7
0.003	0.0097	0.003	-0.0023	2.7
0.0007	0.0067	0.0015	-0.0083	2.6
-0.0015	0.003	0.0007	-0.0053	2.6
-0.0008	-0.0046	-0.0023	-0.0046	2.6
0	-0.0083	0.0007	0.0202	2.5
-0.0008	-0.0105	0.0045	0.045	2.5
-0.0038	-0.0135	0.0045	0.0382	2.5
-0.0038	-0.0135	0.0037	0.0142	2.4
-0.0023	-0.0098	0.0015	-0.0083	2.4
-0.003	-0.0091	0.0007	-0.0113	2.3
-0.0008	-0.0053	0.0007	-0.003	2.3
-0.0008	0.0007	-0.0008	-0.0046	2.2
0.0015	0.0045	-0.0015	-0.0038	2.2
0.0015	0.0052	-0.0023	-0.006	2.2
0.0015	0.003	-0.0015	-0.0008	2.2
0.003	0.0052	-0.0008	0.0052	2.1
0.0015	0.003	-0.0015	0.003	2.1
0.0022	-0.0015	0	-0.0015	2
0.0015	-0.003	-0.0008	-0.0046	2
0.0015	-0.0008	0.0007	-0.0128	1.9
-0.0008	0	0.0007	-0.0203	1.8
0	0.0015	0.0015	-0.0098	1.8
0.0007	0.0082	0.003	-0.0105	1.8
0	0.0045	0.0022	-0.0158	1.7
0.0015	-0.0015	0.0007	-0.0075	1.7
0.0007	-0.0046	-0.0008	0.0075	1.6
0	-0.0015	0.0007	0.015	1.5
0.0022	0.0045	0.0007	0.0135	1.5
0.003	0.0075	0.0015	0.0052	1.4
0.0022	0.0052	0.0015	-0.0068	1.4
0.003	0.0052	0.0015	-0.0233	1.3
0.0022	0.003	0.0007	-0.0346	1.3
0.0007	-0.0015	-0.0008	-0.0346	1.2
0	-0.003	-0.0023	-0.0256	1.2
-0.0008	-0.0128	-0.0023	0.0045	1.1
-0.003	-0.0173	0	0.0112	1
-0.0015	-0.0165	0	-0.0046	1
0.0015	-0.0128	-0.0008	-0.0158	1
-0.0008	-0.0091	-0.0008	-0.0195	0.9
-0.003	-0.0023	-0.0008	-0.003	0.9
-0.003	0.0022	0.0015	0	0.8
-0.003	0.0015	0	0.0067	0.8
-0.0038	0.0022	0	0.0105	0.7
-0.003	0.0007	0.0015	0.0067	0.7
-0.0015	0.003	0.003	0.009	0.6
-0.0023	0.003	0.0037	0.0112	0.5
-0.003	0.0037	0.0037	0.021	0.5
-0.0023	0.0045	0.0037	0.0217	0.4
-0.0023	0.003	0.0022	0.0172	0.4
-0.0015	0.0045	0.0052	0.0112	0.4
-0.0015	0.0052	0.0045	0.012	0.3
-0.0015	0.0052	0.0022	0.009	0.3
0	0.003	0.003	0.0075	0.2
0.0007	0	0.003	0.0015	0.1
0	-0.0023	0.0045	-0.0098	0.1
0.0007	-0.0038	0.0045	-0.0135	0
0.0007	-0.0015	0.0037	-0.0165	0
-0.0008	0	0.003	-0.0083	0
-0.0008	0.0007	0.0022	-0.0181	-0.1
-0.0008	-0.0015	0.003	-0.0368	-0.1
0	-0.0053	0.003	-0.027	-0.2
-0.0038	-0.003	0.0045	-0.0068	-0.2
-0.0046	-0.0023	0.0022	-0.0015	-0.3
-0.003	-0.0008	0.0007	-0.0008	-0.3
-0.0015	0.0007	0.0015	0.003	-0.4
-0.0015	0.0007	-0.0008	0.0022	-0.4
-0.0015	0.0007	-0.0008	0.0007	-0.5
0.0007	-0.0008	-0.0015	-0.0038	-0.5
0	-0.0015	-0.0015	-0.0038	-0.5
-0.0015	0.0007	-0.0015	-0.0015	-0.6
-0.0008	0.0007	-0.0015	-0.0008	-0.6
0.0007	0.0007	-0.003	0.0022	-0.7
0	0.0007	-0.0015	0.0045	-0.7
-0.0015	-0.0008	-0.0023	0.0127	-0.8
-0.0015	0.0015	-0.003	0.024	-0.8
-0.003	0.006	-0.003	0.0195	-0.9
-0.0023	0.006	-0.0046	0.0127	-0.9
-0.0023	0.0037	-0.0046	0.0202	-0.9
-0.0023	0.0022	-0.0046	0.0337	-1
-0.0008	0.0045	-0.0023	0.033	-1.1
0.0007	0.0022	-0.0015	0.0142	-1.1
0.0007	-0.0068	0.0022	0.0015	-1.2
0.0007	-0.0091	0.003	-0.0091	-1.3
0.0007	-0.006	0.0007	-0.0293	-1.3
-0.0015	-0.0098	0.0015	-0.03	-1.4
-0.003	-0.0158	-0.0008	-0.0278	-1.4
-0.003	-0.0203	-0.003	-0.0428	-1.5
-0.003	-0.0188	-0.0008	-0.0443	-1.5
-0.0008	-0.0083	0.0015	-0.024	-1.6
0.0007	-0.0015	0	-0.003	-1.6
-0.0008	-0.0015	0.0007	0.009	-1.7
-0.0015	0	0	0.0142	-1.8
0.0015	0.0022	0.0015	0.0157	-1.8
0.003	0.0045	0.0045	0.009	-1.9
0.0022	0.006	0.006	0.0007	-1.9
0.003	0.0075	0.0052	-0.003	-2
0.003	0.0067	0.003	-0.0068	-2.1
0.0022	0.0067	0.0022	-0.0113	-2.1
0.0022	0.006	0.0015	-0.0233	-2.2
0.003	0	0.0015	-0.027	-2.3
0.003	-0.0053	0.0015	0.0045	-2.3
0.003	-0.0046	0.003	0.021	-2.4
0.0015	0.0007	0.0022	0.006	-2.4
0.0007	0.0015	0.0015	0.0037	-2.5
0	0.0037	0.0022	0.0007	-2.6
0.0022	0.0045	0.0007	-0.0008	-2.7
0.0022	0.0045	-0.0008	0.0075	-2.7
0.0007	0.0067	0.0007	0.0112	-2.8
0.0015	0.0052	-0.0015	0.0127	-2.9
-0.0008	0.0007	-0.0023	0.0127	-2.9
-0.0008	-0.0046	-0.003	0.024	-3
-0.003	-0.0015	-0.0075	0.033	-3.1
-0.0046	0.0007	-0.0105	0.0255	-3.1
-0.0046	-0.0008	-0.012	0.0082	-3.2
-0.0053	-0.0008	-0.0128	-0.0143	-3.2
-0.0068	-0.003	-0.012	-0.0233	-3.4
-0.0053	-0.0008	-0.0135	-0.0165	-3.4
-0.0053	0.003	-0.0143	-0.0188	-3.5
-0.006	0.0007	-0.0143	-0.0233	-3.6
-0.0053	-0.0053	-0.0143	-0.0128	-3.7
-0.006	-0.012	-0.0143	-0.006	-3.8
-0.0075	-0.015	-0.0128	-0.0083	-3.9
-0.0068	-0.0105	-0.0091	-0.0113	-4
-0.0046	-0.0091	-0.0038	-0.0075	-4.1
0.0015	-0.0068	0.0015	0	-4.2
0.003	-0.0015	0.0082	0.009	-4.3
0.0052	-0.0015	0.015	0.0082	-4.4
0.0082	0.0007	0.021	-0.0038	-4.5
0.009	0.0015	0.0255	-0.003	-4.6
0.0112	0.0007	0.0277	-0.0098	-4.7
0.0127	0.003	0.0292	-0.0135	-4.8
0.0157	0.0052	0.0345	-0.0046	-4.9
0.0172	0.003	0.0337	-0.003	-5
0.0157	-0.0046	0.0277	0.0037	-5.1
0.0142	-0.0053	0.027	0.012	-5.2
0.012	0.0007	0.018	0.003	-5.4
0.0082	0.0045	0.0105	-0.012	-5.4
0.003	0	0.0015	-0.0323	-5.5
-0.0008	0.003	-0.0046	-0.0278	-5.7
-0.0015	0.009	-0.0053	-0.003	-5.8
-0.0023	0.009	-0.0091	0.0045	-5.9
-0.0038	0.0037	-0.0105	0.0045	-6
-0.0038	-0.0046	-0.0113	-0.0128	-6.2
-0.0053	-0.0053	-0.0128	-0.015	-6.3
-0.006	-0.0015	-0.0128	0.0007	-6.4
-0.0046	-0.0068	-0.012	0.0015	-6.5
-0.0053	-0.0053	-0.0128	0.003	-6.7
-0.0053	0.0015	-0.0098	0.0067	-6.8
-0.0046	0.0045	-0.0068	0.009	-6.9
-0.0053	0.003	-0.0053	0.0105	-7
-0.006	0	-0.006	0.012	-7.2
-0.006	-0.0015	-0.0068	-0.0015	-7.2
-0.0068	-0.0015	-0.006	-0.0068	-7.4
-0.0046	-0.0015	-0.0038	0.0142	-7.5
-0.0046	-0.0023	-0.0008	0.0345	-7.6
-0.003	0.0015	-0.0008	0.0352	-7.8
-0.0015	0.0045	0.0022	0.0202	-7.9
-0.003	-0.0023	0.003	0.009	-8
-0.0053	-0.0038	0.0037	0.0015	-8.2
-0.006	-0.0053	0.0015	-0.012	-8.3
-0.0068	-0.0098	-0.0015	-0.0181	-8.5
-0.0046	-0.0075	0.0007	-0.0263	-8.6
-0.003	-0.0046	0.003	-0.024	-8.7
-0.0038	0.0007	0.0045	-0.0015	-8.9
-0.0015	0.003	0.006	0.0052	-9
-0.0015	0.0052	0.0067	0.0045	-9.2
-0.0008	0.0052	0.0067	0.0045	-9.3
0	0.0015	0.0067	0.0105	-9.5
-0.0008	0.0015	0.0082	0.018	-9.6
0.0007	0.0022	0.0075	0.0067	-9.8
-0.0008	0.0037	0.0105	-0.0158	-9.9
0.0037	0.0015	0.024	-0.0225	-10
0.0097	0.0007	0.039	-0.0068	-10.2
0.015	-0.0015	0.0397	-0.003	-10.4
0.0105	-0.0053	0.021	-0.0046	-10.5
0.0007	-0.0046	0.012	-0.0105	-10.7
0.0015	-0.0015	0.009	-0.0128	-10.8
0	-0.0015	-0.0008	-0.0023	-11.1
-0.003	-0.0053	-0.0046	-0.0015	-11.3
-0.0046	-0.0046	-0.0083	-0.0053	-11.5
-0.0053	0	-0.0053	-0.0075	-11.7
-0.0038	0.0007	-0.0038	-0.0068	-11.9
-0.0038	0.003	-0.0046	-0.0128	-12.1
-0.0008	0.006	-0.0015	-0.0181	-12.3
0.0007	0.0067	-0.0008	-0.021	-12.6
0.003	0.006	0.0015	-0.021	-12.8
0.003	0.0045	0.0015	-0.0135	-13
0.003	0.0015	0.003	0.0015	-13.2
0.0037	-0.0008	0.0052	0.024	-13.4
0.0037	-0.003	0.0052	0.033	-13.6
0.0037	-0.003	0.0045	0.0315	-13.8
0.0015	-0.0023	0.0045	0.0292	-14
0.003	-0.003	0.003	0.0322	-14.3
0.0007	-0.0008	0.0022	0.03	-14.4
0.0007	0.0022	0.0045	0.0225	-14.7
0.0045	0.0045	0.0052	0.0157	-14.9
0.003	0.0052	0.0022	-0.0105	-15.2
0.003	-0.0008	0.0052	-0.0233	-15.4
0.0037	0.0015	0.009	-0.0158	-15.7
0.0045	0.003	0.0067	-0.024	-15.9
0.0015	-0.0015	0.003	-0.0368	-16.2
-0.0008	-0.0068	-0.0008	-0.0278	-16.4
-0.003	-0.0098	-0.0015	-0.0218	-16.7
-0.0023	-0.0098	-0.0008	-0.0263	-16.9
-0.003	-0.0105	-0.0008	-0.0165	-17.1
-0.0023	-0.006	-0.0023	-0.0098	-17.4
0.0007	-0.0015	-0.0023	-0.006	-17.7
0.0007	0	-0.0023	-0.0023	-17.9
0.0007	0.0007	0.0007	-0.0023	-18.2
0.003	0.0045	0.0022	0.0007	-18.4
0.0015	0.003	-0.0038	0.0007	-18.7
-0.003	0.0007	-0.0091	0.0067	-18.9
-0.0038	0.0015	-0.0053	0.0082	-19.2
-0.0015	0.003	-0.0046	0.0067	-19.4
-0.0008	0.003	-0.0053	0.0157	-19.7
-0.0008	0.003	-0.0015	0.0262	-20
0.0007	0.0037	-0.0038	0.024	-20.3
0	0.0015	-0.0023	0.0015	-20.5
-0.0015	-0.0008	-0.0015	-0.0053	-20.8
-0.0008	-0.0023	-0.0023	-0.006	-21.2
0	-0.0015	-0.0015	-0.0083	-21.4
0	-0.0008	-0.0008	-0.0068	-21.7
0.0007	0.0022	0	-0.0083	-22.1
0.0015	0.0037	-0.0038	-0.0068	-22.3
0.0015	0.0045	-0.0075	-0.003	-22.6
0	0.003	-0.006	0.0067	-23
-0.0015	-0.0008	-0.0046	0.0195	-23.2
-0.0008	-0.0046	-0.0068	0.027	-23.5
-0.0015	-0.0046	-0.0038	0.0135	-23.8
0.0007	-0.0075	0.003	0.012	-24.1
0.0052	-0.0068	0.0142	0.0202	-24.4
0.0157	-0.003	0.0457	0.0067	-24.7
0.0337	-0.0015	0.0937	-0.003	-25
0.0465	-0.0008	0.099	-0.0218	-25.3
0.039	-0.0015	0.0592	-0.0256	-25.6
0.021	-0.0008	0.0315	-0.0188	-26
0.0082	-0.0015	-0.0008	-0.0256	-26.2
-0.0075	-0.0053	-0.0263	-0.0256	-26.6
-0.0165	-0.0053	-0.0503	-0.0195	-26.9
-0.0278	-0.0015	-0.0713	-0.006	-27.2
-0.0353	0.0007	-0.075	0	-27.5
-0.039	0.0045	-0.0863	0.003	-27.8
-0.0443	0.0082	-0.0915	0.0015	-28.1
-0.0458	0.0082	-0.096	-0.0038	-28.4
-0.0443	0.0052	-0.0915	0.006	-28.8
-0.042	-0.0008	-0.084	0.0172	-29.1
-0.039	-0.0046	-0.075	0.0262	-29.4
-0.033	-0.0038	-0.066	0.012	-29.7
-0.0308	-0.0098	-0.057	-0.0023	-30.1
-0.0256	-0.0143	-0.0473	-0.006	-30.4
-0.0233	-0.0143	-0.0405	-0.0143	-30.7
-0.0173	-0.0173	-0.0263	-0.0091	-31
-0.0098	-0.0181	-0.0165	-0.0098	-31.3
-0.0083	-0.0203	-0.0053	-0.0128	-31.6
-0.0023	-0.0173	0.003	-0.012	-32
0.0022	-0.0143	0.0082	-0.0165	-32.3
0.0015	-0.015	0.009	-0.0173	-32.5
0.006	-0.012	0.0195	0.0007	-32.8
0.0127	-0.0091	0.0307	0.0307	-33
0.012	-0.0083	0.0232	0.0255	-33.3
0.0105	-0.0075	0.0255	0.009	-33.5
0.0142	-0.0015	0.0292	0.0075	-33.8
0.0142	0.0052	0.0285	0.0052	-34.1
0.0142	0.0105	0.0292	0.015	-34.3
0.0135	0.0172	0.024	0.0157	-34.6
0.0112	0.0157	0.0187	-0.0015	-34.8
0.0105	0.0165	0.0157	-0.0195	-35.1
0.009	0.0142	0.0112	-0.0293	-35.3
0.0052	0.0067	0.0045	-0.0315	-35.6
-0.0008	0.003	-0.0015	-0.0346	-35.8
-0.003	-0.0015	-0.0053	-0.0188	-36.1
-0.0023	-0.0068	0.0022	-0.0008	-36.3
0.0037	-0.0068	0.0142	0.0097	-36.6
0.0082	-0.0075	0.024	0.018	-36.9
0.0127	-0.0083	0.0345	0.006	-37.1
0.0157	-0.006	0.0412	-0.0105	-37.4
0.0187	-0.0046	0.0517	-0.0181	-37.6
0.0232	-0.003	0.0532	-0.0256	-37.8
0.0232	-0.0008	0.051	-0.0315	-38
0.0255	0.0067	0.0532	-0.0158	-38.2
0.024	0.0097	0.051	0.0015	-38.4
0.0247	0.009	0.054	0.009	-38.6
0.0262	0.0105	0.0577	0.009	-38.8
0.0247	0.0105	0.063	0.0067	-39
0.0285	0.0097	0.063	0.0052	-39.2
0.0277	0.0075	0.0622	-0.0008	-39.5
0.0255	0.0067	0.063	0.0015	-39.6
0.0255	0.0067	0.0592	0.006	-39.9
0.0217	0.0052	0.0555	0.0067	-40.1
0.0202	0.003	0.0517	0.0052	-40.3
0.0195	0.003	0.0457	0.0015	-40.5
0.0157	0.0037	0.0382	0.0022	-40.7
0.012	0.003	0.0315	0.0075	-40.9
0.009	0.0037	0.024	0.012	-41.1
0.006	0.0015	0.0195	0.0082	-41.3
0.0052	0.0015	0.0172	0.0097	-41.6
0.0037	0.003	0.0142	0.0045	-41.8
0.003	0.0067	0.012	-0.006	-42
0.003	0.0067	0.0105	-0.0068	-42.2
0	0.0037	0.0082	-0.0105	-42.4
-0.0008	-0.0008	0.0022	-0.0083	-42.6
-0.0046	-0.003	-0.0023	0.009	-42.8
-0.0083	-0.0038	-0.0068	0.0232	-43.1
-0.0098	-0.0046	-0.0105	0.024	-43.2
-0.0098	-0.0046	-0.012	0.0142	-43.5
-0.0105	-0.0053	-0.0158	0.0022	-43.7
-0.0113	-0.0083	-0.0188	-0.0203	-43.9
-0.012	-0.0068	-0.0181	-0.0428	-44.1
-0.012	-0.0038	-0.0203	-0.039	-44.3
-0.012	-0.0038	-0.0195	-0.033	-44.6
-0.012	0.003	-0.0188	-0.0315	-44.8
-0.0105	0.0105	-0.0181	-0.0173	-45
-0.0098	0.012	-0.0135	0.0007	-45.2
-0.0083	0.0135	-0.0128	0.0157	-45.4
-0.0083	0.0105	-0.012	0.0307	-45.6
-0.0068	0.0082	-0.0113	0.0517	-45.9
-0.0083	0.0022	-0.0158	0.0405	-46
-0.0105	-0.0046	-0.0188	0.0202	-46.2
-0.0105	-0.0046	-0.0225	0.015	-46.4
-0.0105	-0.0053	-0.0248	0.003	-46.5
-0.0098	-0.0091	-0.027	-0.0008	-46.7
-0.0113	-0.0128	-0.0278	-0.0015	-46.9
-0.0105	-0.015	-0.0278	-0.0015	-47.1
-0.0105	-0.0165	-0.033	-0.0015	-47.2
-0.0098	-0.0158	-0.0315	-0.0053	-47.4
-0.0098	-0.012	-0.033	-0.0075	-47.6
-0.012	-0.0083	-0.0346	-0.0068	-47.7
-0.012	-0.003	-0.0346	-0.0083	-47.9
-0.0128	0.0015	-0.0315	-0.0083	-48.1
-0.0128	0.0037	-0.0285	-0.0075	-48.2
-0.0135	0.0067	-0.0293	-0.006	-48.4
-0.0143	0.0105	-0.027	-0.0046	-48.6
-0.0128	0.012	-0.0263	-0.0046	-48.8
-0.012	0.009	-0.0263	-0.0053	-48.9
-0.0105	0.0052	-0.0233	-0.0046	-49.1
-0.0075	0.003	-0.0203	-0.003	-49.3
-0.0038	0.0007	-0.0158	-0.003	-49.4
-0.0046	0.0007	-0.0135	-0.0015	-49.5
-0.0038	-0.0008	-0.0128	0.0007	-49.6
-0.003	-0.003	-0.012	0.0022	-49.8
-0.006	-0.0068	-0.0105	0.006	-49.9
-0.0083	-0.0075	-0.0128	0.0052	-50
-0.0083	-0.0105	-0.012	0.0015	-50.1
-0.0068	-0.0128	-0.012	0.0007	-50.2
-0.0053	-0.0128	-0.0091	-0.003	-50.4
-0.0015	-0.0158	-0.0015	-0.0083	-50.5
-0.0008	-0.012	0.0015	-0.0091	-50.6
0	-0.0083	0.0067	-0.0083	-50.7
0.0022	-0.0053	0.009	-0.0068	-50.8
0.003	-0.0008	0.0112	-0.0053	-50.9
0.0045	0.0007	0.0127	-0.0015	-51.1
0.0022	0.0007	0.0105	-0.0008	-51.2
0.0022	0.0015	0.0105	-0.0023	-51.3
0.0045	0.0022	0.0127	-0.0015	-51.4
0.0045	0.003	0.012	-0.0023	-51.5
0.0022	0.0015	0.012	0	-51.7
0.0015	0.003	0.012	0	-51.8
0.0007	0.0037	0.0105	-0.0008	-51.8
0.0007	0.0007	0.009	0	-51.9
0.0007	0.0007	0.0082	0.0007	-52
0.0007	0.0015	0.0067	-0.0008	-52.1
0.0015	0.0007	0.0067	0	-52.2
0.0052	-0.0008	0.0075	-0.0008	-52.2
0.0052	-0.0015	0.0067	-0.0023	-52.3
0.0045	-0.0008	0.0052	-0.0015	-52.4
0.0052	0.0015	0.0052	-0.0008	-52.5
0.0045	0.0052	0.0082	0	-52.6
0.0052	0.0052	0.0105	0	-52.7
0.006	0.0045	0.012	0	-52.7
0.0067	0.0052	0.0112	0.0015	-52.8
0.0067	0.0045	0.0112	0.0022	-52.9
0.0052	0	0.0112	0.0022	-53
0.0052	-0.0015	0.012	-0.0008	-53.1
0.0067	-0.0015	0.009	-0.0008	-53.1
0.0045	-0.0023	0.0082	-0.0015	-53.2
0.0037	-0.0038	0.0105	-0.003	-53.3
0.0037	-0.0046	0.0067	-0.003	-53.3
0.0022	-0.0046	0.0067	-0.0038	-53.4
0.0015	-0.0053	0.0067	-0.0053	-53.5
0.003	-0.0053	0.006	-0.0053	-53.6
0.003	-0.006	0.006	-0.0053	-53.6
0.0037	-0.0068	0.0022	-0.0046	-53.6
0.0022	-0.003	0.0045	-0.0046	-53.7
0.003	-0.003	0.0022	-0.003	-53.8
0.0015	-0.0023	0.0015	-0.0038	-53.9
0.0015	-0.0008	0.0045	-0.0023	-53.9
0.0015	0.0007	0.003	-0.0008	-54
-0.0008	0.0015	0.003	-0.0008	-54
0	0.003	0.0022	0.0007	-54.1
0.0015	0.0045	0.0015	0	-54.2
0.0022	0.003	0.003	0.0007	-54.2
0.0022	0.0045	0.0015	-0.0008	-54.3
0.0015	0.0022	0.0015	0.0007	-54.4
0.0007	0.003	0.0022	0.0015	-54.4
0.0015	0.0045	0.0007	0.0015	-54.5
0.0015	0.0015	0.0045	0.0015	-54.6
0.0015	-0.0015	0.0067	0.0022	-54.6
0	-0.0015	0.0067	0.0015	-54.6
-0.0008	-0.003	0.0082	0	-54.6
-0.0008	-0.003	0.0082	0	-54.6
-0.0008	-0.0015	0.0082	-0.0015	-54.6
-0.0008	-0.003	0.0037	-0.003	-54.6
-0.0015	-0.0046	0.003	-0.003	-54.6
-0.0008	-0.0046	0.003	-0.0038	-54.7
-0.0008	-0.0038	0.0007	-0.0046	-54.7
0.0007	-0.003	0	-0.0038	-54.7
0.0007	-0.003	0.0007	-0.0023	-54.7
0.0007	-0.0015	0.0022	0	-54.7
0.0015	-0.0008	0.0037	-0.0008	-54.8
0	0.0007	0.0067	-0.0008	-54.8
0.0015	0	0.009	-0.0008	-54.8
0.0022	0.0007	0.0082	-0.0008	-54.8
0.0067	0.003	0.009	0.0007	-54.8
0.0067	0.003	0.009	0.0007	-54.8
0.0045	0.0037	0.009	0.0015	-54.9
0.0045	0.003	0.0045	0.0007	-54.9
0.0015	0.0015	0.003	-0.0008	-54.9
0.003	0.003	0.0052	-0.0015	-54.9
0.003	0.0007	0.0022	-0.0015	-54.9
0.0015	0.0007	0.003	-0.0015	-54.8
0.0015	0.0007	0.003	-0.0023	-54.8
0.003	0.0007	0.0045	-0.0015	-54.8
0.0045	-0.0008	0.0082	-0.0008	-54.8
0.003	-0.0008	0.009	-0.0015	-54.8
0.003	-0.0008	0.0097	-0.0015	-54.7
0.003	-0.003	0.0082	-0.0008	-54.7
0.003	-0.0015	0.0082	-0.0008	-54.7
0.0007	-0.0015	0.0075	-0.003	-54.7
0.0007	-0.003	0.0075	-0.003	-54.7
0.0015	-0.0023	0.0052	-0.003	-54.6
0.0007	-0.0038	0.0045	-0.0023	-54.6
0	-0.0015	0.0052	-0.0015	-54.6
-0.0008	-0.0008	0.003	-0.003	-54.6
-0.0023	-0.0015	0.0015	-0.003	-54.6
-0.003	-0.0008	-0.0015	-0.003	-54.5
-0.0046	-0.0008	-0.0008	-0.003	-54.5
-0.0046	-0.0008	-0.0046	-0.0023	-54.5
-0.0053	-0.0015	-0.0053	-0.0015	-54.4
-0.0068	-0.0046	-0.006	-0.0015	-54.4
-0.0068	-0.003	-0.0098	-0.0008	-54.3
-0.0068	-0.0008	-0.012	0	-54.3
-0.0068	-0.003	-0.0143	-0.0015	-54.2
-0.0068	-0.0015	-0.0143	-0.0015	-54.1
-0.0083	-0.0015	-0.0135	-0.0023	-54.1
-0.0053	-0.0015	-0.012	-0.003	-54
-0.0053	0.0007	-0.0105	-0.0015	-54
-0.0053	-0.0015	-0.0068	-0.0023	-53.9
-0.0038	-0.0015	-0.0053	-0.0015	-53.9
-0.003	-0.0015	-0.0008	-0.0015	-53.8
-0.0008	0	0.0022	-0.0015	-53.7
0	0.0007	0	-0.0008	-53.7
0.0007	0	0.0007	-0.0015	-53.6
0.0007	-0.0015	0.0007	-0.0008	-53.6
0	-0.0015	0.0015	-0.0008	-53.6
0.0015	-0.0008	0.003	-0.0008	-53.5
0.0015	-0.0008	-0.0008	-0.0008	-53.4
0.0007	-0.0008	-0.0023	-0.0023	-53.3
-0.0023	-0.0015	-0.0008	-0.0015	-53.2
-0.003	-0.0008	-0.0015	-0.0008	-53.2
-0.0023	-0.0008	-0.0015	-0.0008	-53.1
-0.003	-0.0008	-0.0046	-0.0008	-53
0	-0.0015	-0.003	0	-52.9
0.0007	-0.0015	-0.0015	0	-52.8
0.0007	-0.0015	-0.0008	0.0007	-52.8
0.0015	-0.0015	-0.0008	0.0007	-52.7
0.0015	-0.0015	0.0015	-0.0008	-52.6
0.003	-0.0015	0.003	-0.0008	-52.5
0.0045	-0.0023	0.003	0	-52.4
0.003	-0.0008	0.0052	0	-52.4
0.003	0	0.0052	0	-52.3
0.003	-0.0008	0.0045	0	-52.2
0.0007	-0.0015	0.003	-0.0008	-52.1
0.0015	-0.0008	0.003	0	-52
0.0007	0	0.0037	0	-52
-0.0008	0	0.0007	0	-51.9
-0.0015	0.0007	0.0007	0.0015	-51.8
-0.0015	0	0.0007	-0.0008	-51.7
-0.0015	-0.0015	-0.0008	0	-51.6
-0.0015	-0.0015	-0.0015	-0.0008	-51.5
-0.003	-0.0015	-0.0053	-0.0008	-51.4
-0.0015	-0.003	-0.0023	-0.0008	-51.3
-0.0023	-0.003	0	-0.0015	-51.3
-0.0046	-0.0015	-0.0023	0	-51.2
-0.0046	-0.003	-0.0015	-0.003	-51.1
-0.0046	-0.0015	-0.003	-0.0015	-51
-0.0046	-0.0008	-0.003	-0.0015	-50.9
-0.003	-0.0008	-0.0008	-0.0015	-50.8
-0.003	-0.0008	-0.0038	0	-50.7
-0.003	0	-0.0053	-0.0008	-50.6
-0.003	-0.0008	-0.0053	-0.0015	-50.5
-0.003	-0.0008	-0.0046	0	-50.4
-0.0008	-0.0015	0.0007	0	-50.3
0.0022	-0.0015	0.006	-0.0008	-50.2
0.0015	-0.0008	0.0037	0.0007	-50.1
0	-0.0008	0.003	0	-50
0.0015	0.0007	0.0007	-0.0008	-50
-0.0008	0.0015	-0.0053	-0.0015	-49.8
-0.0023	-0.0008	-0.0053	-0.0008	-49.7
-0.0038	0.0007	-0.0068	-0.0008	-49.6
-0.0053	0.0007	-0.006	-0.003	-49.5
-0.0038	-0.0008	-0.0075	-0.003	-49.4
-0.0038	0	-0.0098	-0.003	-49.2
-0.0053	0.0007	-0.0098	-0.003	-49.1
-0.0053	-0.0008	-0.0113	-0.0008	-49
-0.0046	-0.0015	-0.0083	-0.0023	-48.9
-0.0015	-0.0015	-0.0068	-0.003	-48.7
-0.0023	-0.0008	-0.0083	-0.0023	-48.6
-0.003	-0.0008	-0.0053	-0.003	-48.5
-0.0023	-0.0015	-0.0038	-0.003	-48.4
-0.003	-0.0015	-0.0046	-0.003	-48.3
-0.0023	0.0007	-0.0038	-0.003	-48.2
-0.0023	0.0015	-0.0023	-0.0046	-48.1
-0.0015	0.0015	0.0015	-0.0053	-47.9
0.0007	-0.0015	0.0045	-0.0053	-47.8
0.0007	-0.0008	0.0022	-0.003	-47.7
0.0007	-0.0008	0.003	-0.0046	-47.6
0.0007	-0.0008	0.0015	-0.003	-47.4
0.0015	-0.0008	0.003	-0.0023	-47.3
0.0015	-0.0015	0.0037	-0.0046	-47.1
0.0007	-0.0023	0.0045	-0.003	-46.9
0.0022	-0.0015	0.0037	-0.0038	-46.8
0.0037	0	0.0045	-0.0046	-46.6
0.0052	-0.0015	0.0037	-0.003	-46.4
0.0045	-0.0008	0.0045	-0.0023	-46.3
0.0022	-0.0008	0.003	-0.0008	-46.1
0.0022	-0.0015	0.0015	-0.0008	-46
0.0022	-0.0015	0.0037	0	-45.9
0.0015	-0.0015	0.003	-0.0008	-45.7
0.0007	0	0.0052	-0.0015	-45.5
-0.0008	-0.0008	0.0045	-0.0008	-45.4
-0.0008	-0.0008	0.006	-0.003	-45.2
0.0015	0	0.0067	-0.0015	-45
0.003	0	0.0052	-0.0008	-44.9
0.003	-0.0008	0.006	-0.003	-44.7
0.003	-0.0008	0.0045	-0.0015	-44.6
0.003	0	0.0052	-0.0015	-44.4
0.003	-0.0008	0.0067	-0.0015	-44.2
0.003	-0.0008	0.006	-0.0015	-44.1
0.0015	-0.0008	0.0052	-0.0015	-43.9
0.0022	-0.0015	0.0067	-0.0015	-43.7
0.0015	0	0.0067	-0.0008	-43.5
0.0015	-0.0008	0.0052	-0.0008	-43.3
0.003	-0.0008	0.0022	0	-43.1
0.0007	0	0.003	0.0007	-42.9
0.0015	0.0007	0.0067	0	-42.8
0.0015	0.0007	0.0045	0.0015	-42.6
0.0015	-0.0008	0.0045	0.0007	-42.4
0.0007	-0.0015	0.0052	-0.0008	-42.2
-0.0008	0	0.0052	-0.0015	-42
0.0007	-0.0008	0.0082	-0.0015	-41.9
0.0007	-0.0008	0.0052	-0.0015	-41.6
-0.0008	-0.0015	0.006	-0.0023	-41.4
0.0015	-0.0015	0.006	0	-41.3
0.0015	0	0.0067	0.0022	-41.1
0	0.0007	0.0067	0.0015	-40.9
0.0015	0.0007	0.0067	0.0015	-40.7
0.0022	-0.0008	0.006	-0.0015	-40.5
0.0015	-0.0015	0.0075	-0.003	-40.3
0.0007	-0.0015	0.0082	-0.003	-40.1
0.0015	-0.0015	0.0052	-0.003	-39.9
-0.0008	0.0007	0.0037	-0.0015	-39.6
-0.0015	0	0.0022	-0.0015	-39.5
-0.0008	-0.0008	0.003	-0.0015	-39.2
0.0007	0	0.0037	0.0007	-39
0.003	-0.0015	0.0052	-0.0008	-38.8
0.0022	-0.0015	0.0097	-0.0015	-38.6
0.0052	-0.0008	0.0195	-0.0008	-38.4
0.0105	-0.0008	0.0277	0.0007	-38.2
0.0105	-0.0008	0.0165	0	-38
0.0022	-0.0008	-0.0008	0	-37.8
-0.0046	-0.0008	-0.0091	0	-37.5
-0.0068	0	-0.0165	0	-37.4
-0.0091	0.0007	-0.0143	0.0007	-37.1
-0.0083	-0.0008	-0.015	0	-36.9
-0.0098	-0.0008	-0.0195	-0.0008	-36.7
-0.0105	0	-0.0158	0	-36.5
-0.0075	-0.0015	-0.0128	-0.0015	-36.3
-0.0046	-0.0023	-0.0113	-0.003	-36
-0.0046	-0.0015	-0.0083	-0.0046	-35.8
-0.0038	-0.0008	-0.0075	-0.0046	-35.6
-0.0038	-0.0008	-0.006	-0.003	-35.3
-0.0046	-0.0015	-0.0046	-0.003	-35.1
-0.0015	-0.0008	-0.0023	-0.003	-34.8
-0.0008	-0.0008	0	-0.003	-34.6
0.0007	-0.0015	0.0007	-0.003	-34.4
0.0007	-0.0015	0.003	-0.0008	-34.1
0.003	-0.0008	0.0052	-0.0008	-33.9
0.0052	-0.0008	0.0075	-0.0008	-33.7
0.0037	0	0.009	-0.0008	-33.4
0.0045	0.0007	0.0105	-0.0008	-33.2
0.0045	0.0007	0.0127	0.0007	-32.9
0.0037	0.0015	0.0082	-0.0015	-32.7
0.0007	0.0015	0.003	-0.0008	-32.5
0.0007	0.0015	0.0007	0	-32.3
0.0007	0.0007	0	-0.0015	-32
0	-0.0015	0.003	-0.0023	-31.8
0.0015	-0.0008	0.0037	-0.0038	-31.5
0.0045	-0.0008	0.0067	-0.0023	-31.3
0.0045	-0.0015	0.0067	-0.003	-31
0.003	-0.0015	0.0052	-0.0008	-30.7
0.0015	-0.0008	0.0082	0.0015	-30.5
0.0022	0.0007	0.0082	0.003	-30.2
0.0007	-0.0008	0.0067	0.0015	-30
-0.0015	0	0.0052	-0.003	-29.7
-0.0015	-0.0015	0.0022	-0.003	-29.5
-0.0046	-0.0023	-0.0023	-0.0038	-29.2
-0.0068	-0.0015	-0.0083	-0.0023	-29
-0.0083	-0.0023	-0.0068	-0.0008	-28.7
-0.0053	-0.0015	-0.003	-0.0015	-28.5
-0.0015	-0.0023	-0.0015	0	-28.2
-0.0015	-0.0023	-0.0023	-0.0008	-27.9
-0.0023	0	-0.0046	0.0007	-27.7
-0.0038	0	-0.0046	0	-27.5
-0.0023	0	-0.0068	0.0007	-27.2
-0.003	0.0007	-0.0053	0.0015	-27
-0.0015	0.0015	-0.0038	0.0015	-26.7
-0.0008	0.0015	-0.0023	0.0015	-26.4
0.0007	0.0007	-0.0015	-0.0008	-26.1
0.0015	0	-0.0008	-0.003	-25.9
0.0007	-0.0023	0.0015	-0.0046	-25.6
0	-0.0023	0.0022	-0.0023	-25.3
-0.0015	-0.003	0.0045	-0.003	-25
0.0007	-0.0015	0.0082	-0.0053	-24.8
0.0015	-0.0008	0.0067	-0.0053	-24.5
0.0007	-0.003	0.0052	-0.006	-24.2
0.0015	-0.0008	0.0067	-0.0015	-23.9
0.0007	-0.0015	0.0052	0	-23.7
0.0007	0	0.0045	0.006	-23.4
-0.0008	0.0015	0.0007	0.0097	-23.1
-0.0015	0.0007	0.0022	0.0037	-22.9
0	0	0.0007	-0.0053	-22.5
-0.0023	-0.0015	0.0015	-0.0053	-22.3
-0.0023	-0.0015	0.0022	-0.0046	-22
0.0007	-0.0015	0.003	-0.0068	-21.7
0.0015	-0.0008	0.0067	-0.0038	-21.5
0.0015	0	0.0045	-0.0015	-21.2
0.0037	-0.0008	0.003	0	-20.9
0.0045	-0.0008	-0.0008	0.003	-20.7
0.003	0.0007	-0.003	0.0082	-20.4
0.0045	0.0007	0	0.006	-20.1
0.003	0.0007	0.0007	0.0007	-19.8
0.0015	0.0007	-0.0008	-0.0023	-19.5
-0.0008	-0.0008	0.0007	-0.0046	-19.3
-0.0015	-0.0053	0.0007	-0.0023	-19
-0.0008	-0.0083	0.0015	-0.0015	-18.7
0.0007	-0.0046	0.0007	-0.0015	-18.4
0.0015	0.0007	0	-0.0008	-18.1
0.0007	-0.003	0.0007	-0.003	-17.9
0	-0.0046	0.0007	-0.003	-17.6
-0.0008	-0.0053	0	-0.0046	-17.3
-0.0015	-0.0046	-0.0046	-0.0008	-17.1
-0.003	-0.003	-0.0091	0.003	-16.8
-0.0053	-0.0015	-0.0113	0.003	-16.5
-0.0053	0.0007	-0.0053	0.0007	-16.2
-0.0015	-0.0008	0.0052	-0.0046	-15.9
0.0007	0.0007	0.0097	-0.0083	-15.7
0.0015	-0.0015	0.0082	-0.012	-15.4
0.0007	-0.0046	0.006	-0.0143	-15.1
0.0007	-0.006	0.0067	-0.0128	-14.8
0.0015	-0.0053	0.0052	-0.0135	-14.5
0.0037	-0.003	0.0052	-0.0105	-14.2
0.0067	0	0.003	-0.0053	-13.9
0.0045	0.003	-0.003	-0.0015	-13.6
-0.0008	0.0052	-0.012	0.0015	-13.3
-0.0053	0.0045	-0.0165	0.0045	-13
-0.0053	0.0045	-0.0105	0.006	-12.7
-0.0008	0.0045	-0.0008	0.0067	-12.5
-0.0008	0.0067	0.0082	0.0105	-12.2
0.0015	0.0082	0.0097	0.0097	-11.9
-0.0008	0.003	0.0045	0.0135	-11.6
-0.003	-0.0046	0.0015	0.012	-11.3
-0.0015	-0.0008	0.003	0.0082	-11
-0.0008	0.0015	0.0112	0.0082	-10.7
0	0	0.0157	0.0045	-10.4
-0.0038	-0.0008	0.0142	0.0037	-10.1
-0.0053	-0.0008	0.0135	0.0007	-9.8
-0.0023	-0.0008	0.0082	-0.0053	-9.5
-0.0008	-0.003	0.0015	-0.0113	-9.2
0.0037	-0.0053	-0.006	-0.0143	-8.9
0.0067	-0.0046	-0.0143	-0.0053	-8.6
0.0082	0.0007	-0.012	0.0052	-8.2
0.0105	-0.0015	0.0007	0.0052	-7.9
0.009	-0.0068	0.0082	0.0052	-7.6
0.006	-0.0046	0.0022	0.0075	-7.3
0.0067	0.0015	-0.0023	0.0082	-7
0.009	0.0067	-0.0068	0.0022	-6.6
0.0112	0.006	-0.0075	-0.012	-6.3
0.009	0.0015	-0.0023	-0.024	-6
0.0045	-0.0038	0.0022	-0.024	-5.7
-0.0075	-0.0083	0.0045	-0.012	-5.4
-0.0165	-0.0105	0.003	-0.0053	-5
-0.024	-0.0083	-0.0015	0.0022	-4.7
-0.0315	-0.0053	-0.0008	0.0052	-4.4
-0.027	-0.003	0.0007	0.0082	-4.1
-0.021	0.0045	0.0007	0.0105	-3.8
-0.015	0.0157	0.0067	0.0037	-3.5
-0.0068	0.0075	0.0127	-0.003	-3.2
0	-0.003	0.0165	-0.0053	-3
0.0075	-0.0023	0.0142	-0.0053	-2.7
0.009	-0.0046	0.0105	-0.0046	-2.5
0.0112	-0.0008	0.012	-0.0046	-2.3
0.0165	0.0007	0.0075	-0.003	-2
0.0172	-0.0015	0.006	0.0007	-1.8
0.018	0.0015	0.0097	0.0015	-1.5
0.0165	-0.0008	0.0045	0.0015	-1.3
0.015	0.003	0.0015	-0.0008	-1
0.015	0.006	-0.0015	-0.0015	-0.8
0.009	0.0082	-0.0015	-0.0008	-0.6
0.0052	0.003	0.003	-0.0015	-0.3
0.0052	-0.0015	0.0015	0.0007	-0.1
0.0067	0.0007	-0.0008	0.0015	0.1
0.009	0.003	-0.0023	0.003	0.4
0.0075	0.0037	-0.0083	0.0007	0.6
0.0007	-0.0015	-0.012	-0.0053	0.9
-0.003	-0.0098	-0.0068	-0.015	1.1
-0.0068	-0.012	-0.003	-0.0203	1.3
-0.0068	-0.0083	0.0082	-0.0143	1.5
-0.0008	-0.0075	0.0202	-0.0053	1.6
0.0015	-0.0083	0.012	-0.0008	1.8
-0.0015	-0.0105	0.009	-0.0015	1.9
-0.003	-0.0158	0.0105	-0.0038	2.1
0	-0.0165	0.0045	-0.0015	2.2
-0.003	-0.0105	0.0045	0	2.3
-0.0046	-0.0038	0.0052	0.0022	2.5
-0.0008	0.0045	0.0045	0.0105	2.6
0.0045	0.0345	0.006	0.021	2.7
0.0105	0.0622	0.0097	0.0217	2.9
0.0127	0.051	0.0157	0.0142	3
0.009	0.0135	0.0195	0.009	3.1
0.0007	-0.0053	0.021	0.0015	3.3
-0.0068	-0.0083	0.0225	-0.0083	3.5
-0.0038	-0.0143	0.024	-0.012	3.6
0.0045	-0.0181	0.0195	-0.0188	3.7
0.003	-0.03	0.0075	-0.0256	3.9
-0.0015	-0.042	0.0067	-0.0256	4
-0.0015	-0.0473	0.009	-0.0181	4.1
0.0007	-0.0465	0.0037	-0.0098	4.2
0.0022	-0.0293	-0.0015	-0.0083	4.3
0.0052	-0.0105	-0.0143	-0.0083	4.3
0.0082	-0.0083	-0.0203	-0.006	4.4
0.0082	-0.012	-0.0195	0.0007	4.5
0.0052	-0.0008	-0.015	0.012	4.5
-0.0113	0.027	-0.0091	0.0195	4.6
-0.0233	0.0465	-0.0075	0.0195	4.7
-0.027	0.0487	-0.0083	0.0165	4.7
-0.0263	0.0555	-0.0091	0.0142	4.8
-0.0158	0.0397	-0.0113	0.0142	4.9
-0.0046	0.0247	-0.0091	0.0165	4.9
0.0067	0.0135	-0.0091	0.0112	5
0.0075	-0.0015	-0.0128	0.0142	5
0.003	0.0165	-0.0143	0.0195	5.1
-0.0068	0.0345	-0.015	0.015	5.2
-0.0195	0.0352	-0.012	0.0052	5.3
-0.0181	0.012	-0.015	-0.0083	5.3
-0.0143	-0.0008	-0.0143	-0.0158	5.4
-0.0068	-0.0091	-0.0098	-0.0203	5.4
-0.0008	-0.021	-0.0091	-0.0203	5.4
-0.0046	-0.0248	-0.006	-0.021	5.4
-0.0015	-0.0346	-0.003	-0.0203	5.4
0.0007	-0.024	0.0045	-0.015	5.4
0.0007	-0.0181	0.0015	-0.0135	5.4
0.0022	-0.0105	-0.003	-0.0075	5.4
0	-0.0053	-0.0053	-0.0046	5.3
0.003	-0.003	-0.0068	-0.0008	5.3
0.0045	-0.0046	-0.012	0.0007	5.3
0.0052	-0.0091	-0.0181	0.003	5.3
0.0075	-0.0046	-0.0143	0.012	5.3
0.0067	-0.0008	-0.0083	0.0142	5.3
0.0007	-0.003	-0.0008	0.0105	5.3
-0.003	-0.0053	0.0052	0.0037	5.2
-0.0015	-0.0038	0.0127	-0.003	5.2
0.0022	-0.0038	0.0187	-0.0053	5.2
0.0052	-0.0046	0.024	-0.0046	5.2
0.006	-0.0068	0.0217	0.003	5.2
0.0052	-0.006	0.0127	0.0135	5.1
-0.0008	-0.006	0.0052	0.0045	5.1
-0.0015	-0.0105	0.0007	-0.0173	5.1
-0.0015	-0.015	0.009	-0.0308	5
-0.0023	-0.0158	0.0172	-0.0218	5
-0.0008	-0.0105	0.0142	-0.0046	4.9
-0.0008	-0.003	0.0165	-0.0008	4.9
0.0015	0.0007	0.0142	-0.0046	4.8
0.0037	0.0015	0.0112	0.0007	4.8
0.0015	0.0037	0	0.012	4.7
-0.003	0.009	-0.0128	0.0202	4.7
-0.0143	0.0127	-0.0143	0.0172	4.6
-0.0256	0.012	-0.0158	0.006	4.5
-0.021	0.009	-0.0143	-0.003	4.5
-0.0128	0.0015	-0.012	-0.0143	4.5
-0.0046	-0.0083	-0.0113	-0.0225	4.4
0.0015	-0.0113	-0.0068	-0.0181	4.4
0.0007	-0.0105	-0.0008	-0.0015	4.3
0.0015	-0.0128	-0.0046	0.0007	4.2
0.003	-0.015	-0.0105	-0.003	4.2
0.0007	-0.012	-0.0195	-0.003	4.1
-0.0008	-0.0053	-0.0248	-0.0158	4
0.003	-0.0008	-0.024	-0.015	4
0.0045	-0.0008	-0.0143	-0.0083	3.8
0.006	0.0007	0.0082	-0.0023	3.7
0.018	0.0105	0.0202	0.0127	3.6
0.0195	0.0142	0.018	0.0262	3.5
0.009	0.0105	0.0112	0.024	3.3
-0.003	0.0052	-0.0038	0.0112	3.2
-0.0165	0.0022	-0.0188	0.018	3.1
-0.0248	0.0022	-0.0256	0.0277	3
-0.0233	0.0067	-0.0218	0.0232	2.8
-0.0135	0.0075	-0.0075	0.0067	2.7
-0.0015	0.003	0.0022	-0.0091	2.6
0.0037	-0.0053	0.0075	-0.0256	2.5
0	-0.0233	0.0112	-0.0503	2.3
0.0022	-0.0368	0.0142	-0.0765	2.2
0.003	-0.0413	0.0187	-0.0915	2.1
0.003	-0.0428	0.027	-0.0833	1.9
0.0105	-0.0465	0.0255	-0.0668	1.8
0.009	-0.0428	0.0172	-0.042	1.7
0.0052	-0.0256	0.0187	-0.0181	1.5
0.0105	-0.0113	0.0202	0.0022	1.6
0.021	-0.0023	0.018	0.018	1.6
0.0195	0.0232	0.0202	0.0337	1.6
0.0067	0.0622	0.0165	0.0457	1.6
-0.003	0.069	0.006	0.0457	1.7
-0.0075	0.0555	0	0.0495	1.7
-0.0053	0.0495	-0.006	0.0555	1.7
-0.003	0.0195	-0.0098	0.0472	1.8
-0.0105	0.0165	-0.0195	0.048	1.8
-0.0256	0.0562	-0.0315	0.0592	1.8
-0.0383	0.0675	-0.0443	0.042	1.8
-0.0503	0.0277	-0.0465	0.0135	1.8
-0.0473	-0.0128	-0.0383	-0.0008	1.9
-0.021	-0.0158	-0.027	-0.0128	1.9
0.0105	-0.015	-0.0046	-0.0083	1.9
0.036	-0.012	0.018	0.0007	2
0.0517	-0.0098	0.0442	0.0007	2
0.0532	-0.0158	0.051	0.0052	2
0.042	-0.0158	0.0315	0.0067	2
0.0292	-0.0143	0.0165	-0.0015	2.1
0.009	-0.0143	0.0045	-0.0046	2.1
-0.0053	-0.0158	-0.0008	0.0037	2.1
-0.0053	-0.0278	-0.003	0.0052	2.1
-0.0091	-0.024	-0.0023	-0.0038	2.1
-0.0053	-0.0075	0.0127	-0.003	2.2
-0.003	-0.015	0.021	-0.0015	2.2
-0.0015	-0.0225	0.0217	-0.0046	2.2
0.0082	-0.0203	0.0195	-0.0195	2.2
0.0135	-0.003	0.0187	-0.0405	2.2
0.0195	0.0112	0.0202	-0.03	2.2
0.0195	0.0232	0.0232	-0.0105	2.2
0.0165	0.0277	0.024	0.0172	2.2
0.012	0.0127	0.0187	0.0315	2.3
0.0007	0.0142	0.0135	0.0045	2.3
-0.0053	0.0135	0.009	-0.0353	2.3
-0.0083	0.012	-0.003	-0.0706	2.3
-0.0128	-0.0015	-0.0203	-0.0638	2.3
-0.0195	-0.0218	-0.0361	-0.042	2.3
-0.0218	-0.021	-0.048	-0.0315	2.4
-0.0256	-0.0285	-0.054	-0.0181	2.4
-0.0293	-0.03	-0.0525	-0.024	2.2
-0.0278	-0.0256	-0.048	-0.0368	2
-0.0225	-0.0203	-0.0405	-0.0383	1.8
-0.0158	-0.0083	-0.0278	-0.0181	1.6
-0.0075	0.003	-0.0158	0.0202	1.4
-0.0008	0.0127	0.0045	0.0405	1.2
0.0082	0.0142	0.0232	0.0345	1
0.0165	0.018	0.0292	0.0127	0.8
0.0172	0.012	0.0352	0	0.6
0.0165	0.0007	0.0345	0.0007	0.4
0.015	-0.0046	0.0255	0.015	0.2
0.003	-0.0046	0.0067	0.0397	0
-0.015	0.0015	-0.0173	0.0367	-0.2
-0.0181	0.0007	-0.0195	0.0165	-0.4
-0.0091	-0.0023	-0.003	0.0015	-0.6
0.0052	-0.0015	0.021	-0.0195	-0.8
0.0195	0.0007	0.0345	-0.0233	-1
0.018	-0.0008	0.0405	-0.0113	-1.2
0.0127	-0.0023	0.0457	-0.0008	-1.4
0.021	0.0007	0.045	0.0112	-1.7
0.03	-0.0008	0.0495	0.0202	-1.9
0.0337	-0.0038	0.0457	0.0315	-2.2
0.0337	0.0045	0.0292	0.0307	-2.4
0.024	0.0195	0.0105	0.0277	-2.7
0.009	0.0195	-0.0083	0.0247	-3
-0.003	0.015	-0.0165	0.0105	-3.2
-0.0046	0.009	-0.0195	-0.0091	-3.5
-0.0105	-0.0015	-0.0225	-0.0075	-3.8
-0.021	-0.0046	-0.0135	-0.0113	-4.1
-0.03	-0.0105	0.0022	-0.0181	-4.4
-0.0315	-0.0135	0.0142	-0.0158	-4.6
-0.0128	-0.0075	0.0142	-0.0233	-4.9
0.0052	-0.0046	0.0202	-0.0181	-5.2
0.0142	-0.0015	0.0195	-0.0195	-5.4
0.018	-0.0008	0.0127	-0.0173	-5.7
0.0142	0.0015	0.0105	-0.0075	-6
0.0067	0.0045	0.0082	0.0037	-6.3
0.0157	0.0022	0.0202	0.0157	-6.5
0.024	0.0007	0.03	0.0142	-6.8
0.0157	0.003	0.0307	0.0157	-7.1
0.003	0.0015	0.0127	0.009	-7.1
-0.0038	0.0007	-0.0083	-0.0015	-7.1
-0.0023	0.003	-0.0181	-0.0023	-7.1
0.0015	0.0045	-0.0195	0.0007	-7.1
0.0052	0.0037	-0.0098	0.0105	-7
0.0067	0.0105	-0.0098	0.021	-7
0.012	0.0105	-0.0128	0.0262	-7
0.0112	0.0075	-0.021	0.024	-7
-0.0053	0.006	-0.0263	0.0165	-7
-0.0173	0.0015	-0.0195	0.0075	-6.9
-0.0278	-0.0038	-0.0143	-0.0083	-6.9
-0.0368	-0.012	-0.0083	-0.0398	-6.9
-0.033	-0.0195	-0.0015	-0.0525	-6.9
-0.0293	-0.0225	0.0007	-0.0338	-6.9
-0.0225	-0.0158	0.0082	-0.0165	-6.9
-0.0165	-0.006	0.0105	-0.0015	-6.8
-0.012	0	0.003	-0.0015	-6.8
-0.0091	-0.0008	0.003	-0.0046	-6.8
-0.0053	0.0007	-0.0015	-0.006	-6.8
0.0052	0.0007	-0.0091	-0.0068	-6.8
0.012	0.0007	-0.0165	0.0037	-6.6
0.018	0.0045	-0.021	0.0112	-6.5
0.009	0.0045	-0.0128	0.0172	-6.3
-0.006	0.0015	-0.0053	0.0052	-6.1
-0.0083	-0.0008	0.0007	-0.0113	-6
-0.0075	-0.0008	0.0007	-0.0128	-5.8
-0.0053	-0.003	-0.0068	-0.0091	-5.6
-0.0023	-0.0091	-0.0105	-0.0015	-5.5
-0.0015	-0.0098	-0.0225	0.0082	-5.3
-0.0053	-0.0053	-0.024	0.0195	-5.1
-0.0053	0.0007	-0.0263	0.0292	-5
-0.0068	0.003	-0.0293	0.024	-4.8
-0.0105	0.0007	-0.024	0.0165	-4.7
-0.0075	0.0037	-0.024	0.009	-4.5
-0.0068	-0.0023	-0.0195	-0.0015	-4.3
-0.0046	-0.0098	-0.0098	-0.012	-4.2
0.0015	-0.0091	0.0015	-0.0165	-4
0.0045	-0.0046	0.0105	-0.0181	-3.8
0.0082	-0.0038	0.0135	-0.024	-3.7
0.0097	-0.0053	0.0187	-0.0293	-3.5
0.0105	-0.0046	0.024	-0.0256	-3.4
0.0112	-0.0008	0.0255	-0.0181	-3.3
0.0105	0.003	0.0202	-0.0105	-3.2
0.009	0.0045	0.0217	-0.0015	-3.2
0.012	0.006	0.0217	0.009	-3.1
0.0105	0.0097	0.0157	0.015	-3
0.0052	0.0105	0.0105	0.015	-2.9
0.0045	0.0097	0.0105	0.012	-2.8
0.0045	0.0067	0.0105	0.0067	-2.7
0.003	0.0007	0.012	0	-2.7
0.0022	-0.006	0.0165	0.0037	-2.6
0.003	-0.0075	0.0165	0.0082	-2.5
0.0022	-0.0068	0.0165	0	-2.4
0.003	-0.0068	0.0135	-0.0091	-2.3
0.0022	-0.0046	0.009	-0.0083	-2.2
0.0015	-0.003	0.012	-0.0015	-2.2
0.0022	-0.003	0.0105	-0.012	-2.1
0	-0.0046	0.0082	-0.0158	-2
0	-0.0046	0.0045	-0.006	-1.9
-0.0015	-0.0046	0.0015	-0.0053	-1.8
-0.0023	-0.0015	-0.0008	0.003	-1.8
-0.0008	0.0007	0.0015	0.0052	-1.8
0.0015	0.0015	0.0037	0.003	-1.8
0.0015	0.0045	0.0007	0.003	-1.8
-0.0008	0.0052	0.0007	0.0045	-1.7
-0.0015	0.006	-0.0015	0.0082	-1.7
-0.0008	0.006	-0.0015	0.0075	-1.7
-0.0008	0.0045	0.0007	0.0052	-1.7
-0.0015	0.0037	-0.003	0.0082	-1.7
-0.0008	0.0022	-0.003	0.0165	-1.6
-0.0008	0.0052	-0.0015	0.0127	-1.6
-0.0015	0.0082	-0.0015	0.0067	-1.6
-0.0023	0.0052	-0.0053	0.0052	-1.6
-0.003	0.0045	-0.0053	0	-1.6
-0.003	-0.0015	-0.0068	-0.0181	-1.6
-0.003	-0.0105	-0.0008	-0.03	-1.5
-0.003	-0.015	0.0015	-0.0158	-1.5
-0.0046	-0.0158	-0.0038	-0.006	-1.5
-0.0046	-0.012	-0.006	-0.0143	-1.5
-0.0053	-0.0105	-0.0068	-0.0233	-1.5
-0.0046	-0.0083	-0.006	-0.0278	-1.4
-0.0038	-0.0053	-0.0053	-0.0203	-1.4
-0.0015	-0.0015	-0.0053	-0.0091	-1.4
-0.0008	0.0015	-0.0053	-0.0046	-1.4
-0.0015	0.0007	-0.0083	-0.0008	-1.3
-0.0023	0.0022	-0.0083	0.0015	-1.3
-0.0038	0.0045	-0.0091	0.003	-1.2
-0.0046	0.0045	-0.0091	0	-1.2
-0.003	0.003	-0.0053	0.0067	-1.1
-0.0015	0.0037	-0.0015	0.0127	-1.1
-0.0008	0.003	0.003	0.0105	-1.1
-0.0015	0.0022	-0.0008	0.0082	-1
-0.0038	0.0015	-0.0023	0.0067	-1
-0.0053	0	0.0045	0.0052	-0.9
-0.0023	-0.0008	0.0037	0.0045	-0.9
0.0022	-0.0008	0.0045	0.0015	-0.9
0.0067	0.0007	0.0052	-0.0008	-0.9
0.0067	0.0007	0.0022	-0.0008	-0.8
0.003	-0.0015	-0.0023	0.0007	-0.8
0.003	-0.0008	-0.003	-0.0008	-0.7
0.0037	-0.0015	0.0022	-0.0015	-0.6
0.0045	-0.0015	0.0045	0.0015	-0.5
0.0052	-0.0015	0.0015	0.0022	-0.5
0.0015	-0.0008	0.0007	0.0015	-0.4
-0.003	0.0007	0.0007	0.0045	-0.3
-0.0046	0.0007	-0.0046	0.0052	-0.2
-0.0046	0.0007	-0.0046	0.0015	-0.1
-0.0008	0.0007	0	-0.0008	0
0	-0.003	0.003	-0.0015	0
-0.0053	-0.003	0.0015	-0.0083	0.1
-0.006	-0.003	0.0022	-0.0173	0.2
-0.0046	-0.0083	0.0022	-0.0143	0.3
-0.0046	-0.0053	-0.0015	-0.0098	0.4
-0.0038	-0.0046	-0.0038	-0.0053	0.4
-0.0046	-0.0023	-0.0083	-0.0015	0.5
-0.0046	-0.0008	-0.0075	0.0007	0.6
-0.0038	-0.0023	-0.0091	0.0052	0.7
-0.0038	-0.0008	-0.0091	0.003	0.8
-0.003	-0.0015	-0.0053	0.0045	0.9
-0.0023	0	-0.0053	0.0097	0.9
-0.0015	0.003	-0.0038	0.012	1
0.0007	0.006	-0.0015	0.006	1.1
0.0037	0.0045	0.0007	-0.0008	1.1
0.0022	-0.0008	-0.003	-0.0008	1.2
0	-0.0015	-0.0008	0.003	1.3
0	-0.0046	0.0037	0.0052	1.3
-0.0008	-0.003	0.003	0.0022	1.3
0.0015	-0.0008	0.006	0.0052	1.4
0.0037	0.0015	0.0052	0.0022	1.5
0.0045	0.0022	0.009	-0.0068	1.5
0.0045	0.0007	0.012	-0.0091	1.6
0.003	0.0015	0.0112	-0.0143	1.7
0.0015	-0.0023	0.0105	-0.0263	1.7
-0.0008	-0.006	0.009	-0.0308	1.8
-0.0023	-0.0091	0.009	-0.0203	1.8
0	-0.0098	0.0105	-0.0143	1.9
0.0022	-0.0083	0.003	-0.0143	1.9
0.0015	-0.0075	-0.0046	-0.0195	2
0.0015	-0.006	0.0007	-0.0233	2.1
0.0022	-0.006	0.0052	-0.0181	2.1
0.0037	-0.003	0.0067	-0.0075	2.2
0.0022	0.0007	0.0045	0.0052	2.2
0.0022	0.0022	0.003	0.0165	2.2
0.0015	0.0052	0.003	0.0247	2.2
0.0007	0.009	0.0015	0.0292	2.2
-0.0023	0.0082	0.0022	0.024	2.3
-0.0046	0.0045	0.003	0.0082	2.3
-0.0046	0.003	0.0007	-0.0023	2.3
-0.0008	0.003	0.0007	0.0022	2.4
0.0015	0.0052	0.0052	0.0082	2.4
0.0037	0.0037	0.0105	-0.003	2.4
0.0037	0.0015	0.0135	-0.0128	2.5
0	-0.0008	0.0135	-0.0038	2.5
-0.0053	-0.0015	0.0127	0.003	2.5
-0.003	-0.0015	0.0127	0.003	2.6
0.0007	0	0.009	0.003	2.6
0.0052	0.0007	0.0067	-0.0008	2.6
0.0112	-0.0008	0.0082	-0.0068	2.6
0.0127	-0.0053	0.0082	-0.012	2.6
0.0142	-0.006	0.0082	-0.0075	2.7
0.0127	-0.0075	0.0067	0.0075	2.7
0.0082	-0.0091	0.0067	0.0157	2.7
0.0097	-0.0105	0.0067	0.009	2.7
0.006	-0.0075	0.0052	0.0045	2.8
-0.0008	-0.003	0.0045	-0.0015	2.8
-0.0053	-0.003	0.003	-0.0053	2.8
-0.0068	0.0007	0.0015	0	2.8
-0.003	0.003	0.003	0.0007	2.9
-0.0046	0.0007	0.0105	0.0007	2.9
-0.003	0.0015	0.0157	0.0007	2.9
-0.003	0.003	0.0082	0.0022	2.9
-0.0046	0.003	-0.0008	0.0037	2.9
0.0007	0.0052	-0.0098	0.0007	3
-0.0046	0.0037	-0.0158	0	3
-0.0068	0.0022	-0.0128	0	3
-0.0053	0.0022	-0.0113	-0.0008	3
-0.0068	0.0015	-0.0098	-0.0008	3.1
-0.006	0.0045	-0.0128	0	3.1
-0.006	0.003	-0.015	-0.0008	3.1
-0.0046	0.0007	-0.0143	-0.0015	3.1
-0.0038	0.0015	-0.0143	-0.0008	3.1
-0.0023	0.0015	-0.0091	-0.0008	3.1
0.0007	0	-0.0083	0.0015	3.1
0.0015	-0.003	-0.0046	-0.0015	3.2
0.0082	-0.003	0.0007	-0.0046	3.2
0.0165	-0.0015	0.0052	-0.003	3.2
0.0172	-0.0015	0.0052	-0.0046	3.2
0.0142	-0.0015	-0.0008	-0.0053	3.3
0.0075	0	0.0015	-0.0053	3.3
-0.0015	-0.0015	0.0045	-0.0105	3.3
-0.0068	-0.0053	0.0015	-0.015	3.3
-0.0091	-0.0053	-0.0015	-0.012	3.3
-0.003	-0.0015	-0.0068	-0.0083	3.4
0.0007	-0.0008	-0.0083	-0.0038	3.4
-0.006	-0.0008	-0.0046	-0.003	3.4
-0.0158	-0.0023	-0.0008	-0.0008	3.4
-0.0143	-0.0015	0.003	0.0015	3.5
-0.003	0.0007	0.0052	0.003	3.5
0.0075	0.003	0.006	0.003	3.5
0.0127	0.006	0.0097	0.0067	3.5
0.009	0.006	0.0127	0.0082	3.5
0.0015	0.0045	0.012	0.0007	3.5
-0.0091	0.0015	0.0142	-0.003	3.6
-0.021	-0.003	0.0142	-0.0023	3.6
-0.0165	-0.0038	0.0105	-0.0113	3.6
-0.0105	-0.0015	0.0052	-0.0225	3.6
-0.0075	-0.003	-0.0008	-0.0233	3.6
-0.003	-0.0015	-0.0053	-0.0135	3.6
-0.0023	0.0007	-0.0068	-0.0075	3.6
-0.003	-0.003	-0.0053	0.0007	3.6
-0.012	-0.0075	-0.0105	0.0172	3.6
-0.0203	-0.0083	-0.012	0.0142	3.6
-0.0225	-0.0098	-0.0098	0.0097	3.6
-0.0188	-0.0068	-0.0083	0.0142	3.7
-0.0068	-0.0046	-0.0053	0.003	3.7
0.0045	-0.0068	-0.0098	0.0015	3.7
0.0157	-0.0038	-0.0165	0.0015	3.7
0.027	0	-0.0135	-0.0038	3.7
0.0292	0.0015	-0.0083	-0.0008	3.7
0.0315	0.0037	-0.0068	0.0007	3.7
0.0337	-0.0023	-0.0015	0.0015	3.7
0.0352	-0.0008	0.0052	0.0015	3.8
0.0165	-0.0015	0.0105	0.0007	3.8
-0.0075	-0.0008	0.012	0.003	3.8
-0.0098	0.0015	0.0105	0.0007	3.8
-0.0091	-0.0008	0.0052	0.0007	3.8
-0.0068	0.0015	0.0052	0.0007	3.8
-0.0008	0.0015	0.006	-0.0038	3.9
0.0007	0.0037	0.0037	-0.0075	3.9
0.0022	0.0015	0.0075	-0.0091	3.9
0.0015	0	0.012	-0.0113	3.9
0.0015	0.0015	0.0135	-0.006	3.9
0.0007	0	0.0135	-0.0053	4
-0.0008	0.0007	0.0165	-0.0053	4
-0.0015	0.0022	0.0187	0.003	4
-0.0008	0.003	0.0202	0.0037	4
0.003	0.0015	0.0195	0.0015	4
0.0015	0.0022	0.015	0.0007	4
0.0015	0.0022	0.0127	0.0022	4
0.0022	0.0007	0.0105	0.012	4
0.0015	0.003	0.0097	0.0277	4.1
0.0015	0.0045	0.009	0.0315	4.1
0.0007	0.0037	0.006	0.0172	4.1
-0.0015	-0.0015	0.003	0.0022	4.2
-0.0008	-0.006	0.0022	-0.0091	4.2
0.0007	-0.0068	0.0015	-0.0158	4.2
0	-0.0083	-0.0008	-0.024	4.3
-0.0008	-0.0068	0.0007	-0.033	4.3
-0.0008	-0.0053	0.003	-0.0361	4.4
-0.0008	-0.003	0.003	-0.0285	4.4
-0.0008	0.0007	0.0015	-0.0083	4.4
-0.003	0.003	0.0022	0.009	4.5
-0.0015	0.0045	0.003	0	4.5
0.0007	0.003	0.0015	-0.0105	4.5
0	-0.0008	0.003	-0.0128	4.5
0	-0.003	0.0007	-0.0083	4.6
-0.0008	-0.0008	-0.0008	-0.0091	4.6
-0.0015	-0.0015	0.0007	-0.0233	4.7
-0.0023	-0.0053	-0.0023	-0.0203	4.7
-0.0015	-0.003	-0.003	-0.0098	4.7
0	0.0007	0.0007	-0.0008	4.7
0.0007	-0.0023	0	0.006	4.8
-0.0008	-0.0068	-0.003	0.0187	4.8
-0.0008	-0.0046	-0.0015	0.0247	4.8
0	0.0007	-0.0053	0.0285	4.8
-0.0015	0.0015	-0.0068	0.0292	4.9
-0.0046	0.0007	-0.0046	0.0232	4.9
-0.0046	0.0015	-0.0068	0.0172	4.9
-0.0046	0.0007	-0.0083	0.0045	4.9
-0.0046	-0.0015	-0.0083	-0.0038	4.9
-0.0038	0.0007	-0.0091	-0.0135	4.9
-0.0053	0.0015	-0.0075	-0.0091	4.9
-0.0046	0.0007	-0.0053	-0.0015	5
-0.0046	-0.0008	-0.0046	-0.0008	5
-0.0053	0.0015	-0.006	0.0052	5
-0.003	0.0022	-0.0068	0.0067	5
-0.0008	0.0037	-0.0053	0.0105	5.1
0.0015	0.0045	-0.0038	0.012	5.1
0	0.0015	-0.003	0.0165	5.1
0	0.0015	-0.0046	0.0105	5.1
-0.0008	-0.0008	-0.0053	-0.0046	5.1
-0.0015	-0.0008	-0.0053	-0.0158	5.1
-0.0008	-0.003	-0.0068	-0.0308	5.2
-0.003	-0.006	-0.0075	-0.0263	5.2
-0.0038	-0.0046	-0.0075	-0.0165	5.2
-0.0046	-0.0046	-0.0068	-0.021	5.2
-0.0046	-0.006	-0.0091	-0.0158	5.2
-0.0046	-0.006	-0.0075	-0.0091	5.2
-0.0038	-0.0038	-0.0053	-0.0068	5.2
-0.0008	-0.003	-0.006	-0.0023	5.2
-0.0008	-0.0008	-0.0046	0.0007	5.2
-0.0008	0.003	-0.0053	0.0097	5.2
-0.0008	0.003	-0.0038	0.0075	5.3
-0.003	0.0045	-0.003	0.003	5.3
-0.0038	0.003	-0.0015	0.0052	5.3
-0.0015	0.0015	0.0007	0.0045	5.3
-0.0008	-0.0008	-0.0015	0.003	5.3
-0.0008	-0.0008	-0.0008	0.0105	5.3
0.0007	-0.003	0.003	0.0195	5.3
0.0015	-0.0075	0.0037	0.003	5.3
0.0007	-0.0105	0.0015	-0.0128	5.3
0.0007	-0.0113	0.003	-0.0128	5.3
0.0007	-0.0083	0.0045	-0.0195	5.3
0.0015	-0.0068	0.006	-0.0113	5.4
0.0037	-0.0023	0.0067	-0.0008	5.4
0.0037	0.0015	0.006	-0.0008	5.4
0.003	0	0.006	-0.0008	5.4
0.003	-0.0008	0.003	-0.0008	5.4
0.003	-0.0015	0.0022	0.003	5.5
0.0022	-0.0015	0.0045	0.0045	5.5
0.0007	0	0.0052	0.0075	5.5
0.0007	0.0007	0.0052	0.009	5.5
-0.0015	0.0015	0.0067	0.0082	5.5
-0.0008	0.0015	0.009	0.0007	5.6
0.0022	0.0007	0.009	-0.0053	5.6
0.0022	0.0007	0.0112	-0.0053	5.6
0.0052	0.0007	0.012	-0.0023	5.6
0.0052	0.0015	0.009	0.003	5.6
0.0045	0.0015	0.0082	-0.0008	5.7
0.0045	0.0015	0.006	-0.0046	5.7
0.0045	0.0022	0.0052	0.0015	5.7
0.0052	0.0045	0.0067	0.012	5.7
0.0037	0.006	0.0052	0.018	5.8
0.0022	0.0067	0.0045	0.0165	5.8
0.0022	0.0105	0.0045	0.0135	5.8
0.0007	0.0067	0.003	0.0097	5.8
-0.0008	0.0037	0.0022	-0.0068	5.8
-0.0023	0.0015	0.003	-0.0195	5.8
-0.0038	-0.0015	0.0037	-0.0278	5.9
-0.0046	-0.0046	0.003	-0.033	5.9
-0.0046	-0.0083	0.0015	-0.0346	5.9
-0.0038	-0.012	-0.0015	-0.0233	6
-0.0046	-0.0105	-0.003	-0.0046	6
-0.0053	-0.0075	-0.0023	-0.003	6
-0.006	-0.006	-0.003	-0.0038	6
-0.0053	-0.003	-0.0015	0.0007	6.1
-0.0053	-0.0008	0.0007	0.0045	6.1
-0.0038	0.0007	0.0015	0.006	6.1
-0.003	0.0007	0.0015	0.0022	6.1
-0.0053	0.0007	0.0007	-0.0008	6.2
-0.0038	0.0007	0.0007	-0.0008	6.2
-0.0023	0.0015	0.0007	0	6.2
-0.0023	0.0022	-0.0015	-0.0015	6.2
-0.0008	0.0015	-0.0015	-0.0015	6.2
-0.0015	0.0015	-0.0015	-0.0015	6.3
-0.0023	0	-0.0046	-0.003	6.3
-0.0038	0	-0.0075	-0.0023	6.3
-0.003	0	-0.0075	0.0045	6.3
-0.0008	-0.0008	-0.0046	0.0067	6.3
0.0015	0.0007	-0.003	0.003	6.3
0.0007	0.0007	0.0007	0.0022	6.3
0	-0.0008	0.0045	0.0015	6.3
-0.0015	-0.0008	0.0052	-0.0008	6.4
-0.003	-0.0008	0.0067	-0.0008	6.4
-0.0008	-0.0015	0.0067	0	6.4
0.0015	-0.0015	0.0067	0.0015	6.4
0.003	-0.0015	0.0075	0.0007	6.4
0.0045	-0.0008	0.0075	-0.0008	6.4
0.0022	0.0007	0.0082	-0.0008	6.5
0.0022	0.0007	0.0082	0.0007	6.5
0.0045	-0.0008	0.0067	0.0007	6.5
0.0045	-0.0008	0.0052	-0.0008	6.5
0.0037	-0.0015	0.0067	0	6.5
0.0037	-0.003	0.0052	0.0007	6.5
0.0015	0	0.0037	-0.0008	6.5
0.0007	-0.0008	0.0015	0	6.5
0.0007	-0.0008	0.0015	0.0015	6.5
-0.0008	-0.0008	0.0015	-0.0008	6.5
0.0007	-0.0008	-0.0023	0	6.5
0.0007	-0.0008	-0.003	-0.0038	6.6
0	-0.003	-0.0053	-0.0053	6.6
0	-0.0015	-0.0068	-0.0038	6.6
-0.0015	-0.003	-0.0038	-0.0038	6.6
-0.0015	-0.0023	-0.0023	-0.003	6.6
0.0007	-0.0038	0	-0.003	6.6
0.0022	-0.003	0.0007	-0.0015	6.6
0.0052	-0.0008	0.0015	-0.0015	6.6
0.0052	-0.0015	0.0022	-0.003	6.6
0.0052	-0.0015	0.0022	-0.0046	6.6
0.0045	-0.0015	0.0037	-0.0046	6.6
0.0015	0.0015	0.0052	-0.003	6.6
0.0015	0.0007	0.0052	0.0007	6.6
-0.0008	0	0.006	0.003	6.6
-0.0008	0.0007	0.003	0.003	6.6
-0.0015	0.0007	-0.0015	0.0022	6.6
-0.0008	0.0015	-0.003	0.003	6.6
0	-0.0015	-0.0053	0.0052	6.6
-0.0008	-0.0046	-0.0046	0.0045	6.6
0	-0.0038	-0.0015	0.003	6.6
-0.0008	-0.003	-0.003	-0.0008	6.6
-0.0015	-0.003	-0.0053	-0.003	6.6
-0.0008	-0.0015	-0.006	0	6.6
0.0007	0.003	-0.0038	0.0045	6.6
0	0.0045	-0.0008	0.0082	6.6
0.0007	0.0037	0	0.0097	6.6
0.0015	0.0037	0.0007	0.0045	6.6
0	0.0015	0.0022	-0.0083	6.5
0	0.0007	0	-0.0195	6.5
0	0.0015	-0.0046	-0.027	6.5
-0.0008	-0.0046	-0.006	-0.039	6.5
-0.003	-0.0113	-0.0083	-0.0443	6.5
-0.0015	-0.012	-0.0068	-0.0248	6.5
-0.0015	-0.006	-0.0068	-0.0128	6.4
-0.0023	-0.0038	-0.0075	-0.0075	6.4
-0.0038	-0.0015	-0.0053	0.0127	6.3
-0.0023	0.0007	-0.0008	0.039	6.3
0	-0.0008	0.0045	0.0405	6.3
0.0007	-0.003	0.0067	0.03	6.3
0.0015	-0.0015	0.0082	0.027	6.2
0.0015	0.003	0.0052	0.018	6.2
0.0007	0.0015	0.0045	0.0255	6.2
0.0022	0.0015	0.0075	0.0195	6.1
0.0015	0.0007	0.006	-0.0173	6.1
-0.0008	-0.0023	0.003	-0.039	6
-0.003	-0.003	0.003	-0.0218	6
-0.0008	0	0.0082	0.0052	6
0.0007	0.0007	0.0105	0.018	5.9
0.0015	-0.0046	0.0097	0.0277	5.9
0.0015	-0.0075	0.0082	0.018	5.9
0.0015	-0.003	0.0082	0.0022	5.8
0.0015	0.0007	0.0082	-0.0143	5.8
0.0007	-0.003	0.0082	-0.0368	5.8
0.0015	-0.006	0.0082	-0.057	5.8
0.003	-0.0068	0.0075	-0.0525	5.8
0.0015	-0.0023	0.0082	-0.0218	5.8
0.003	0.0015	0.0075	-0.0105	5.8
0.003	0.0015	0.0067	-0.0038	5.8
0.0022	0.0045	0.0067	0.003	5.7
0.0022	0.0045	0.0052	0.006	5.7
0.0015	0.0052	0.003	0.009	5.7
0.0007	0.006	-0.0008	0.0082	5.7
0	0.0045	0	0.0105	5.7
-0.0015	0.0045	-0.0008	0.009	5.6
-0.0023	0.0015	0	0.0075	5.6
-0.0023	0.0037	-0.0008	0.0082	5.6
-0.0008	0.0015	0.0007	0.0082	5.6
-0.0008	0	0	0.0067	5.6
-0.0015	0.0015	-0.0008	0.0097	5.6
-0.0008	-0.0008	0.0015	0.009	5.5
-0.0015	0.0007	0.0007	0.0067	5.5
-0.0015	0.003	0.0015	0.0045	5.5
0	0.0015	0.0022	0.0007	5.5
0	0.0007	-0.0015	-0.0023	5.5
-0.0015	0.0007	-0.003	-0.0046	5.4
-0.0015	-0.0008	-0.0046	-0.0068	5.4
-0.0023	-0.0008	-0.003	-0.0113	5.4
-0.0015	-0.0023	-0.0008	-0.0113	5.4
-0.0008	-0.0038	0	-0.0068	5.4
-0.0015	-0.0015	0.0022	-0.0015	5.3
-0.0008	-0.0008	0.003	-0.0008	5.3
0.0015	-0.0008	0.0022	-0.0015	5.3
0.0015	0.0007	0.0007	-0.0023	5.3
0.0015	0.0015	0	-0.0053	5.3
0.0007	0.003	-0.0015	-0.0068	5.3
-0.0015	0.0007	0.0007	-0.0075	5.3
0	0.0007	0.0015	-0.0068	5.3
0.0015	0.0007	0.003	-0.003	5.2
-0.0008	0.0007	0.0037	0.0015	5.2
0.0007	-0.0015	0.0007	0.0037	5.2
-0.003	-0.0083	-0.003	0.0007	5.1
-0.0046	-0.0098	-0.0046	-0.0038	5.1
-0.003	-0.0091	-0.0046	-0.0038	5.1
-0.0023	-0.006	-0.0038	-0.0008	5.1
-0.0008	-0.003	0	0.0015	5.1
0	-0.0023	0.0015	0.0037	5
0.0007	-0.0038	0.0015	0.0007	5
0.0007	-0.0068	-0.0008	0.003	5
0.0007	-0.0046	-0.0008	0.0067	5
0	0.0015	-0.0008	0.0015	4.9
-0.0008	0.0015	0	-0.0008	4.9
-0.0023	0.003	0.0022	-0.0023	4.9
-0.0015	0.0015	0.0015	-0.003	4.9
-0.0008	0.0007	-0.0008	-0.003	4.9
0	0.0015	0.0007	-0.0053	4.8
0.0015	0	0.003	-0.0053	4.8
0.0015	0.0007	0.003	0.0007	4.8
0	-0.0008	0.0022	0.0037	4.8
0	0.0007	0.0022	0.0007	4.7
0.0015	0.0007	0.003	0.0007	4.7
0.0007	0.0007	0.003	0.0007	4.6
0.0022	0.0007	0.003	0.0015	4.6
0.0022	0.0015	0.0045	0.0045	4.6
0.0015	0.0015	0.0052	0.0037	4.6
0.0022	0.0022	0.0045	0.003	4.6
0.0022	0.0022	0.003	-0.0053	4.5
0.0015	0.0007	0.0007	-0.0233	4.5
0	0.0007	0.0007	-0.03	4.5
-0.0008	0.0007	0.0007	-0.0165	4.5
-0.003	0.0022	0.0007	-0.003	4.5
-0.0023	0.0037	0.0007	0.0007	4.5
-0.0015	0.0022	0	0.003	4.5
-0.0008	-0.0008	-0.0008	0.0022	4.4
0.0007	-0.003	0.0007	0.0067	4.4
-0.0008	0.0007	0.0022	0.0097	4.4
-0.0008	0.003	0.0007	0.0157	4.3
0.0007	0.0015	0.0007	0.03	4.3
-0.0008	0.0007	0.0007	0.0165	4.3
-0.003	-0.0046	-0.0008	-0.012	4.3
-0.0015	-0.006	0	-0.0233	4.2
-0.0023	-0.0105	-0.0015	-0.0233	4.2
-0.0015	-0.0165	-0.0015	-0.0053	4.2
-0.0008	-0.0091	0.0015	0.0082	4.2
-0.0008	-0.0023	0.0015	0.006	4.2
0.0015	0.003	0.003	0.0052	4.1
0.0007	-0.0008	0.0015	0.0022	4.1
-0.0008	-0.0068	-0.0008	0.0045	4.1
-0.0008	-0.0046	0.0015	0.003	4.1
0.0007	0.0007	0.0037	0	4.1
0.0015	0.003	0.0037	-0.0023	4
0.0007	0	0.0022	-0.003	4
0.0015	0	0.0015	-0.0053	4
0.0007	0.0015	0.0007	-0.0083	4
0.0007	0.0022	-0.0038	-0.0105	4
0.0015	0.0015	-0.0015	-0.0143	4
0.0007	0.0022	-0.0015	-0.0135	4
0	0.003	0	-0.0091	4
0	0.003	0.0022	-0.003	3.9
-0.0008	0.003	0.0037	-0.0053	3.9
0.0007	-0.0023	0.0045	-0.0105	3.9
-0.0008	-0.0046	0.0022	-0.0158	3.8
-0.0015	-0.0046	0.003	-0.0128	3.8
-0.0008	-0.0015	0.0052	0.0127	3.8
-0.0008	0.0015	0.0045	0.024	3.8
0	0.003	0.0015	0.012	3.8
-0.0008	0	0.0007	-0.0023	3.7
-0.003	-0.0023	0.0022	-0.0195	3.7
-0.003	0	0.003	-0.0203	3.7
-0.0023	0.0007	0.003	-0.0091	3.6
-0.0015	0	0.0022	-0.0105	3.6
-0.0008	-0.0015	0.0007	-0.0143	3.6
-0.0008	-0.003	0.0007	-0.0053	3.6
-0.0008	-0.006	0.0007	0.0067	3.6
0.0015	-0.0083	0.0022	0.0217	3.5
0.0015	-0.0068	0.0045	0.0285	3.5
0.0022	-0.0075	0.003	0.0225	3.5
0.003	-0.0083	0.0022	0.0195	3.4
0.0022	-0.0015	0.0007	0.0105	3.4
0.0015	0.0007	-0.0008	0.0097	3.4
0.0015	-0.0015	0.0007	0.0157	3.4
0.0015	0.0007	0	0.012	3.3
0.0007	0.0007	0.0007	0.0045	3.3
-0.0008	0.0015	-0.0008	0.0015	3.2
-0.0015	0	-0.0015	0.0015	3.2
-0.0008	0.0007	-0.0015	-0.0008	3.1
0.0007	0.0007	-0.0008	-0.0046	3.1
0.0007	0.0007	0	-0.0203	3.1
-0.0008	0	-0.0023	-0.0353	3
-0.0015	-0.0008	-0.0008	-0.0263	3
0	0.0022	0.0015	-0.0068	2.9
-0.0015	0.0022	0.0015	-0.0015	2.9
-0.0015	0.003	-0.0008	0.0022	2.8
-0.0015	0.0015	0	0.003	2.8
-0.0023	-0.003	0	-0.003	2.7
-0.0015	-0.0046	0.0007	-0.003	2.7
-0.0008	-0.003	0.0007	-0.0083	2.6
0	-0.0023	0.0007	-0.0128	2.6
0.0007	-0.0008	0.0007	-0.0128	2.6
0.0007	0.0037	0.0015	0.0007	2.5
0.0015	0.003	0.0015	0.009	2.5
0.0015	0.003	0.0007	0.009	2.4
0	0.0037	0.0007	0.006	2.4
-0.0008	0.0007	-0.0008	-0.0053	2.3
-0.0008	-0.0008	-0.0008	-0.0113	2.2
0	0.0015	0.0007	-0.0053	2.2
0	0.0007	0.003	0.0097	2.2
0	-0.0008	0.0022	0.006	2.1
-0.0015	-0.0053	0.0022	-0.0113	2
-0.0023	-0.006	0.003	-0.0008	2
-0.0008	-0.0053	0.0015	0.0045	1.9
-0.0023	-0.0068	0.0007	-0.006	1.8
-0.0015	-0.003	0.003	-0.0105	1.8
0.0015	-0.0008	0.0037	-0.0068	1.8
0.0015	-0.0015	0.003	-0.003	1.7
0.0015	0.0007	0.003	0	1.6
0.003	0.003	0.003	0.0007	1.6
0.0007	0.003	0.0045	-0.0015	1.5
0.0015	0.003	0.0045	-0.003	1.5
0.003	0.0022	0.0037	-0.003	1.4
0.0015	0.003	0.0022	-0.003	1.3
0.0015	0.0015	0.0007	-0.0023	1.3
0	0.0007	0.0007	0.0007	1.3
-0.0015	0.003	0.0037	0.0052	1.2
-0.0015	0.0037	0.0045	0.0112	1.1
-0.0008	0.0037	0.0045	0.003	1
0.003	-0.0008	0.0045	-0.015	1
0.0007	-0.0046	0.0037	-0.0083	0.9
0.0007	-0.0053	0.003	0.003	0.9
-0.0008	-0.0068	0.0015	0.0037	0.8
-0.003	-0.0075	0.0045	0.0067	0.7
-0.0008	-0.0038	0.0022	0.006	0.6
-0.0015	-0.0053	0.0045	0.012	0.6
-0.0015	-0.0046	0.0052	0.0097	0.5
-0.0015	-0.003	0.0045	-0.0008	0.4
-0.0008	-0.0038	0.0045	-0.0008	0.4
0.0015	0.0007	0.003	-0.0023	0.3
0.0007	0.0007	0.0015	-0.0053	0.3
0.0007	0.003	-0.0008	-0.0075	0.2
0.0015	0.0045	-0.0015	-0.0143	0.1
0.0007	0.0015	-0.0008	-0.0158	0
-0.0008	0.0015	-0.0008	-0.0128	0
-0.0015	0.0022	-0.0015	-0.0015	-0.1
-0.0008	0.0052	-0.0023	0.0127	-0.1
-0.0023	0.003	-0.0015	0.0217	-0.2
0	0.0015	0	0.027	-0.3
0.0007	0.0067	-0.0008	0.024	-0.4
0.0015	0.0052	-0.0008	0.012	-0.5
0.0022	-0.0015	-0.0008	0.0052	-0.5
-0.003	-0.0053	-0.0023	-0.0053	-0.6
-0.0008	-0.0083	-0.003	-0.0293	-0.7
-0.0015	-0.0083	-0.0046	-0.0338	-0.8
-0.0015	-0.0075	-0.0053	-0.0256	-0.8
0	-0.0098	-0.0068	-0.0225	-0.9
-0.003	-0.0113	-0.0068	-0.0158	-0.9
-0.003	-0.0075	-0.0046	0	-1
-0.0023	-0.0008	-0.003	0.0135	-1.1
-0.0015	-0.0008	-0.0046	0.0112	-1.2
-0.0046	-0.003	-0.0068	-0.0046	-1.3
-0.0038	-0.0038	-0.0053	-0.0181	-1.4
-0.0015	-0.0038	-0.0053	-0.0225	-1.4
-0.003	-0.0083	-0.0068	-0.021	-1.5
-0.003	-0.012	-0.0046	-0.0023	-1.6
-0.0015	-0.012	-0.0023	-0.0053	-1.7
-0.0008	-0.0098	-0.0015	-0.012	-1.8
-0.0008	-0.0015	-0.0008	-0.003	-1.8
-0.0008	0.003	0.0015	0.0015	-2
-0.0008	0.0067	0.006	0.006	-2.1
0.0015	0.0157	0.012	-0.003	-2.2
0.0045	0.0105	0.0172	0.009	-2.3
0.0082	0.0022	0.0195	0.0405	-2.3
0.0082	0.0127	0.0187	0.0585	-2.4
0.0075	0.0202	0.0172	0.0375	-2.5
0.0082	0.0157	0.0135	0.0082	-2.6
0.006	0.0075	0.009	-0.0008	-2.7
0.0052	0.0007	0.0067	-0.0105	-2.8
0.0045	-0.0023	0.0045	-0.012	-2.9
0.003	-0.0053	0.003	-0.0195	-3
0.003	-0.0053	0.0037	-0.0233	-3.1
0.003	-0.0053	0.0007	-0.0195	-3.2
0.0015	-0.0053	-0.0008	-0.0105	-3.3
0.0015	-0.0046	-0.0008	-0.0083	-3.4
0.0015	-0.0038	-0.0015	-0.0128	-3.5
0.0007	0	-0.0008	-0.0075	-3.6
0	0.0075	-0.0015	0.0082	-3.7
0.0007	0.0232	-0.0015	0.0142	-3.8
0.0007	0.0165	-0.0015	0.0045	-3.9
-0.0008	-0.0075	-0.003	0.0075	-4.1
-0.0023	-0.0128	-0.0046	0.018	-4.1
-0.0015	-0.021	-0.0053	0.0172	-4.3
-0.0053	-0.0346	-0.006	0.0105	-4.4
-0.0046	-0.0338	-0.0083	0.0075	-4.5
-0.0046	-0.021	-0.0091	0.0045	-4.6
-0.0053	-0.003	-0.0091	0.0037	-4.7
-0.0038	0.0097	-0.0075	0.0045	-4.8
-0.0053	0.015	-0.0068	-0.0023	-4.9
-0.006	0.003	-0.0053	0.0052	-5
-0.0038	0.0187	-0.0046	0.0322	-5.1
-0.0046	0.0532	-0.003	0.042	-5.3
-0.0053	0.033	-0.0023	0.0165	-5.4
-0.0053	-0.006	-0.0046	-0.0075	-5.5
-0.0053	-0.0105	-0.0053	-0.027	-5.6
-0.0046	-0.0181	-0.006	-0.0495	-5.7
-0.0038	-0.0105	-0.0046	-0.057	-5.9
-0.0023	0.0097	0	-0.0495	-6
0.0007	0.0195	-0.0008	-0.0428	-6.2
-0.0015	0.009	-0.0015	-0.0353	-6.3
-0.0015	-0.0068	0.0015	-0.0083	-6.4
-0.0008	0.0127	0.0045	-0.003	-6.6
0	0.0007	0.0015	-0.0248	-6.7
-0.0008	-0.021	0.0015	-0.0436	-6.8
-0.0008	-0.0218	0.003	-0.0203	-7
-0.0015	-0.0158	0	0.0127	-7.2
-0.003	0.0007	0.0015	0.0202	-7.3
0.0007	0.0052	0.0082	0.0307	-7.4
0.0015	0.009	0.0082	0.0277	-7.6
0.0015	-0.0008	0.012	0.0277	-7.7
0.0037	-0.006	0.0157	0.0232	-7.8
0.0052	-0.0053	0.015	-0.0015	-8
0.0045	-0.0135	0.0127	-0.0248	-8.1
0.0022	-0.0188	0.0157	-0.0405	-8.3
0.003	-0.0143	0.0165	-0.0195	-8.5
0.0037	0.0022	0.0105	0.021	-8.6
0.0037	0.003	0.0105	0.0412	-8.7
0.0045	0.003	0.012	0.0502	-8.9
0.0045	0.0097	0.0127	0.0465	-9.1
0.0052	0.009	0.012	0.042	-9.3
0.0037	0.0105	0.0097	0.0435	-9.4
0.0015	0.006	0.0052	0.0255	-9.6
0.003	-0.0023	0.003	-0.0046	-9.8
0.0022	-0.0091	0.003	-0.0428	-9.9
0.0037	-0.0105	0.0015	-0.06	-10.1
0.0045	-0.0113	0.0052	-0.0488	-10.3
0.003	-0.012	0.0075	-0.0308	-10.4
0.0037	-0.0046	0.009	-0.0105	-10.6
0.0045	0.0015	0.0082	-0.0143	-10.8
0.0045	0	0.0052	-0.0256	-10.9
0.0037	-0.003	0.003	-0.024	-11.1
0.003	-0.0038	0.0007	-0.0218	-11.3
0.0007	-0.0015	0.0015	-0.0091	-11.5
0.0007	0	-0.0008	0.003	-11.6
-0.0008	0.0007	-0.0015	0.0082	-11.8
-0.0015	-0.0015	-0.0015	0.0135	-12
-0.0015	-0.003	-0.003	0.0142	-12.2
-0.0053	-0.0046	-0.0038	0.0075	-12.4
-0.0053	-0.0046	-0.0046	0.0052	-12.6
-0.003	0.0007	-0.0053	0.0082	-12.8
-0.0023	-0.0015	-0.0038	0.009	-13
0	-0.0046	-0.0053	0.0142	-13.2
-0.0015	0.0015	-0.0046	0.0165	-13.4
-0.003	0.0045	-0.003	0.015	-13.6
-0.0015	0.006	-0.0023	0.009	-13.8
0.0007	0.009	-0.0015	0.0067	-14
0	0.0082	0.0007	0.0082	-14.2
0	0.0075	0.0015	0.0067	-14.4
-0.0015	0.0052	-0.003	0.0112	-14.6
-0.0038	0.0052	-0.0046	0.009	-14.8
-0.0038	0.009	-0.003	0.0007	-15
-0.0046	0.0097	-0.003	-0.0053	-15.2
-0.0038	0.009	-0.0008	-0.0015	-15.4
-0.003	0.009	-0.003	0.0052	-15.6
-0.0046	0.0082	-0.0023	0	-15.8
-0.0046	0.0067	-0.0015	-0.0091	-16
-0.003	0.0015	-0.0015	-0.0203	-16.3
-0.0015	-0.0015	-0.003	-0.0195	-16.5
-0.0015	-0.0046	-0.0046	-0.0091	-16.8
-0.0008	-0.012	-0.0046	-0.0091	-17
-0.0015	-0.0181	-0.0053	-0.006	-17.2
-0.003	-0.0158	-0.0046	-0.003	-17.5
-0.0015	-0.0128	-0.0083	-0.0015	-17.7
-0.0023	-0.0143	-0.0075	-0.0015	-18
-0.0015	-0.015	-0.0068	-0.0015	-18.2
-0.0015	-0.0158	-0.0075	-0.0046	-18.5
-0.003	-0.0195	-0.0098	-0.0068	-18.7
-0.003	-0.0195	-0.0083	-0.0068	-18.9
-0.0023	-0.0181	-0.0053	-0.0091	-19.2
0.0007	-0.0165	-0.0008	-0.0083	-19.4
0.0015	-0.0135	0.0015	-0.0083	-19.7
0.0015	-0.0091	0.0007	-0.0091	-19.9
0.003	-0.0053	0.003	-0.0075	-20.2
0.0037	-0.003	0.0015	-0.0053	-20.4
0.003	-0.0008	0.0015	-0.0053	-20.7
0.003	-0.0015	0.0015	-0.0038	-21
0.0015	0.0007	0	-0.0023	-21.2
0.0007	0.0022	0.0015	-0.003	-21.6
0.0007	0.0037	0.0052	-0.0008	-21.8
0.0015	0.0067	0.0105	0	-22.1
0.0015	0.0075	0.0075	0.0007	-22.4
0.0007	0.0105	0.0075	0.003	-22.7
0.0015	0.012	0.0067	0.003	-23
0.0015	0.0135	0.0067	0.0067	-23.3
0.003	0.0165	0.0097	0.0067	-23.6
0.003	0.0195	0.0097	0.0052	-23.9
0.0015	0.0157	0.009	0.0052	-24.2
0.0022	0.0127	0.0082	0.0052	-24.5
0.0037	0.012	0.009	0.0052	-24.8
0.0015	0.0105	0.0097	0.003	-25.1
0.003	0.0127	0.0105	0.0007	-25.4
0.0037	0.0105	0.0082	0.0007	-25.7
0.0007	0.0067	0.0052	0	-26
0.0007	0.0052	0.0052	0.0022	-26.2
0.003	0.0045	0.0075	0.0045	-26.6
0.0052	0.003	0.009	0.0037	-26.8
0.0052	-0.0015	0.0082	0.0022	-27.1
0.0015	-0.0053	0.003	0.0015	-27.4
-0.0008	-0.0091	-0.0023	-0.0008	-27.7
-0.003	-0.012	-0.0075	-0.0046	-28
-0.0053	-0.0158	-0.0098	-0.0083	-28.3
-0.0075	-0.0188	-0.0105	-0.0113	-28.5
-0.0083	-0.015	-0.012	-0.0105	-28.8
-0.0091	-0.012	-0.0135	-0.0091	-29.1
-0.0091	-0.0105	-0.0165	-0.0083	-29.4
-0.0083	-0.0068	-0.0181	-0.0083	-29.7
-0.0091	-0.0053	-0.0173	-0.0068	-30
-0.0091	-0.0038	-0.0165	-0.0053	-30.3
-0.0091	-0.0046	-0.0195	-0.003	-30.6
-0.0091	-0.0068	-0.0188	-0.0015	-30.8
-0.0075	-0.0053	-0.0181	-0.003	-31.1
-0.0075	-0.0046	-0.0195	-0.003	-31.4
-0.0098	-0.0046	-0.0181	-0.0015	-31.7
-0.0098	-0.0053	-0.015	-0.0008	-32
-0.0068	-0.0046	-0.0143	-0.0015	-32.3
-0.0083	-0.0023	-0.0128	-0.0008	-32.5
-0.0083	0	-0.0091	-0.0008	-32.8
-0.0053	-0.0008	-0.0046	0.0007	-33
-0.0015	-0.0015	0.0015	-0.0008	-33.3
0.0007	-0.0015	0.003	-0.003	-33.5
-0.0008	0.0007	0.0022	-0.003	-33.8
-0.0008	0.0022	0.0015	-0.0023	-34.1
0.0007	0.0045	0.0037	-0.0023	-34.3
0.0015	0.0052	0.0075	-0.003	-34.6
0.0045	0.006	0.0082	-0.003	-34.8
0.0052	0.0052	0.0105	-0.003	-35.1
0.0052	0.0052	0.0105	-0.003	-35.3
0.0067	0.0067	0.0157	0.0007	-35.6
0.0067	0.0045	0.0187	0.0015	-35.8
0.0082	0.0037	0.0165	-0.0008	-36.1
0.0082	0.003	0.0165	0.0007	-36.3
0.0082	0.0015	0.018	0.0015	-36.6
0.0105	0.0015	0.0165	-0.0008	-36.9
0.0097	0.0015	0.018	-0.0008	-37.1
0.009	0.0007	0.0217	-0.0008	-37.4
0.0105	0	0.021	-0.003	-37.6
0.012	-0.0008	0.0225	-0.0038	-37.8
0.012	0.0007	0.024	-0.003	-38
0.012	-0.0008	0.024	-0.003	-38.3
0.012	-0.0023	0.0225	-0.003	-38.5
0.0097	-0.0015	0.0202	-0.0038	-38.7
0.0105	0.0007	0.0232	-0.003	-38.9
0.0105	0.0015	0.024	-0.0015	-39.2
0.0105	0.003	0.0247	-0.0008	-39.4
0.0097	0.0037	0.0225	0.0007	-39.6
0.009	0.0052	0.0202	0.0015	-39.8
0.0097	0.006	0.018	0.0045	-40
0.0067	0.0067	0.0165	0.003	-40.2
0.0045	0.0067	0.0165	0.0045	-40.5
0.0045	0.0045	0.0142	0.0037	-40.7
0.0045	0.0045	0.012	0.003	-40.9
0.003	0.0037	0.0075	0.0037	-41.1
0.0007	-0.0008	0.0075	0.0015	-41.4
0.0007	-0.0046	0.0082	0.0015	-41.6
0.0015	-0.0053	0.0082	-0.0008	-41.9
0.0015	-0.0068	0.0045	-0.0015	-42
-0.0008	-0.0068	0.006	0	-42.2
-0.0008	-0.0068	0.0052	0.0007	-42.3
-0.0023	-0.006	0.003	-0.0008	-42.5
-0.0015	-0.003	0.003	0	-42.7
-0.0008	-0.003	0	-0.0008	-42.8
-0.0038	-0.003	-0.0008	-0.0008	-43
-0.0038	-0.0015	-0.0008	0.0015	-43.2
-0.0023	-0.0008	-0.0008	0.0007	-43.4
-0.003	-0.0008	-0.0015	0.0007	-43.6
-0.0015	0	-0.0008	-0.0008	-43.7
-0.003	0.0015	0	-0.0008	-43.9
-0.003	0.003	0	0.0015	-44.1
-0.003	0.0045	-0.0008	0.0007	-44.2
-0.0046	0.0037	0	0.0007	-44.4
-0.0008	0.0015	-0.0015	0.0007	-44.6
0	0.0015	-0.0046	0.0015	-44.7
-0.0038	0.0007	-0.0053	0.0007	-44.9
-0.0046	-0.0015	-0.0053	-0.0008	-45.1
-0.0053	-0.003	-0.0068	-0.0015	-45.3
-0.0068	-0.0068	-0.012	-0.0015	-45.4
-0.0091	-0.0083	-0.0165	-0.0023	-45.5
-0.0098	-0.0091	-0.0181	-0.003	-45.7
-0.0083	-0.0098	-0.0181	-0.0053	-45.8
-0.0068	-0.0091	-0.0181	-0.0046	-45.9
-0.0075	-0.0068	-0.0181	-0.0046	-46
-0.0068	-0.0038	-0.0181	-0.0046	-46.2
-0.0083	-0.0038	-0.0173	-0.0046	-46.3
-0.0083	-0.0046	-0.0181	-0.0046	-46.4
-0.0091	-0.0046	-0.0181	-0.0038	-46.6
-0.0083	-0.0046	-0.0203	-0.0023	-46.7
-0.0083	-0.003	-0.0218	-0.0015	-46.8
-0.0083	-0.0008	-0.0195	-0.0023	-46.9
-0.006	0.0015	-0.0158	-0.0015	-47.1
-0.0053	0.0007	-0.0143	-0.0008	-47.2
-0.0046	0.0007	-0.0128	0.0007	-47.3
-0.0046	0.003	-0.0091	0	-47.4
-0.0015	0.003	-0.0068	0	-47.6
-0.003	0.0015	-0.0053	0.0015	-47.7
-0.0015	-0.0008	-0.0038	0	-47.9
-0.0023	-0.0008	-0.003	-0.0023	-47.9
-0.003	-0.0008	-0.0008	-0.0038	-48.1
-0.0015	-0.0023	-0.0008	-0.003	-48.2
-0.0015	-0.0008	0.003	-0.0015	-48.3
-0.0008	0	0.0045	-0.0008	-48.4
0.0007	0	0.0045	-0.0015	-48.5
0.0022	0.0015	0.0045	-0.0015	-48.6
0.003	0.0007	0.0052	-0.0015	-48.7
0.0022	0.0007	0.0052	-0.0023	-48.9
0.0022	0.0015	0.003	-0.0023	-49
0.0015	0.0015	0.0067	-0.0015	-49.1
0.003	0.003	0.0105	-0.0008	-49.2
0.0045	0.0022	0.0097	0	-49.3
0.0015	0.0015	0.0105	0.0007	-49.4
0.0022	0.0015	0.0135	-0.0008	-49.5
0.0022	0	0.0105	-0.0008	-49.6
0.0007	0	0.0075	-0.0008	-49.7
0.0007	0.0007	0.0067	-0.0015	-49.9
-0.0008	0.0007	0.0037	-0.0015	-50
-0.0008	0	0.003	-0.0008	-50.1
0.0007	0.0007	0.0015	0.0007	-50.2
0	0.0007	0	0.0007	-50.3
-0.0008	0.0007	0.0015	0.0015	-50.4
0.0007	0.0007	0.0015	0.0007	-50.5
0.0007	0.0015	0.0015	-0.0015	-50.6
0.0022	0.0015	0.0037	-0.0023	-50.7
0.0022	0.0007	0.0022	-0.0008	-50.8
0.0007	0.0015	0.003	-0.0008	-50.9
0.0015	0.0007	0.0052	-0.003	-51
0.0052	0.0007	0.0075	-0.003	-51.1
0.0052	-0.0008	0.0075	-0.0015	-51.2
0.0052	-0.0008	0.0067	-0.0038	-51.3
0.0045	-0.0015	0.006	-0.0015	-51.4
0.0022	-0.0015	0.0067	-0.0015	-51.5
0.0022	-0.0008	0.003	-0.0023	-51.6
0	-0.0015	-0.0008	-0.0008	-51.7
-0.0008	-0.0023	0	-0.0008	-51.8
-0.0008	-0.0046	-0.0015	-0.0015	-51.9
-0.0008	-0.0046	0	-0.0015	-52
-0.0015	-0.0046	0.0007	-0.0008	-52.1
-0.0008	-0.006	0	-0.0008	-52.1
-0.0008	-0.0053	-0.0008	-0.0008	-52.2
-0.0008	-0.003	0.0007	-0.0015	-52.2
0	-0.0038	0.003	-0.0015	-52.3
0	-0.003	0	-0.0015	-52.4
-0.0008	-0.003	0.0022	-0.0023	-52.4
0.0007	-0.0046	0.0052	-0.0015	-52.5
0.003	-0.003	0.0052	-0.003	-52.5
0.003	-0.003	0.0037	-0.0023	-52.6
0.0022	-0.0015	0.0015	-0.0008	-52.7
0.0007	-0.0008	0.0015	-0.0015	-52.7
0.0007	-0.0015	0.0015	-0.003	-52.8
-0.0008	0.0015	0.003	-0.003	-52.8
-0.0008	0.0015	0.0022	-0.0015	-52.9
-0.0008	0.0007	0.0015	-0.0015	-53
-0.0008	0.0007	0.003	-0.0008	-53
0.0015	0.0007	0.003	0.0015	-53.1
0.0015	0.0007	0.0045	-0.0008	-53.1
0	0	0.003	-0.0023	-53.2
-0.0008	0.0022	0.0022	-0.0046	-53.3
0.0015	0.0022	0.0052	-0.003	-53.3
0.003	0.0015	0.0037	-0.0015	-53.3
0.0015	0	0.006	-0.003	-53.3
0.003	0.0007	0.0082	-0.0008	-53.3
0.003	0.0007	0.0052	-0.0023	-53.3
0.0007	0.0007	0.0067	-0.003	-53.3
0.0015	0.0015	0.0052	-0.0015	-53.3
0.0015	-0.0008	0.0052	-0.0008	-53.3
0.003	-0.0008	0.0052	-0.003	-53.3
0.0015	-0.0008	0.006	-0.0015	-53.3
0.0007	-0.0008	0.0082	-0.0008	-53.3
0.0007	0.0007	0.009	-0.0008	-53.3
0.0007	0.0007	0.0075	-0.0015	-53.3
0.0015	0.0007	0.0067	-0.0023	-53.3
0.0022	-0.0015	0.0082	-0.0015	-53.3
0.0037	-0.0008	0.0075	-0.0015	-53.3
0.003	0.0007	0.0067	0.0007	-53.3
0.0015	-0.0008	0.0052	0.0015	-53.3
0.0007	-0.0008	0.0045	0	-53.3
0.0007	-0.0008	0.0015	-0.0008	-53.3
0.0007	0	0.0022	-0.0008	-53.2
-0.0015	-0.0008	0.0007	0.0007	-53.2
-0.0008	0	-0.0015	-0.0008	-53.1
-0.0008	-0.0008	-0.003	0.0007	-53.1
-0.0015	-0.0023	-0.0068	0.0015	-53
-0.0015	-0.0015	-0.0083	-0.0008	-53
-0.003	-0.0015	-0.0083	-0.0008	-52.9
-0.003	0.0015	-0.0068	-0.0015	-52.9
-0.0038	0.0007	-0.0053	-0.0008	-52.8
-0.003	0.0007	-0.0075	-0.0008	-52.7
-0.003	0.0007	-0.0068	-0.0023	-52.7
-0.0038	-0.003	-0.0083	-0.0015	-52.7
-0.003	-0.003	-0.0068	-0.0015	-52.6
-0.0023	-0.003	-0.0083	-0.0023	-52.6
-0.0038	-0.003	-0.0075	-0.0008	-52.5
-0.003	-0.0015	-0.0068	-0.0008	-52.5
-0.0046	-0.003	-0.0083	-0.0008	-52.4
-0.006	-0.0015	-0.0068	0.0007	-52.3
-0.0046	-0.0023	-0.0046	0	-52.3
-0.003	-0.0046	-0.0023	-0.0008	-52.2
-0.0015	-0.0023	0	-0.0015	-52.2
0.0015	-0.0023	0.0007	-0.0015	-52.1
0.0015	-0.0038	0.0007	-0.0015	-52
0.0007	-0.0046	0.0007	-0.0015	-51.9
0.0015	-0.0023	0.0007	-0.0015	-51.8
0.0015	-0.0008	0.0015	-0.0015	-51.7
0.0015	-0.0008	0.0045	-0.0008	-51.6
0.0045	0	0.0082	-0.0008	-51.5
0.0052	0	0.009	0	-51.4
0.0052	0.0007	0.0127	0.0007	-51.3
0.006	0.0007	0.0142	0	-51.2
0.0052	0	0.0112	-0.0008	-51.1
0.0045	0	0.003	0.0007	-51
0.0007	0	-0.003	0.0007	-50.9
-0.003	0.003	-0.0046	0	-50.8
-0.0046	0.0015	-0.0105	0.0015	-50.7
-0.0068	0.0015	-0.0128	0.003	-50.6
-0.0083	0.0015	-0.0135	0.0015	-50.5
-0.0083	0.0015	-0.0098	-0.0008	-50.4
-0.0083	0	-0.0105	0.0007	-50.4
-0.0098	-0.0015	-0.0113	-0.0015	-50.2
-0.0091	-0.0008	-0.0113	-0.0023	-50.1
-0.0091	-0.0015	-0.0143	-0.0015	-50
-0.0091	-0.003	-0.012	-0.0015	-49.8
-0.0098	-0.0015	-0.0128	-0.0008	-49.7
-0.0091	-0.0008	-0.015	-0.0015	-49.5
-0.0091	-0.0015	-0.0135	-0.0015	-49.4
-0.0075	-0.0038	-0.0091	-0.003	-49.3
-0.0046	-0.0015	-0.0075	-0.003	-49.1
-0.003	-0.0008	-0.0046	-0.0023	-49
-0.0023	-0.0008	-0.0023	-0.0023	-48.9
-0.0015	0	-0.0008	-0.0015	-48.7
-0.0015	0.0007	-0.0008	-0.0015	-48.6
-0.0015	-0.0008	-0.0008	-0.0023	-48.5
-0.0008	-0.0008	0.0015	-0.0008	-48.3
-0.0008	-0.0008	0.0015	0	-48.2
-0.0008	0	0.0045	-0.0015	-48.1
-0.0008	-0.0008	0.006	-0.003	-47.9
0.0022	-0.0015	0.0082	-0.003	-47.8
0.0045	-0.0023	0.0052	-0.0023	-47.7
0.003	-0.0015	0.0067	-0.0046	-47.5
0.003	-0.0008	0.0105	-0.0046	-47.3
0.0037	-0.0015	0.009	-0.0038	-47.2
0.0045	-0.0015	0.012	-0.0046	-47
0.003	-0.0015	0.0127	-0.003	-46.8
0.0045	-0.0023	0.0127	-0.0038	-46.7
0.006	-0.0008	0.0157	-0.0015	-46.5
0.0067	0	0.0142	-0.0015	-46.4
0.0052	-0.0015	0.012	-0.0046	-46.2
0.0052	-0.0015	0.0112	-0.0053	-46
0.0052	-0.0015	0.0105	-0.0038	-45.9
0.0037	-0.0015	0.009	-0.0046	-45.7
0.0052	-0.0008	0.0075	-0.0046	-45.5
0.0052	-0.0008	0.0052	-0.003	-45.4
0.0045	-0.0008	0.0045	-0.0023	-45.2
0.003	-0.0008	0.0067	-0.0023	-45
0.0045	0	0.006	-0.0038	-44.9
0.0045	0	0.0045	-0.003	-44.7
0.0045	0	0.0037	-0.0015	-44.6
0.003	0.0007	0.003	-0.0008	-44.4
0.0015	0	0.0015	-0.0015	-44.2
0	-0.0008	0	0.0007	-44.1
0.0007	0.0007	0.0007	0.0007	-43.9
0.0015	-0.0008	0.0007	-0.0008	-43.7
-0.0008	-0.0008	-0.003	0	-43.5
-0.0008	0	-0.003	-0.0008	-43.3
-0.0015	0.0007	-0.0023	0	-43.1
-0.0023	0.0007	-0.0046	0.0007	-42.9
-0.0008	-0.0008	-0.0038	0.0007	-42.8
-0.0015	0.0007	-0.003	0.0007	-42.5
-0.003	0.0007	-0.0023	0.0007	-42.3
-0.003	-0.0023	-0.0015	-0.0008	-42.2
-0.003	-0.0023	-0.0008	-0.0008	-42
-0.0015	-0.0008	0.0015	-0.0015	-41.8
-0.003	-0.0015	-0.0008	-0.0015	-41.6
-0.0015	-0.0008	0	-0.0023	-41.4
0	-0.0008	0.0007	-0.003	-41.2
-0.0008	-0.0023	0.0007	-0.0038	-41
0.0015	-0.003	0.003	-0.0046	-40.9
0.0015	-0.003	0.0015	-0.003	-40.7
0.0007	-0.0015	0.0015	-0.0046	-40.5
0.0007	-0.0015	0.0007	-0.0038	-40.3
0.0007	-0.0046	0.0007	-0.003	-40.1
0.0015	-0.0038	0.0007	-0.0023	-39.8
0.0022	0.0007	0.0015	-0.0015	-39.6
0.003	0.0015	0.0015	-0.003	-39.4
0.0022	0.0015	0.0015	-0.0046	-39.2
0.0015	0.0022	0.003	-0.003	-39
0.0007	0.003	0.0037	-0.0008	-38.7
-0.0008	0.0045	0.0045	0.0007	-38.5
-0.0008	0.003	0.0045	0.0015	-38.3
-0.0008	0.003	0.006	0.0015	-38.1
-0.0008	0.0022	0.0067	0.003	-37.9
-0.0008	-0.0023	0.0045	0.0045	-37.7
0	-0.0075	0.0052	0.003	-37.5
-0.0008	-0.0113	0.006	0.0022	-37.3
0	-0.0046	0.0052	0.0022	-37
0.0007	-0.003	0.0052	-0.0023	-36.8
0.0007	-0.0068	0.0045	-0.0046	-36.6
0.0015	-0.003	0.0045	-0.003	-36.4
0	0.0007	0.0045	-0.0046	-36.2
0	0.0045	0.0052	-0.003	-35.9
0.0015	0.0045	0.0052	-0.0038	-35.7
0.0007	0.0007	0.0015	-0.0046	-35.5
0	-0.0015	0.0022	-0.0053	-35.2
0.0015	0	0.0007	-0.0046	-35
0.0007	0	0.0007	-0.0046	-34.7
0.0015	-0.0023	0.0015	-0.0098	-34.5
0.0015	-0.0046	-0.0008	-0.0105	-34.2
0.0007	-0.0083	-0.0015	-0.0091	-34
0.0007	-0.006	-0.0023	-0.0015	-33.8
0.0007	-0.006	0.0007	0.0045	-33.5
0.0007	-0.0053	0.0015	0.0165	-33.3
0	-0.0008	0.0015	0.0232	-33.1
-0.0023	0.0007	0	0.012	-32.8
-0.0015	-0.0023	0	-0.003	-32.6
-0.0008	-0.0008	0.0007	-0.0053	-32.4
-0.003	0.0105	-0.0008	0.0022	-32.1
-0.0038	0.018	-0.0015	0.0112	-31.9
-0.0008	0.0127	0.0015	0.0135	-31.6
0	0.0045	0.0007	0.0052	-31.4
-0.0015	-0.0008	0.0007	-0.003	-31.1
-0.0015	-0.003	0.0015	-0.0083	-30.9
-0.0015	-0.0008	0.0037	-0.0046	-30.6
-0.0015	0.0052	0.0015	0.003	-30.4
0.0007	0.0052	0.0007	0.0075	-30.1
0.0007	0	0.0007	0.0045	-29.8
-0.0015	-0.006	-0.0008	-0.0023	-29.6
-0.0008	-0.0053	0.0007	-0.006	-29.3
0	-0.0046	-0.0008	-0.0128	-29.1
0	-0.0053	0	-0.0158	-28.8
-0.0015	-0.0053	0.0007	-0.0128	-28.6
0	-0.0068	0.0015	-0.012	-28.4
0.0007	-0.0075	0.0052	-0.0068	-28.1
0.0015	-0.0046	0.0037	-0.0015	-27.8
0.0015	-0.0015	0.0045	-0.0068	-27.6
0	-0.0046	0.0052	-0.0098	-27.3
0	-0.0053	0.0037	-0.0068	-27
-0.0015	-0.0046	0.0045	-0.0068	-26.8
-0.0008	-0.0046	0.0022	-0.0015	-26.6
-0.0023	-0.0023	-0.0008	-0.0023	-26.3
-0.0015	-0.0008	-0.0008	-0.0015	-26
0.0007	0	-0.003	-0.0023	-25.7
0.0007	-0.0008	-0.0023	-0.0038	-25.5
0.0007	0.0015	0	-0.0008	-25.2
0.0007	0.003	0.003	0.0022	-25
0.0015	0.0015	0.003	0.006	-24.7
0.0022	0.0022	0.0045	0.0067	-24.4
0.0015	0.003	0.0037	0.0082	-24.2
0.0022	0.0045	0.003	0.006	-23.9
0	0.003	0.003	0.0045	-23.7
-0.0008	0.0022	0.003	0.009	-23.4
-0.0008	0.0022	0.0015	0.0105	-23.1
0	0.003	0.0007	0.0022	-22.9
0.0015	0.0015	0.0007	-0.0083	-22.6
0	-0.0015	-0.0008	-0.012	-22.3
-0.0008	-0.0008	0.003	-0.0083	-22.1
0	-0.0046	0.0037	-0.0053	-21.8
-0.0023	-0.0091	0.0015	-0.0046	-21.6
-0.0015	-0.0105	0.0007	-0.0008	-21.3
-0.0015	-0.0128	-0.0008	-0.003	-21
-0.0008	-0.0105	0.0007	-0.006	-20.7
-0.003	-0.0053	-0.0008	-0.0068	-20.5
-0.003	-0.0038	-0.0023	-0.0068	-20.2
-0.003	-0.0008	-0.0015	-0.0083	-19.9
-0.003	0.0007	-0.0008	-0.0068	-19.7
-0.0015	0.0007	-0.003	-0.003	-19.4
-0.0046	0.0022	-0.0053	0.0007	-19.1
-0.003	0.0022	-0.0053	0.0037	-18.9
-0.0015	0.0015	-0.0053	0.003	-18.5
-0.003	-0.0008	-0.003	-0.0046	-18.3
-0.0023	-0.006	-0.0008	-0.0128	-18
-0.0015	-0.0083	0.0007	-0.0105	-17.7
-0.0008	-0.006	-0.0015	-0.0046	-17.5
0.0015	-0.0053	-0.0053	-0.0015	-17.2
-0.0015	-0.003	-0.0068	-0.0008	-16.9
-0.0023	-0.0015	-0.003	0.003	-16.7
0.0022	0	-0.0015	0.006	-16.4
0.0007	-0.0008	-0.0083	-0.0008	-16.1
-0.0046	-0.003	-0.012	-0.0008	-15.8
-0.0046	0.009	-0.0075	0.009	-15.5
-0.0038	0.036	-0.0008	0.0165	-15.3
-0.0008	0.0352	0.0067	0.0195	-14.9
0.003	0.0142	0.0075	0.0135	-14.6
0.0045	0.0067	0.0075	0.0082	-14.3
0.0067	0.0045	0.009	0.0052	-14
0.0075	-0.0008	0.0067	-0.0015	-13.7
0.0052	-0.0008	0.0067	-0.0038	-13.4
0.0037	-0.0046	0.0067	-0.003	-13.1
0.0022	-0.0068	0.012	-0.003	-12.8
0.003	-0.0038	0.0202	-0.0023	-12.5
0.0052	-0.0008	0.0225	-0.0023	-12.2
0.0022	-0.0015	0.0187	-0.0068	-11.9
0.0045	-0.0046	0.0142	-0.0091	-11.6
0.006	-0.0023	0.0082	-0.0053	-11.3
0.0067	-0.0015	-0.0015	-0.0038	-11
0.0082	-0.0046	-0.0053	-0.003	-10.7
0.009	-0.0046	-0.0053	-0.0023	-10.4
0.0067	-0.0046	-0.0008	-0.003	-10.1
0.0045	-0.0053	0.0007	-0.0046	-9.8
0.003	-0.006	-0.0023	-0.003	-9.5
0.0007	-0.0075	0.0007	-0.0038	-9.1
-0.003	-0.0068	-0.0068	-0.0038	-8.8
-0.0038	-0.0015	-0.012	-0.0046	-8.5
-0.0015	0	-0.0128	-0.0008	-8.2
-0.0053	0	-0.0105	0	-7.9
-0.0046	0.0015	0	0.0007	-7.6
-0.0046	0.0007	0.0052	0.003	-7.2
-0.0113	0.0007	0.0105	0.0007	-6.9
-0.0143	-0.0015	0.0112	-0.0023	-6.6
-0.012	-0.0075	0.0082	-0.0091	-6.3
-0.0098	-0.0075	0.0075	-0.012	-6
-0.0038	-0.0053	0.0082	-0.0105	-5.7
-0.0015	-0.0075	0.0037	-0.0091	-5.4
-0.0038	-0.0053	-0.0046	-0.003	-5
-0.0023	-0.0008	-0.0046	-0.0015	-4.7
-0.003	0.0022	0.0007	0	-4.4
-0.0008	0.0015	0.006	0.0015	-4.1
-0.0008	0.0015	0.0075	0.0022	-3.8
-0.0038	0.003	0.003	-0.0015	-3.5
-0.0046	0.0022	-0.0046	0.0007	-3.2
-0.0015	0.0015	-0.0038	0.003	-3
0.0037	0	-0.0008	0.0022	-2.8
0.0052	-0.0015	-0.0015	0.0015	-2.6
0.0015	-0.0008	-0.0023	0.0015	-2.3
0.0015	-0.0008	-0.003	0.0015	-2.1
0.006	-0.0015	-0.0038	0.0015	-1.9
0.0082	0	-0.0015	0.0007	-1.7
0.0075	0.0007	0.0015	-0.0015	-1.4
0.0052	0.0015	0.0015	-0.0015	-1.2
0.0052	0.0022	0.0045	0.0015	-1
0.0075	0.0015	0.003	-0.0008	-0.8
0.012	0.003	0.0007	-0.0015	-0.6
0.0127	0.0022	-0.0015	-0.0053	-0.4
0.006	0	-0.0015	-0.0068	-0.1
0.0015	-0.0015	0.0045	-0.0046	0.1
0.0007	-0.0046	0.009	-0.003	0.3
0.0015	-0.0053	0.0052	-0.0015	0.5
0	-0.0046	-0.0068	0.0007	0.8
-0.0046	-0.0046	-0.0105	0.003	1
-0.0068	-0.0046	-0.0098	0.0045	1.1
-0.0091	-0.0008	-0.0038	0.0045	1.3
-0.0105	0.0007	0.0007	0.0045	1.4
-0.0105	0.0015	-0.0015	0.0037	1.6
-0.0135	0.003	-0.003	0.0015	1.7
-0.0083	0.0045	0	-0.0008	1.8
0.0082	0.009	0.0127	-0.0008	2
0.0195	0.0067	0.0105	-0.003	2.2
0.0127	0.0037	0.0075	-0.0038	2.3
0.0052	0.003	0.0157	-0.003	2.4
0.003	0.0007	0.0172	-0.0046	2.6
-0.003	0	0.0202	-0.0046	2.7
-0.0008	-0.0023	0.0187	-0.003	2.9
-0.0008	-0.0008	0.0172	-0.0023	3
0.0007	0	0.0097	-0.0008	3.1
0	-0.0038	-0.0008	0.0007	3.3
-0.0068	-0.0023	-0.0008	0	3.4
-0.006	-0.0015	-0.0068	0	3.6
-0.0068	0	-0.0158	0.0022	3.7
-0.0068	0.0015	-0.0165	0.0015	3.9
-0.0068	0	-0.012	0.0015	4
-0.0038	0.0015	-0.0068	0.003	4
-0.0015	0.0015	-0.003	0.0015	4.1
0.0022	0	0.0015	0.003	4.1
0.0082	-0.003	0.012	0.0015	4.2
0.0067	-0.003	0.0127	0	4.3
0.0007	-0.0015	0.0082	-0.0008	4.4
0	-0.0008	0.0105	-0.0008	4.4
-0.0008	0.0007	0.009	0	4.5
-0.003	-0.0015	0.0082	-0.0023	4.6
-0.0023	-0.0015	0.0052	-0.0015	4.6
-0.0008	-0.0015	0.0007	-0.0015	4.7
0	-0.0008	-0.003	-0.0015	4.8
-0.0008	0.0015	-0.0105	0	4.9
-0.0008	0.0037	-0.0158	0.0007	4.9
-0.0023	0.003	-0.0203	-0.0008	5
-0.0068	-0.0015	-0.0188	-0.003	5
-0.006	-0.0046	-0.0158	-0.0046	5.1
-0.0046	-0.0091	-0.0113	-0.0053	5.2
-0.0038	-0.0068	-0.0053	-0.0046	5.3
-0.003	-0.0053	-0.0038	-0.003	5.3
0	-0.006	-0.0015	-0.003	5.3
0.0037	-0.0023	-0.0008	-0.0008	5.3
0.0015	-0.003	0.0022	0.0022	5.3
0	-0.0015	0.0015	0.003	5.3
-0.0038	-0.0008	0.0015	0.0015	5.3
-0.0068	-0.0023	0.003	-0.0015	5.3
-0.0053	-0.0015	0.0015	-0.003	5.3
-0.0053	-0.0023	0.003	-0.0053	5.3
-0.0038	-0.0023	0.0037	-0.0113	5.3
0.0007	-0.0015	0.006	-0.0135	5.3
0.0075	-0.0008	0.0067	-0.012	5.3
0.0112	-0.0008	0.0067	-0.0091	5.3
0.0082	-0.0008	0.0052	-0.0075	5.3
0	-0.003	0.0037	-0.006	5.3
-0.0098	-0.0053	0.0045	-0.003	5.3
-0.0181	0	0.0052	0	5.3
-0.0165	0.0067	0.0082	0.0045	5.3
-0.0143	0.0052	0.0075	0.0067	5.3
-0.0105	0.0052	0.0045	0.0075	5.3
-0.003	0.0015	0.0022	0.0052	5.3
0.0022	-0.0008	0	0.0007	5.3
0.0082	-0.0008	-0.0046	0.0007	5.3
0.0157	-0.0015	-0.0023	-0.0046	5.2
0.0232	-0.0023	0.003	-0.0158	5.1
0.0307	0.0082	0.0082	-0.0203	5.1
0.033	0.018	0.0135	-0.0143	5
0.0277	0.009	0.015	-0.0015	5
0.0195	0.0007	0.0105	0.012	4.9
0.0067	-0.0068	0.0105	0.0127	4.9
-0.003	-0.0158	0.009	0.0022	4.8
-0.0038	-0.0278	0.0045	-0.0083	4.8
-0.0046	-0.0323	0.003	-0.0068	4.7
-0.0046	-0.0203	0.0007	0.003	4.7
-0.0068	-0.0181	0.0007	0.0015	4.6
-0.0083	-0.0135	0.0007	0.0015	4.6
-0.012	0	0.0015	0.0082	4.5
-0.0165	0.0157	-0.003	0.0142	4.5
-0.012	0.0307	-0.0046	0.0195	4.4
-0.0091	0.027	-0.0046	0.0135	4.3
-0.0053	0.0157	-0.0158	0.0015	4.3
-0.0053	0.0082	-0.0218	-0.0091	4.2
-0.0105	0.006	-0.0218	-0.015	4.1
-0.0091	0.0067	-0.0135	-0.0098	4
0.0045	-0.0023	-0.003	-0.0158	3.9
0.021	-0.0046	0.0015	-0.0203	3.8
0.024	-0.0083	0.0097	-0.0128	3.7
0.0232	-0.012	0.012	-0.003	3.6
0.0225	-0.003	0.0037	0.0067	3.6
0.0127	-0.0008	-0.0038	0.0082	3.5
-0.006	-0.0008	-0.0113	0.0127	3.4
-0.0173	0.0007	-0.0203	0.0232	3.3
-0.0143	0.0015	-0.0158	0.0127	3.2
-0.0113	0	-0.0091	-0.0091	3.1
-0.0091	0.003	-0.0053	-0.0195	3
-0.0091	0.0075	0.0037	-0.0256	2.9
-0.0091	0.0067	0.009	-0.0278	2.8
-0.0083	-0.0046	0.0127	-0.027	2.7
-0.0143	-0.0248	0.0105	-0.0256	2.6
-0.0278	-0.0293	0.009	-0.0165	2.5
-0.0346	-0.0248	0.0105	-0.0165	2.5
-0.0195	-0.0233	0.006	-0.0165	2.5
-0.006	-0.0158	0.0037	-0.0105	2.4
0.0015	-0.003	0.0007	-0.0015	2.4
0.0105	0.0037	0.003	0.0022	2.4
0.0127	0.0067	0.0082	-0.003	2.3
0.0142	0.009	0.0037	-0.0008	2.3
0.012	0.0142	0.003	0.012	2.2
0.018	0.0202	0.0015	0.0262	2.2
0.0255	0.0232	0.0045	0.0382	2.2
0.0255	0.0262	0.0127	0.0457	2.2
0.0127	0.027	0.0142	0.0472	2.1
-0.006	0.021	0.015	0.045	2.1
-0.0165	0.0112	0.0112	0.0442	2
-0.021	0.0015	0.009	0.0457	2
-0.0165	-0.0053	0.0052	0.039	1.9
-0.0105	-0.0105	-0.0023	0.0322	1.9
-0.0046	-0.0158	-0.0105	0.0037	1.9
0.0045	-0.0195	-0.0098	-0.0443	1.8
0.0105	-0.0113	-0.0091	-0.057	1.8
0.009	0.0082	-0.0233	-0.0548	1.8
0.0082	0.0127	-0.0368	-0.0533	1.7
0	0.0007	-0.0398	-0.0443	1.7
-0.0083	-0.0158	-0.027	-0.0361	1.6
-0.0128	-0.0225	-0.0158	-0.0233	1.6
-0.0098	-0.0278	-0.0105	-0.0165	1.5
-0.0015	-0.0315	-0.0008	-0.0143	1.5
-0.003	-0.0165	0.0142	-0.015	1.4
-0.0083	-0.0046	0.0322	-0.0143	1.4
-0.0015	-0.0023	0.0465	0.0015	1.3
0.0135	0.0015	0.054	0.0165	1.3
0.0232	0.006	0.0427	0.0195	1.3
0.0255	0.0082	0.0202	0.012	1.2
0.0225	0.0082	0.0067	0.0082	1.2
0.0172	0.012	0.0007	0.0067	1.1
0.0157	0.0127	-0.003	0.0015	1.1
0.0067	0.0142	0.0007	0.0007	1
-0.0015	0.0127	0.0067	0.006	1
-0.0038	0.0067	-0.0053	0.009	0.9
-0.012	0.0022	-0.0315	0.0067	0.9
-0.0188	0.0022	-0.0518	0.0105	0.7
-0.0105	0.003	-0.057	0.0165	0.5
-0.0023	0.0022	-0.045	0.015	0.4
-0.0015	0.0015	-0.0308	-0.0008	0.1
-0.0023	0.0022	-0.0165	-0.03	0
-0.003	0.0022	-0.0053	-0.0525	-0.2
-0.0015	-0.0015	0.0045	-0.042	-0.4
-0.0038	-0.003	0.0195	-0.0083	-0.6
-0.006	-0.0046	0.0247	0.0202	-0.8
-0.0113	-0.0053	0.0202	0.0345	-1
-0.0105	-0.0053	0.0255	0.0315	-1.2
-0.0008	-0.006	0.0307	0.0352	-1.4
0.003	-0.0038	0.0285	0.0315	-1.5
0.0015	-0.0053	0.0232	0.0105	-1.7
0.003	-0.006	0.012	-0.0105	-1.9
0.0037	-0.006	-0.0008	-0.0323	-2.1
-0.003	-0.012	-0.0105	-0.0346	-2.3
-0.006	-0.0068	-0.0046	-0.0278	-2.5
-0.003	-0.0046	0.0082	-0.0165	-2.7
-0.0046	-0.0128	0.012	0.003	-2.9
-0.0038	-0.0091	0.0172	0.0165	-3.1
-0.0038	0.0015	0.0127	0.0307	-3.2
-0.003	0.009	0.0067	0.0345	-3.5
0.0007	0.009	0.0052	0.0157	-3.7
0.009	0.003	0.0015	-0.0091	-3.9
0.0172	-0.0015	0.0015	-0.0203	-4.1
0.0195	0.0007	-0.0015	-0.0181	-4.3
0.0157	0.0007	0.0052	-0.0098	-4.5
0.0135	-0.0015	0.0127	-0.003	-4.7
0.012	-0.0008	0.0082	-0.0053	-5
0.0067	-0.0015	0.009	-0.003	-5.1
0.0022	0.0015	0.0037	-0.0038	-5.4
-0.003	0.0052	-0.0008	-0.0053	-5.5
-0.0068	0.006	0.0007	0.0007	-5.8
-0.0098	0.0052	0.009	0.003	-6
-0.0158	0.0045	0.0142	-0.0008	-6.2
-0.0158	0.0007	0.0075	-0.0083	-6.4
-0.0181	-0.003	-0.0008	-0.0113	-6.6
-0.0181	-0.0008	-0.0053	-0.0105	-6.8
-0.0098	0.0015	0.0045	-0.0091	-7.1
-0.003	0.0052	0.0217	-0.0038	-7.1
0.0052	0.0097	0.0285	-0.0015	-7.1
0.0097	0.0067	0.0202	-0.0008	-7.1
0.009	0.003	0.0112	0.0045	-7.1
0.009	0.0037	0.0082	0.0037	-7.2
0.012	0.0007	0.0045	0.003	-7.2
0.018	-0.0038	0	0.0015	-7.2
0.024	-0.0098	-0.0068	0.0007	-7.2
0.0232	-0.0083	-0.0046	0.0007	-7.2
0.0142	-0.003	0.0082	-0.0015	-7.3
0.0112	-0.0023	0.0142	-0.0008	-7.3
0.0127	0	0.003	0.003	-7.3
0.0097	0.0015	-0.0083	-0.003	-7.3
0.009	0.0022	-0.0068	-0.0023	-7.4
0.0045	0.003	-0.0046	0.003	-7.4
0.0045	0.0037	0.0015	0.0022	-7.4
0	-0.003	0.003	0.003	-7.4
-0.0075	-0.0053	0.0082	0.0052	-7.5
-0.0015	-0.0046	0.0067	0.0067	-7.5
0	-0.0008	0.0037	0.0022	-7.6
-0.003	0.0015	0.0052	-0.0053	-7.5
-0.0083	0	0.0015	-0.003	-7.4
-0.0098	0.0007	-0.0015	-0.006	-7.3
0.0015	-0.0038	-0.0091	-0.0173	-7.2
0.0007	-0.0083	-0.012	-0.0143	-7.2
-0.0098	-0.0068	-0.0105	-0.0091	-7.1
-0.0188	-0.0068	-0.0098	-0.0053	-7
-0.0278	-0.006	-0.0091	-0.0015	-6.9
-0.0346	-0.006	-0.0068	0	-6.8
-0.0323	-0.0046	-0.0068	0.0022	-6.7
-0.0233	0.0022	-0.0105	0.003	-6.7
-0.015	0.0082	-0.012	0.0045	-6.6
-0.0143	0.0067	-0.012	0.0022	-6.5
-0.0173	0.0045	-0.0105	0.0015	-6.4
-0.0158	0.0022	-0.0105	0.003	-6.3
-0.0068	-0.0046	-0.012	0.0007	-6.2
0	-0.0128	-0.0143	0.0015	-6.2
0.0067	-0.0158	-0.0128	0.0022	-6.1
0.009	-0.0053	-0.0083	0.0015	-6
0.0075	0	-0.0068	0.0007	-5.9
0.0045	0	-0.0105	0.0007	-5.9
0.003	0.0045	-0.015	-0.0015	-5.8
-0.0008	0.0022	-0.0143	-0.0023	-5.8
0.0015	0.0037	-0.0068	-0.003	-5.7
0.0127	0	0.0022	-0.0015	-5.7
0.0247	-0.0015	0.006	-0.0015	-5.6
0.0217	0.0007	0.006	-0.003	-5.6
0.009	-0.0015	0.0082	-0.0015	-5.5
0.0052	-0.0023	0.009	-0.003	-5.5
0.003	-0.0023	0.0112	-0.003	-5.4
0.003	-0.003	0.012	-0.003	-5.4
0.0022	-0.003	0.0097	-0.0023	-5.3
0.0007	-0.0023	0.0082	-0.0015	-5.3
0.0037	-0.0015	0.0105	-0.003	-5.2
0.0045	-0.0015	0.0127	-0.0046	-5.2
0.0052	-0.0008	0.0142	-0.0038	-5.1
0.0037	-0.0008	0.015	-0.003	-5.1
0.003	0.0007	0.0142	-0.0015	-5
0.003	0.0015	0.0127	0.0015	-5
0.0015	0.0015	0.0082	0.0007	-5
0.0015	0	0.0082	0.0015	-4.9
-0.0008	0.0015	0.0082	-0.0008	-4.9
-0.0008	0.0015	0.0112	-0.0008	-4.9
-0.003	0.0007	0.009	-0.0015	-4.8
-0.0083	-0.0008	0	-0.0038	-4.8
-0.0091	0	-0.0053	-0.0015	-4.7
-0.0046	0	-0.0083	-0.0008	-4.7
-0.0015	0.0007	-0.0091	0	-4.7
0.0022	0.0007	-0.012	0.0015	-4.6
0.0045	0.0015	-0.0128	0.003	-4.6
0.0015	0.0007	-0.0105	0.0007	-4.5
0	0.0007	-0.0046	-0.0008	-4.5
-0.0015	0.0015	-0.0008	-0.0008	-4.5
0.0007	0.003	0.0015	0.0007	-4.5
0.0037	0.0015	0.0067	0.0007	-4.4
0.0015	0.0022	0.0067	0.0007	-4.4
-0.0046	0.0052	0.009	0	-4.3
-0.0105	0.0045	0.0105	-0.0008	-4.3
-0.0068	0.0015	0.0097	-0.0008	-4.3
0.0022	-0.0008	0.0075	-0.0015	-4.2
0.009	-0.006	0.0052	-0.0023	-4.2
0.009	-0.0105	0.0015	-0.0008	-4.2
0.0037	-0.0091	-0.0068	-0.0015	-4.1
0.0045	-0.0068	-0.0091	0.0015	-4.1
0.0045	-0.0008	-0.0083	-0.0008	-4.1
0.0052	0.0015	-0.0015	0	-4.1
0.0112	0.0007	0.009	-0.0008	-4
0.0105	0.0022	0.0142	-0.0038	-4
-0.0008	0.0007	0.012	-0.0046	-4
-0.012	-0.0015	0.009	-0.0046	-3.9
-0.0158	-0.0015	0.009	-0.0046	-3.9
-0.012	0.0007	0.0157	-0.0046	-3.9
-0.0068	0.0022	0.0217	-0.003	-3.9
-0.0053	0.0037	0.0127	-0.0053	-3.8
-0.0015	0.0007	0.0052	-0.0046	-3.8
-0.0015	-0.0008	0.0007	-0.003	-3.8
0	-0.0008	-0.0038	-0.0015	-3.7
0.006	0	-0.0015	0.0007	-3.7
0.0165	0	0.0007	0	-3.7
0.0187	-0.0008	-0.0068	-0.0008	-3.6
0.0067	-0.0015	-0.012	-0.0023	-3.6
0.003	-0.0038	-0.0135	-0.003	-3.5
0.0007	-0.0046	-0.0188	-0.003	-3.4
-0.003	-0.0015	-0.0188	-0.0015	-3.4
-0.0015	-0.0008	-0.0158	-0.0008	-3.3
-0.0015	0.0007	-0.0105	-0.0015	-3.2
0.0007	0.0007	-0.0068	-0.0015	-3.2
0.0037	0.0015	-0.003	0	-3.1
-0.0008	0.0007	-0.003	-0.0015	-3
-0.0128	-0.0008	0.0037	-0.003	-2.9
-0.021	-0.0015	0.009	-0.003	-2.9
-0.0293	-0.0038	0.0022	-0.0053	-2.8
-0.0293	-0.0053	-0.0023	-0.0046	-2.7
-0.0188	-0.0053	-0.0083	-0.003	-2.7
-0.0091	-0.0053	-0.0075	-0.003	-2.6
0.0015	-0.0015	-0.0068	-0.0015	-2.5
0.0067	-0.0015	-0.006	-0.0008	-2.5
0.0097	-0.003	-0.006	0.0007	-2.4
0.0067	-0.0015	-0.0053	0.0007	-2.3
0.0082	-0.0008	-0.0008	0.0022	-2.3
0.0105	0.0015	-0.0008	0.0037	-2.2
0.0045	0.0015	0.0037	0.0015	-2.1
-0.003	0	0.003	-0.0008	-2
-0.0091	-0.0015	0.003	-0.003	-1.9
-0.0091	-0.0008	0.0045	-0.003	-1.8
-0.0068	-0.0008	0.0015	-0.0038	-1.7
-0.003	-0.0015	0.0037	-0.0046	-1.6
-0.0008	-0.0008	0.0037	-0.003	-1.5
0	-0.0008	0.0037	-0.003	-1.4
-0.0008	-0.0015	0.0045	-0.003	-1.4
0.0007	-0.0008	0.0045	-0.0008	-1.3
0.0015	0.0007	0.003	0.0007	-1.2
0.0007	-0.0008	0.0022	-0.0008	-1.1
0.0015	-0.0008	0.003	-0.0015	-1
0.0022	-0.003	0.0052	-0.003	-0.9
0.0045	-0.0038	0.0067	-0.003	-0.8
0.0067	-0.0008	0.0052	-0.0008	-0.7
0.0097	0.0007	0.0045	-0.0015	-0.6
0.0105	-0.0008	0.0045	-0.0008	-0.5
0.0112	0	0.0082	0	-0.5
0.015	0.0015	0.0082	0.0007	-0.4
0.0105	0.0022	0.012	0	-0.4
0.006	-0.0015	0.012	-0.0008	-0.4
0.0052	-0.006	0.0127	0	-0.3
0.0052	-0.003	0.0165	0.0007	-0.3
0.0045	-0.0023	0.0127	0	-0.3
-0.0046	-0.0038	0.0142	0.0007	-0.2
-0.0068	0.0007	0.0112	0.0007	-0.2
-0.006	0.0007	0.0082	-0.0015	-0.2
-0.0046	-0.0008	0.0045	-0.003	-0.1
0.0007	-0.0015	-0.003	-0.0046	-0.1
0.0007	-0.0015	-0.0053	-0.0053	-0.1
0.0022	0.0007	-0.0053	-0.0068	0
0.0022	-0.0008	-0.0038	-0.0046	0
-0.0008	-0.003	-0.003	0.0015	0
-0.0046	-0.0008	-0.003	0.0022	0
-0.0075	0	-0.003	0.0022	0.1
-0.0075	0.0007	-0.006	0.0037	0.1
-0.0053	0	-0.0053	0.0015	0.1
-0.0046	0	-0.0091	0.003	0.2
-0.0068	0.0015	-0.0195	0.003	0.2
-0.0075	0.0007	-0.0195	0.0007	0.2
-0.0068	0	-0.0181	-0.0008	0.3
-0.006	0.0015	-0.0158	-0.0023	0.3
-0.0046	0	-0.0068	-0.0023	0.3
-0.003	-0.0008	-0.0015	-0.003	0.3
-0.0008	0	0.0037	-0.0023	0.4
-0.0015	-0.0008	0.0052	-0.0008	0.4
0.0007	0	0.003	0.0022	0.4
0	0.0007	0	0.0045	0.4
-0.0023	-0.0008	0.0015	0.0022	0.4
0	-0.0015	0.0052	0.003	0.5
0.0007	-0.0008	0.0105	0.003	0.5
0.003	0	0.0097	0.0015	0.5
0.0052	-0.0008	0.0067	-0.0015	0.5
0.0045	0.0015	0.009	-0.0046	0.6
0.0052	0	0.0112	-0.0046	0.6
0.0082	0.0007	0.0135	-0.0053	0.6
0.0082	0.0015	0.0142	-0.006	0.6
0.0075	-0.0008	0.0142	-0.0053	0.7
0.006	0	0.0052	-0.0053	0.7
0.0015	0	0	-0.0046	0.7
-0.0015	-0.0008	-0.003	-0.0008	0.8
-0.0023	0	-0.0046	0	0.8
0	0.0015	-0.0015	0.0007	0.8
0	0.0007	-0.0038	0.0007	0.8
-0.0015	0.0007	-0.0015	0.0015	0.8
0.0022	0.0015	0.003	0	0.9
0.003	0	0.0015	-0.0008	0.9
0.0007	0	-0.0008	-0.0015	0.9
-0.0015	-0.0008	0	-0.0023	0.9
-0.003	0	0	-0.0008	0.9
-0.0023	0.0007	-0.0008	-0.0015	1
0	0.0007	0.0015	-0.0008	1
0.0037	0.0015	0.0022	0.0015	1
0.0015	-0.0015	0.006	0	1
0	-0.0015	0.0127	-0.0008	1
0.0015	-0.0015	0.0082	-0.0008	1.1
0.003	-0.0015	0.0007	-0.0015	1.1
0.0037	-0.0015	-0.003	-0.0008	1.1
0.0037	-0.0023	-0.0083	-0.0008	1.2
0.0045	-0.0015	-0.0068	-0.0015	1.2
0.0015	0	-0.0053	-0.0015	1.2
0.0015	-0.0008	-0.0046	-0.0023	1.3
0.0022	-0.0023	0	-0.0015	1.3
0.0007	-0.0023	0.0015	-0.0023	1.3
-0.0008	0	0.0015	-0.0008	1.4
-0.0023	0	0.0052	-0.0008	1.4
-0.0015	-0.0023	0.0097	-0.0015	1.4
-0.0053	0	0.0052	0	1.5
-0.006	0.0007	0.003	0.0007	1.5
-0.0015	0.0007	0.0067	0	1.6
0.0007	0.0007	0.0075	-0.0023	1.6
0.0007	-0.0015	0.0082	-0.003	1.6
0.0007	-0.0023	0.0082	-0.003	1.7
0	-0.0023	0.009	-0.003	1.7
0.0022	-0.003	0.0075	-0.0023	1.8
0.0045	-0.003	0.006	-0.0023	1.8
0.0045	-0.0015	0.006	-0.0023	1.8
0.0045	-0.0008	0.006	-0.0015	1.8
0.0052	0.0007	0.0052	-0.003	1.9
0.003	0.0015	0.0052	-0.003	1.9
0.003	0.0007	0.0075	-0.0038	2
0.0045	0.0007	0.0052	-0.003	2.1
0.003	0.0007	0.0052	-0.0015	2.1
0	0.0007	0.0045	-0.0023	2.2
-0.003	0.0007	0.0022	-0.0015	2.2
-0.0068	-0.0008	0.003	-0.0023	2.3
-0.0068	0.0007	0.0015	-0.0008	2.3
-0.0046	0.0015	0.0015	-0.0008	2.4
-0.0023	0.0007	-0.0008	0.0007	2.5
-0.0008	0.0015	-0.0008	0.0007	2.5
-0.0008	0.003	0.0015	-0.003	2.6
-0.0008	0.0015	-0.0008	-0.003	2.6
-0.0008	0.0022	0	-0.003	2.7
-0.0008	0	0.0007	-0.0023	2.7
0.0007	-0.0023	0.0007	-0.0015	2.8
-0.0008	-0.0023	0.0007	-0.0015	2.9
-0.0015	-0.003	-0.0008	-0.003	2.9
-0.0023	-0.003	0.0007	-0.0068	3
-0.0008	-0.0046	0.0015	-0.0053	3
0	-0.003	0	-0.0008	3.1
-0.0023	-0.0015	0.0007	0.003	3.1
-0.0008	-0.0038	0.0015	0.0015	3.2
0	-0.003	0.0022	-0.006	3.2
0	-0.0015	-0.0008	-0.0143	3.3
0.0015	-0.0015	-0.0015	-0.0158	3.4
0.0007	0.0015	-0.0038	-0.0098	3.4
0	0.0007	-0.003	0	3.5
-0.0015	-0.0015	-0.003	0.0105	3.6
-0.0008	0.0007	-0.0038	0.0187	3.6
-0.0008	0.003	-0.003	0.0315	3.6
-0.003	0.003	-0.003	0.0427	3.7
-0.0038	0.0015	-0.0008	0.0315	3.7
-0.0023	-0.0015	-0.0023	0.012	3.8
-0.003	-0.006	-0.0015	0	3.9
-0.003	-0.0053	0	-0.0068	3.9
0	-0.003	0	-0.0091	4
0	-0.0038	0	0.0105	4
-0.0015	-0.003	0.0007	0.0202	4.1
-0.0023	-0.003	-0.0008	-0.0105	4.1
-0.0023	-0.006	-0.003	-0.0361	4.2
-0.003	-0.0068	-0.0023	-0.0473	4.2
-0.003	-0.0046	-0.0015	-0.0383	4.3
0	-0.0008	-0.0023	-0.024	4.3
-0.0008	0.0007	-0.003	-0.0195	4.4
0.0015	0.0007	-0.0015	-0.0135	4.4
0.0007	0.0015	-0.0015	-0.0165	4.5
-0.0008	-0.0008	-0.0015	-0.0128	4.5
-0.0008	-0.0015	-0.0015	-0.012	4.5
-0.003	-0.0023	-0.003	-0.0143	4.5
-0.0023	-0.0023	-0.0046	-0.0105	4.6
-0.0008	0.0007	-0.003	-0.0015	4.6
-0.0008	0.0052	-0.0023	0.0105	4.7
-0.0015	0.0052	0	0.0202	4.7
-0.0008	0.0045	0.003	0.0337	4.8
0.0007	0.0015	0.0022	0.036	4.8
-0.0015	0	0.0015	0.0262	4.9
-0.0015	-0.0008	0.0007	0.0202	4.9
-0.0015	-0.003	0.0007	0.0202	4.9
-0.0015	-0.0008	0.0007	0.0217	5
0	0.0015	0.0015	0.012	5
0.0007	0.0022	0.0015	-0.0015	5.1
0.0007	0.003	0.0022	-0.0128	5.1
0.0015	0.003	0.0015	-0.0203	5.2
0.0022	0.0015	0.0015	-0.0203	5.2
0.0037	0.0015	-0.0008	-0.0181	5.3
0.003	0.0007	-0.0008	-0.0165	5.3
0.0015	0.0007	-0.0008	-0.0181	5.3
0.0022	0.0007	-0.0008	-0.0135	5.4
0.0015	0	0.0007	-0.006	5.4
0.0007	-0.0015	0	0.0007	5.4
-0.0008	-0.0023	-0.0008	0.0037	5.5
-0.0023	-0.0053	-0.0046	0.0045	5.5
-0.003	-0.0068	-0.0038	0.009	5.6
-0.003	-0.003	-0.0038	0.0105	5.6
-0.003	-0.0038	-0.0038	0.0082	5.7
-0.0038	-0.006	-0.0038	0.0007	5.7
-0.0023	-0.006	-0.003	-0.0053	5.8
-0.0008	-0.003	0	-0.0053	5.8
-0.0008	-0.0008	0.0015	-0.0128	5.8
-0.0008	-0.0023	0.0007	-0.0248	5.8
-0.0008	-0.0015	0.0045	-0.0315	5.9
-0.0008	-0.0008	0.0082	-0.0278	5.9
-0.0008	-0.0008	0.0045	-0.0083	6
0.0007	0	0.0045	0.0157	6
0.0007	-0.0023	0.003	0.024	6
-0.0008	-0.0053	0.0015	0.0165	6.1
-0.0008	-0.0053	0.0015	0.0082	6.1
0	-0.0008	0.0022	0.0075	6.1
-0.0015	0.0007	0.003	0.0045	6.2
-0.0008	0	0.0045	0.003	6.2
0.0015	0.0022	0.0045	0.003	6.2
0.0045	0.003	0.0015	0.0067	6.3
0.0037	0.0037	0.003	0.0105	6.3
0.003	0.0022	0.0022	0.0067	6.3
0.003	0.0015	0.0007	0.0075	6.3
0.0015	-0.0015	0.0007	0.0127	6.4
-0.0015	0	-0.0023	0.0157	6.4
-0.0083	0.003	-0.0023	0.0045	6.4
-0.0068	-0.0008	0.0007	-0.0023	6.5
-0.0015	-0.0023	0.0037	0.0007	6.5
0.003	-0.0068	0.0037	0.0052	6.6
0.0052	-0.006	0.0045	0.0007	6.6
0.0007	-0.0053	0.0075	-0.0113	6.6
-0.0046	-0.003	0.012	-0.012	6.7
-0.0038	-0.0008	0.0187	-0.012	6.7
0.0007	0	0.0187	-0.0143	6.7
0.006	0.0015	0.009	-0.024	6.8
0.009	-0.0015	-0.0015	-0.033	6.8
0.0135	0.0015	-0.0068	-0.0218	6.8
0.0195	0.0067	-0.0068	-0.0098	6.9
0.015	0.0045	-0.0015	-0.0053	6.9
0.0045	0.0015	0.0015	-0.003	7
-0.0008	-0.0015	0.0045	-0.003	7
-0.0068	-0.0083	0.0007	-0.0038	7.1
-0.0038	-0.0053	-0.0046	-0.0008	7.1
-0.0046	-0.0015	-0.0053	-0.0008	7.1
-0.0113	-0.0008	-0.003	-0.0008	7.2
-0.0068	0.0007	0.0007	0.0015	7.2
-0.0053	-0.0008	-0.0008	0.003	7.2
-0.0023	0.0015	-0.0023	0.0067	7.2
0	0.0015	-0.0008	0.0112	7.3
0.0007	0.003	0.0007	0.0105	7.3
0	0.0015	0.003	0.0067	7.4
-0.003	0	0.0037	0.0067	7.4
-0.0015	0.0015	0.0022	0.0067	7.4
-0.0015	0.0022	0.0007	0.0015	7.5
-0.0008	0.0007	0	-0.0038	7.5
0	-0.0023	0.0007	-0.0053	7.6
0.0015	-0.0015	-0.0015	-0.0083	7.6
0	-0.0008	-0.0015	-0.012	7.6
-0.0015	0	-0.0015	-0.0143	7.6
-0.0015	0.0007	0.0007	-0.0091	7.6
-0.0008	0.003	0.003	-0.0023	7.7
0.0015	0.0015	0.0015	0.0007	7.7
0.0007	0.0007	0.0022	0.012	7.8
0.0015	0.0015	0.0007	0.0187	7.8
0.0007	0.0015	0.0022	0.015	7.8
0.0007	0.0022	0.003	0.0105	7.9
0	0.0022	0.0015	0.0067	7.9
0.0007	-0.0023	0.0015	-0.0015	7.9
0.0037	-0.0068	0.0007	-0.0068	7.9
0.0007	-0.003	0.0022	-0.0083	8
0.0007	-0.0008	0.0022	-0.0105	8
0	-0.0023	0.0015	-0.0143	8
-0.0023	-0.0046	0.0045	-0.0165	8
-0.0015	-0.0068	0.0052	-0.0128	8.1
-0.0008	-0.003	0.0037	-0.0046	8.1
-0.0008	-0.0015	0.003	-0.0008	8.1
-0.0008	0.0007	0.0045	0	8.1
-0.0008	0.0015	0.0045	0.0045	8.1
-0.0008	-0.0008	0.003	0.0082	8.1
-0.0015	-0.0008	0.0007	0.0052	8.1
-0.0008	0	0.003	0.0075	8.2
0	0.0007	0.0037	0.0105	8.2
0.0007	0.0007	0.0045	0	8.2
0.0007	-0.0008	0.0052	-0.0046	8.2
0.0007	0	0.003	-0.0068	8.3
0.0007	-0.0015	0	-0.0083	8.3
-0.0015	-0.0015	-0.0038	-0.0008	8.3
-0.0038	-0.0023	-0.0075	-0.0008	8.3
-0.0053	-0.0023	-0.0128	-0.0015	8.3
-0.0068	-0.0015	-0.0135	-0.0046	8.3
-0.0053	-0.003	-0.012	-0.0038	8.2
-0.0053	-0.003	-0.0091	-0.0015	8.2
-0.003	-0.003	-0.0023	-0.003	8.2
0	-0.0053	-0.0008	-0.0075	8.2
0.0015	-0.0053	0.0045	-0.012	8.2
0.0015	-0.0046	0.0082	-0.0068	8.2
0.003	-0.0008	0.0105	0.0022	8.2
0.006	0.0067	0.0135	0.012	8.1
0.0045	0.0105	0.009	0.0172	8.1
0.0037	0.0075	0.0067	0.0097	8.1
0.0015	0.0015	0.0015	0.0037	8.1
0	-0.0015	-0.0015	0.0052	8.1
0	0.0022	0.0007	-0.0015	8.1
-0.0008	0.0007	0.003	-0.0068	8.1
0.0007	-0.0015	0.0052	-0.0046	8.1
0.0015	0	0.0045	-0.0046	8
0.0015	-0.0015	0.0052	-0.0083	8
0.0007	-0.0015	0.009	-0.0068	8
0	-0.0008	0.009	-0.0015	8
0.0015	-0.0023	0.0082	0.0007	8
0.0015	-0.0046	0.0082	0.003	8
0.0015	-0.0023	0.0082	0.0015	7.9
0.003	-0.0008	0.0075	-0.0015	7.9
0.0015	-0.0015	0.0067	-0.0083	7.9
0.0015	-0.0023	0.003	-0.0083	7.9
0.0007	-0.0008	-0.0008	-0.006	7.8
-0.0008	-0.0008	0.0015	-0.0053	7.8
-0.0023	-0.0015	0.003	-0.006	7.8
-0.0015	0.0007	0.0045	-0.006	7.8
-0.0008	0	0.0075	-0.003	7.8
-0.0008	-0.0015	0.003	0.0007	7.7
0	0.0007	0	0.003	7.7
-0.0015	0.0007	-0.0046	-0.0008	7.7
-0.0023	-0.0008	-0.0046	-0.0046	7.7
-0.0038	-0.0015	-0.003	-0.003	7.6
-0.0046	-0.003	-0.0053	-0.0046	7.6
-0.0053	-0.0046	-0.0038	-0.0053	7.6
-0.0038	-0.003	-0.0008	-0.0046	7.6
-0.0015	-0.0038	-0.0038	-0.003	7.6
-0.003	-0.003	-0.003	-0.0015	7.5
-0.003	-0.003	-0.0015	0.003	7.5
-0.0008	0.0045	-0.0008	0.012	7.5
-0.0015	0.0142	0.0015	0.0165	7.4
-0.0023	0.012	0.0045	0.009	7.4
0.0007	0.0015	0.0045	0.0022	7.4
0.0022	0.0007	0.003	0.0015	7.3
0.0045	0.0007	0.003	0.0007	7.3
0.003	-0.0015	0.0015	-0.0008	7.3
0.0037	-0.0008	0.0007	-0.0008	7.2
0.0045	-0.0015	0.0022	-0.003	7.2
0.0007	-0.0015	0.0007	-0.0053	7.2
-0.0015	-0.0008	-0.0023	-0.0083	7.2
-0.003	-0.0015	-0.0038	-0.0083	7.1
-0.003	-0.003	-0.003	-0.0075	7.1
-0.0008	-0.0046	-0.003	-0.0046	7.1
0	-0.0046	-0.0015	-0.003	7
-0.0008	-0.0046	-0.0008	-0.003	7
-0.0008	-0.0038	-0.0008	-0.0015	7
0.0015	-0.0015	0.0007	-0.0023	6.9
0	-0.0008	-0.0008	-0.0023	6.9
-0.0015	-0.0015	0	-0.003	6.9
-0.0015	-0.0015	0	-0.003	6.8
-0.0023	-0.0008	-0.0023	-0.0023	6.8
-0.0023	-0.0008	-0.0015	-0.0015	6.8
0	0.0007	-0.0015	0.0007	6.7
0.0007	0.0007	-0.0008	-0.0008	6.7
0.0015	-0.0008	0.0015	-0.0008	6.7
0.0015	-0.0008	0.0007	-0.0008	6.7
0.0015	0.0007	0.0007	0.0015	6.7
0.0015	0.0015	0.0015	0.0015	6.6
0.0015	0.0007	0.0015	-0.0008	6.6
0.0007	0	0.003	0	6.6
0.0007	0.0007	0.003	-0.0008	6.5
0.0045	0.0015	0.003	-0.0023	6.5
0.003	0.0022	0.0022	-0.003	6.5
0.003	0.0037	0.003	-0.0046	6.4
0.0037	0.003	0.0022	-0.0038	6.4
0.0007	-0.0008	0.0007	-0.0008	6.3
0.0007	-0.0015	0.003	0.003	6.3
0.0015	-0.0046	0.0015	0.0037	6.3
0.0007	-0.0053	0.0022	0.003	6.3
0	-0.0053	0.0007	0.0052	6.2
-0.0008	-0.0083	-0.0008	0.0045	6.2
0	-0.0075	0	0.0007	6.1
0.0007	-0.0075	0.0015	-0.006	6.1
0	-0.0053	0.003	-0.0046	6
-0.0008	-0.003	0.0022	-0.003	6
0.0007	0.0007	0.0045	-0.0053	6
0.0007	0.0045	0.0037	-0.0053	5.9
0	0.009	0.0015	-0.003	5.9
0	0.0075	0.0022	-0.0008	5.8
-0.0008	0.0007	0.0022	-0.0015	5.8
-0.0008	-0.0008	0.006	0.0007	5.8
-0.0008	-0.0023	0.0045	0.003	5.8
-0.0015	-0.0023	0.0007	0.0037	5.7
-0.003	-0.0015	0.0015	0.003	5.6
-0.0015	-0.003	0.0007	-0.0008	5.6
0	-0.003	0	-0.0053	5.6
0.0015	-0.0046	0	-0.0046	5.5
0.0015	-0.0015	-0.0008	-0.0023	5.5
0.0007	-0.0008	-0.0015	-0.0023	5.4
0.0015	0	-0.0015	-0.0015	5.4
0.003	-0.0008	0.0007	-0.0015	5.3
0.003	-0.0015	0.0022	-0.0008	5.3
0.0007	0.0007	0.003	-0.0023	5.3
0	0.0007	0.0045	-0.0046	5.2
0.0007	0.0015	0.0037	-0.0038	5.2
0.0015	0.0037	0.003	-0.0015	5.1
-0.0008	0.0015	0.0045	0.0007	5.1
-0.0008	0.0015	0.003	0	5
0.0007	-0.0008	0.0052	0.0015	5
0	-0.0015	0.003	0.0045	4.9
0.0007	0.0037	0.0015	0.009	4.9
0.003	0.0067	0.0037	0.0112	4.9
0.003	0.0052	0.0022	0.006	4.8
0.0015	-0.0023	0.0045	-0.0023	4.7
0.0015	-0.0053	0.003	-0.0083	4.7
0	0	0.0015	-0.0158	4.7
-0.0015	-0.0053	0.003	-0.0248	4.6
0.0007	-0.0075	0.0052	-0.0256	4.5
0.0007	-0.012	0.0052	-0.021	4.5
-0.0008	-0.0143	0.0052	-0.0181	4.5
-0.0038	-0.0158	0.0015	-0.0023	4.4
-0.0046	-0.0128	-0.003	0.021	4.3
-0.0046	-0.006	-0.0015	0.0315	4.3
-0.0053	-0.003	-0.003	0.0352	4.2
-0.0023	0.015	-0.0015	0.0277	4.2
0.0007	0.024	0.0007	0.0105	4.1
0	0.0157	-0.0008	0.0045	4
-0.0015	0.009	-0.0008	0.0015	4
0	0.0022	0	-0.0053	4
0	0.0007	0	-0.012	3.9
0.0007	-0.0015	0.0007	-0.0203	3.9
0.0015	-0.0015	0.0015	-0.0181	3.8
0.0007	-0.0008	0.0015	-0.0068	3.7
0.0007	-0.0008	0.0037	-0.006	3.6
-0.0008	-0.0083	0.0022	0.0007	3.6
-0.0015	-0.0218	-0.0008	0.0142	3.6
-0.0008	-0.0233	-0.0023	0.018	3.5
0	-0.0113	-0.0023	0.0165	3.5
-0.0008	-0.0091	-0.0046	0.0202	3.4
-0.0008	-0.012	-0.0038	0.0067	3.3
-0.003	-0.0158	-0.0023	-0.0143	3.3
-0.0023	-0.0218	-0.0008	-0.0195	3.2
-0.0015	0.0052	-0.0008	-0.0128	3.1
0	0.0652	-0.0008	-0.0098	3.1
0.0007	0.078	0.0022	-0.0293	3
0	0.027	0.0045	-0.039	3
0.0007	-0.0046	0.0045	-0.0263	2.9
-0.0008	-0.0038	0.0037	-0.012	2.8
0	-0.0053	0.003	-0.0038	2.8
-0.0008	-0.003	0.0037	-0.0015	2.7
0.0007	-0.0038	0.0052	0.0007	2.6
0.0015	-0.003	0.0067	0.0015	2.6
0.0007	-0.0015	0.006	-0.0008	2.5
-0.0008	-0.0046	0.0067	-0.0038	2.4
-0.0008	0	0.006	-0.0075	2.4
0.003	-0.0008	0.0052	-0.0098	2.3
0.0022	0.0007	0.0022	-0.0083	2.3
0.003	0.0015	0.0015	-0.0015	2.2
0.0007	-0.0008	0.0015	0.0067	2.2
-0.0015	-0.0015	0.0015	0.0105	2.1
0	-0.0038	0.0007	0.0127	2.1
-0.0015	-0.0053	0	0.0255	2
0	-0.0023	0.0007	0.036	1.9
0.0007	-0.0008	0.0007	0.0367	1.9
-0.0015	-0.0053	0.0007	0.024	1.8
0.0007	-0.0091	0.0015	0.0037	1.8
0	-0.0135	0.0007	-0.0053	1.7
-0.0015	-0.0113	-0.0008	-0.0105	1.7
0.0007	-0.0075	0.0007	-0.0098	1.6
-0.0008	-0.0083	-0.0008	-0.0105	1.5
0	-0.0083	-0.0008	-0.0091	1.5
0.0015	-0.0083	0.0015	-0.0091	1.4
0.0007	-0.0083	0.003	-0.0105	1.3
0.0007	-0.0068	0.003	-0.0038	1.3
-0.0008	-0.0038	0.0045	-0.0015	1.3
-0.0008	-0.0015	0.003	-0.003	1.2
0	-0.0008	0.0007	-0.003	1.1
-0.0008	0.0007	0.0015	-0.006	1.1
0.0007	-0.0023	0	-0.0083	1
0.0015	-0.0053	0	-0.0165	0.9
0.0015	-0.0105	0.0007	-0.0203	0.9
0.0022	-0.0091	0.0007	-0.0165	0.8
0.0015	-0.0053	0.0007	-0.0158	0.8
0.0015	-0.006	0.0007	-0.012	0.7
-0.0008	-0.003	0.0007	0.003	0.6
0	0.0007	0.0007	0.018	0.6
0.0007	0.0067	0.0015	0.027	0.5
-0.0008	0.0277	-0.0008	0.0457	0.4
0.0007	0.054	-0.0008	0.0607	0.4
0	0.0315	0.0015	0.0367	0.3
-0.0015	-0.003	0.0015	0.0142	0.3
-0.0015	-0.0053	-0.0015	0.006	0.2
-0.003	-0.0135	-0.0008	-0.0128	0.1
-0.0038	-0.0165	-0.0023	-0.0443	0
-0.003	-0.0233	-0.0046	-0.0645	0
-0.003	-0.0323	-0.0053	-0.0578	0
-0.003	-0.0293	-0.0053	-0.0436	-0.1
-0.0038	-0.0143	-0.0015	-0.0256	-0.2
-0.0015	0.0082	0.0007	-0.0091	-0.3
-0.0008	0.0105	0.0015	0.0045	-0.4
-0.0008	0.015	0.0037	0.0075	-0.4
0.0015	0.0217	0.0045	0.0157	-0.5
0.0007	0.0405	0.0037	0.0277	-0.5
0.0007	0.018	0.0015	0.0127	-0.6
0.0007	-0.0346	0.0007	0.0007	-0.7
0	-0.024	0.0022	-0.0038	-0.8
0	-0.0158	0.0015	-0.0046	-0.9
-0.0015	-0.0113	-0.0008	0.003	-0.9
-0.0015	0.0157	-0.0008	0.0105	-1
-0.0015	0.0442	-0.0015	0.0067	-1.1
-0.0008	0.0472	-0.003	-0.0023	-1.1
-0.0008	0.0285	-0.003	-0.003	-1.2
-0.0015	0.0232	-0.003	-0.0053	-1.3
-0.0015	-0.0083	-0.003	-0.0105	-1.4
-0.0023	-0.0181	-0.0046	-0.0105	-1.4
-0.0015	-0.0135	-0.0053	-0.0091	-1.5
-0.0015	-0.0165	-0.0046	0.0067	-1.7
0	0.0007	0	0.0382	-1.8
0.0015	-0.0008	0.0037	0.0675	-1.8
0.0007	0.0067	0.0037	0.0667	-1.9
-0.0008	0.0127	0.0037	0.0292	-2
0.0007	0.0097	0.0045	-0.0158	-2.2
0.0007	-0.012	0.003	-0.0458	-2.3
0.0015	-0.0308	0.0045	-0.0691	-2.3
0	-0.0203	0.0052	-0.0721	-2.4
0.0007	-0.0203	0.0045	-0.0608	-2.5
0.0015	-0.0158	0.0015	-0.0638	-2.7
-0.0015	-0.021	0.0015	-0.0458	-2.7
-0.0008	-0.0278	0.003	-0.0105	-2.8
0	-0.0218	0.0022	0.0052	-2.9
-0.0008	-0.0008	0.0015	0.039	-3
0.0007	0.021	0.003	0.06	-3.2
0.0015	-0.0091	0.0045	0.0547	-3.2
0.0022	-0.0165	0.0045	0.0862	-3.4
0.0007	0.012	0.0007	0.0675	-3.4
0.0007	-0.0091	0.0007	0.006	-3.6
0.0015	-0.0293	0.0037	-0.0233	-3.6
0.0015	-0.0188	0.0037	-0.0308	-3.7
0.0022	0.0202	0.003	0.0015	-3.9
0.0022	0.0885	0.0015	0.0112	-4
0.0022	0.0735	0.0007	-0.003	-4.1
0.0007	-0.0075	-0.0008	-0.0256	-4.2
-0.0008	-0.0128	-0.0008	-0.039	-4.3
0	-0.0008	0.0015	-0.0135	-4.4
-0.0015	-0.0181	0.0015	0.0187	-4.5
-0.003	-0.012	0.0015	0.0105	-4.6
-0.0023	-0.0218	-0.0015	-0.0105	-4.7
-0.0008	-0.0375	0.0022	0.0337	-4.8
0.0007	0.0045	0.003	0.0675	-4.9
0	0.0082	0	0.0427	-5
0.0015	-0.0353	0.003	0.0067	-5.1
0.0015	-0.0233	0.0007	-0.0256	-5.2
0.0007	-0.0105	0.0015	-0.039	-5.4
0.0007	0.0367	0.0015	-0.0181	-5.5
-0.0015	0.081	0.0015	-0.0128	-5.6
-0.003	0.0397	0.0007	-0.0405	-5.7
-0.0053	0	0.0007	-0.0375	-5.8
-0.0023	0.0105	0.0045	-0.0218	-5.9
-0.0008	0.0232	0.006	0.0022	-6.1
-0.0015	-0.0053	0.0045	0.018	-6.2
-0.003	-0.0105	0	0.003	-6.3
-0.0053	-0.0038	-0.0046	-0.0188	-6.4
-0.0053	-0.0225	-0.0023	-0.0383	-6.6
-0.0046	-0.0293	-0.0008	-0.0353	-6.7
-0.003	-0.0293	-0.0008	-0.0188	-6.8
-0.0008	-0.0233	-0.0008	-0.0135	-7
0	0.0015	0.0015	-0.006	-7.1
0.0015	0.039	0.0022	0.0127	-7.2
0.0015	0.0367	0.003	0.0135	-7.3
0.0007	0.0052	0.0037	-0.0008	-7.5
0	-0.0053	0.003	-0.0083	-7.6
-0.0008	-0.0203	0.0015	0.0052	-7.7
-0.0008	-0.0203	0.0022	0.0262	-7.8
-0.0008	0.018	0.0037	0.0165	-8
0.0015	0.0427	0.0022	-0.0128	-8.1
0.0015	-0.0098	0.0015	-0.0188	-8.3
0.0022	-0.0728	0.0007	-0.0203	-8.5
0.0015	-0.0691	-0.0008	-0.0053	-8.6
-0.0023	-0.0165	0	0.0015	-8.8
-0.0008	0.024	0.0015	-0.0046	-8.9
-0.0015	-0.0203	0.003	-0.015	-9
-0.0015	-0.0473	0.003	-0.0533	-9.2
0.0007	-0.0203	0.0045	-0.0361	-9.4
-0.0008	-0.0023	0.0037	-0.0091	-9.5
-0.0008	0.0067	0.0015	-0.0158	-9.7
-0.0008	-0.0203	0.0007	-0.0068	-9.9
0	-0.003	-0.0008	0.0487	-10
0.0022	0.0892	0.0022	0.1207	-10.2
0.003	0.0855	0.003	0.0907	-10.4
0.003	0.0022	0.0045	0.0555	-10.5
0.0045	0.0097	0.0045	0.063	-10.6
0.0045	0.0315	0.0037	0.0337	-10.8
0.003	0.0367	0.0052	0.0202	-10.9
0.0022	0.0172	0.003	-0.0038	-11.2
0.0022	-0.024	0.0015	-0.0233	-11.3
0	-0.0083	-0.0008	-0.0188	-11.5
-0.0008	-0.0091	-0.0008	-0.0181	-11.7
-0.0015	0.0007	-0.0015	-0.0315	-11.9
-0.0015	0.006	-0.0023	-0.0593	-12.1
0	-0.0068	0	-0.0495	-12.2
-0.0008	0.0052	-0.0008	-0.0143	-12.4
-0.0008	0.009	0.0015	-0.0023	-12.6
0.0007	0.0112	0.0022	0.0097	-12.8
0.0007	0.0082	0.003	0.0217	-13
0.0007	-0.0008	0.0007	-0.0143	-13.2
-0.0015	-0.0046	-0.003	-0.0173	-13.4
-0.0008	0.0007	-0.0015	0.009	-13.5
0.0015	0	-0.0008	0.0142	-13.7
0.0015	-0.003	0	0.0142	-13.9
0.0007	-0.006	0.0007	-0.0068	-14.1
0.0007	-0.0218	-0.0008	-0.0195	-14.3
0.0007	-0.048	-0.0038	-0.0315	-14.5
-0.0015	-0.0495	-0.0015	-0.0338	-14.7
0.0007	-0.027	0	-0.0285	-14.9
0.0015	-0.0181	-0.0008	-0.0143	-15.1
0.0015	0.0007	0.0007	0.0067	-15.3
0.0015	0.0135	-0.0023	0.0105	-15.5
0	-0.0015	0	0.018	-15.8
0.0022	-0.0053	0.0015	0.012	-16
0.0015	-0.0053	0.0007	0.0082	-16.2
0	-0.0105	0.0007	-0.0046	-16.4
-0.0015	-0.0053	-0.003	-0.0308	-16.6
-0.003	-0.0046	-0.003	-0.0368	-16.8
-0.0015	0.0022	-0.0023	-0.0195	-17.1
-0.0008	0.0007	-0.0015	-0.012	-17.3
-0.0008	-0.0015	-0.003	-0.0105	-17.5
0.0007	0.0015	-0.0046	-0.0015	-17.7
-0.0008	0.0007	-0.0046	-0.0008	-18
-0.0008	0	-0.0046	0.0037	-18.2
-0.0008	-0.0008	-0.003	0.0105	-18.4
0	0.0015	-0.0015	0.0225	-18.6
0.0015	0.0015	0.0015	0.0277	-18.8
-0.0008	0.0007	0.003	0.0292	-19
-0.0015	0.0052	0.0037	0.0202	-19.3
-0.0008	0.0007	0.0052	-0.0046	-19.5
0	-0.0128	0.0052	-0.012	-19.8
0	-0.0128	0.0052	-0.0015	-20.1
0	0.0007	0.006	0.0097	-20.3
0.0015	0.0015	0.0052	0.0045	-20.6
0.0007	-0.0165	0.003	0.0015	-20.9
0	-0.0068	0.0037	0.0037	-21.2
0.0007	0.0187	0.0022	-0.0015	-21.4
-0.0008	0.0225	0.0022	0.0007	-21.7
0	0.0225	0.0045	-0.0105	-22
0.0007	0.009	0.0052	-0.027	-22.2
0	-0.0068	0.0075	-0.027	-22.5
-0.0008	-0.0053	0.0082	-0.0143	-22.8
-0.0008	-0.0015	0.006	-0.006	-23
0	-0.0023	0.0052	-0.0015	-23.3
-0.0015	-0.0046	0.006	0.0007	-23.6
-0.0015	-0.0143	0.0067	0.0015	-23.9
-0.0015	-0.015	0.0075	0.0067	-24.1
-0.0008	-0.0068	0.0067	0.0067	-24.4
0.0007	-0.0015	0.0082	0.0037	-24.7
0.0007	0.0052	0.0082	0.006	-25
0.003	0.0262	0.0045	0.0142	-25.2
0.0045	0.0637	0.0037	0.015	-25.6
0.0015	0.0427	0.0022	-0.0008	-25.8
0.0015	-0.0046	0.003	-0.0015	-26.1
0.0022	0.0097	0.0037	0.003	-26.4
0.0015	0.0045	0.003	0.0022	-26.7
0.0007	0.0037	0.0015	0.0045	-27
-0.0008	0.0075	0.0015	0.0007	-27.3
-0.0015	-0.0083	0.0007	-0.0068	-27.6
-0.0046	-0.0083	-0.0015	-0.0113	-27.9
-0.0046	-0.0188	0.0007	-0.003	-28.2
-0.0023	-0.0158	0.0007	0.003	-28.5
-0.003	-0.0165	-0.0015	0.0007	-28.8
-0.0008	-0.0158	-0.0008	0	-29.1
0	-0.012	-0.003	-0.0038	-29.3
-0.0015	-0.012	-0.003	-0.0038	-29.6
-0.0008	-0.0053	-0.003	-0.003	-29.9
-0.0023	-0.0046	-0.0053	-0.003	-30.2
-0.003	-0.0015	-0.006	-0.003	-30.6
-0.0046	0	-0.0091	-0.0015	-30.8
-0.0053	0.0022	-0.0113	0.0015	-31.1
-0.0068	0.003	-0.012	0.0045	-31.3
-0.0046	-0.0023	-0.0098	-0.0008	-31.6
-0.003	-0.0046	-0.0083	-0.0068	-31.9
-0.0053	-0.0038	-0.0068	-0.0038	-32.1
-0.0053	-0.003	-0.0068	-0.0068	-32.4
-0.0038	-0.0075	-0.0083	-0.0083	-32.7
-0.0008	-0.006	-0.0053	-0.006	-32.9
-0.0008	-0.0046	-0.0046	-0.012	-33.3
-0.0015	-0.0015	-0.0046	-0.0105	-33.5
0.0007	0.0015	-0.006	-0.0053	-33.8
-0.0015	0.0007	-0.003	-0.0053	-34.1
0.0007	-0.0008	0	-0.0068	-34.3
0.0015	-0.003	-0.0008	-0.0091	-34.6
0.0015	-0.0046	0.0007	-0.0105	-34.9
0.003	-0.006	0.0007	-0.0091	-35.1
0.0022	-0.0098	0.0007	-0.0046	-35.4
0.003	-0.015	-0.003	0	-35.7
0.0007	-0.0015	-0.0015	0.0105	-36
0.0007	0.0142	0.0015	0.0187	-36.2
0.0022	0.0232	0.0015	0.018	-36.5
-0.0008	0.018	0.0015	0.0052	-36.7
0.0007	0.0007	0.0015	-0.0008	-36.9
0.0007	0.0045	0.003	-0.0008	-37.2
0.0015	0.0015	0.006	-0.0015	-37.4
0.003	0.0007	0.0067	0.0015	-37.6
0.0022	0.0052	0.0067	0	-37.8
0.003	0.0015	0.0067	0.0015	-38.1
0.0007	0.003	0.0067	0.0007	-38.3
0.0007	0.0015	0.006	0.0015	-38.6
0.0015	0.0082	0.0045	0.003	-38.8
0.0015	0.009	0.0037	0.0007	-39.1
0.0015	0.0045	0.0015	0	-39.3
0	0.0045	0.0007	0.0007	-39.6
-0.0008	0.0052	0.003	-0.0008	-39.8
-0.0008	0.0082	0.0015	-0.0015	-40
0	0.006	-0.0008	-0.0015	-40.2
-0.0008	0.0007	-0.0008	-0.0015	-40.5
-0.0015	-0.0015	-0.0008	0	-40.8
-0.0008	-0.0023	-0.0023	0.0007	-40.9
-0.0015	-0.0046	-0.0015	-0.0015	-41
-0.003	-0.0091	-0.0015	-0.003	-41.2
-0.003	-0.0105	-0.0015	-0.0046	-41.4
-0.0015	-0.012	0.0007	-0.0053	-41.6
-0.0046	-0.0128	0.0022	-0.0068	-41.8
-0.0015	-0.0128	0.0045	-0.0075	-41.9
0.0007	-0.0113	0.0067	-0.0046	-42.1
0.0022	-0.0091	0.012	0.0007	-42.3
0.0045	-0.003	0.0142	0.003	-42.4
0.0045	-0.0008	0.012	0.0015	-42.6
0.0037	-0.0015	0.012	0.0022	-42.8
0.0022	0.0007	0.012	0.0097	-42.9
0.003	0.003	0.012	0.006	-43.1
0.003	-0.0023	0.0135	-0.003	-43.2
0.0045	-0.0053	0.0172	-0.0068	-43.4
0.0082	-0.0053	0.0202	-0.0068	-43.6
0.0067	-0.0068	0.015	-0.0046	-43.8
0.0045	-0.0068	0.012	-0.0023	-43.9
0.0037	-0.003	0.0135	0.003	-44.1
0.0052	-0.0015	0.0105	-0.0008	-44.2
0.0052	-0.0023	0.0135	-0.0023	-44.3
0.0052	-0.0008	0.0142	-0.0008	-44.5
0.0052	0.003	0.012	-0.003	-44.6
0.006	0.0045	0.0105	-0.0015	-44.7
0.0037	0.0082	0.0105	-0.0015	-44.8
0.0052	0.012	0.012	0.0007	-44.9
0.0082	0.0135	0.0105	0.0015	-45
0.0045	0.012	0.0052	-0.0008	-45.1
0.0022	0.0097	0.0015	-0.0015	-45.3
0.0015	0.012	0.0015	-0.0015	-45.4
-0.0008	0.0157	0.0015	0.0015	-45.5
-0.0008	0.0165	0.0015	0.0045	-45.6
0.0007	0.0157	0.0007	0.0045	-45.7
0.0015	0.0105	0.0007	0.0015	-45.9
0.0015	0.003	0.003	0.0045	-46
0.0022	-0.0046	0.0067	0.0067	-46.1
0.003	-0.0143	0.0067	0.003	-46.2
0.003	-0.0195	0.0045	-0.0023	-46.3
0.0015	-0.0158	0.0037	-0.0091	-46.5
0.0015	-0.0173	0.003	-0.012	-46.5
0.0015	-0.0188	0.0045	-0.0105	-46.6
0.0007	-0.0195	0.0037	-0.0083	-46.7
-0.0015	-0.0203	0.0045	-0.0068	-46.8
-0.0015	-0.0181	0.0045	-0.0053	-46.9
-0.0008	-0.0158	0.0015	-0.0046	-47
-0.0008	-0.0083	0.003	0.0015	-47.1
0.0007	0	0.006	0.0105	-47.2
0.003	0.0052	0.009	0.0082	-47.3
0.0022	0.0082	0.0097	0.0045	-47.3
0.003	0.0097	0.0082	0.0015	-47.4
0.0022	0.009	0.0045	-0.003	-47.5
-0.0008	0.0082	0.0015	-0.0038	-47.6
-0.0015	0.0075	0.0007	-0.0038	-47.7
-0.0023	0.0052	-0.0023	-0.006	-47.7
-0.003	0.003	-0.003	-0.0105	-47.8
-0.0023	0.0007	-0.0053	-0.0128	-47.9
-0.0038	0	-0.0068	-0.0083	-48
-0.0053	-0.0015	-0.0053	-0.0023	-48.1
-0.006	-0.0046	-0.0068	-0.003	-48.2
-0.006	-0.006	-0.0105	-0.0068	-48.3
-0.0083	-0.003	-0.0113	-0.0015	-48.4
-0.0098	-0.0008	-0.0113	0.003	-48.5
-0.0091	0	-0.0091	0.0015	-48.5
-0.0083	-0.0008	-0.0091	0.0007	-48.6
-0.0083	-0.0015	-0.0128	0.0015	-48.7
-0.0083	0.0015	-0.0105	0.0045	-48.8
-0.0068	0.0007	-0.0113	0.0037	-48.9
-0.0068	0.003	-0.012	0.003	-49
-0.0046	0.0045	-0.012	0.0015	-49.1
-0.0046	0.003	-0.012	0.0015	-49.1
-0.0053	-0.0015	-0.0091	0.0007	-49.2
-0.0046	-0.0083	-0.0053	0.0022	-49.3
-0.0015	-0.0015	-0.0046	0.003	-49.4
-0.0008	0.003	-0.0083	0.0007	-49.5
-0.003	0.0007	-0.0083	-0.0008	-49.5
-0.0023	0.003	-0.0083	0	-49.6
-0.003	0.0015	-0.012	0.0007	-49.7
-0.003	0	-0.0105	-0.003	-49.8
-0.0023	-0.0023	-0.0091	-0.0068	-49.9
-0.003	-0.0038	-0.0053	-0.0075	-49.9
0.0015	-0.003	-0.0015	-0.0068	-50
0	-0.0046	0.0007	-0.0046	-50
0.0007	-0.0015	0.0022	-0.003	-50.1
0.0007	-0.0008	0.0015	-0.0015	-50.2
-0.0015	-0.0015	0.0007	-0.0015	-50.2
-0.0008	-0.0008	0.0015	-0.0015	-50.3
0	-0.0015	-0.0008	-0.0008	-50.4
0	-0.0015	-0.003	0.0007	-50.4
-0.0023	0	-0.0015	-0.0015	-50.5
-0.0015	-0.0008	-0.003	-0.0015	-50.5
-0.0008	-0.0023	-0.0015	-0.003	-50.6
-0.0023	-0.0046	-0.0008	-0.0075	-50.7
-0.003	-0.0105	-0.0008	-0.0128	-50.7
-0.003	-0.0135	-0.0023	-0.0105	-50.8
-0.003	-0.012	-0.003	-0.0015	-50.9
-0.0015	-0.012	-0.0008	0.0052	-50.9
0	-0.0135	0.0015	0.009	-50.9
0	-0.0113	0.003	0.0105	-51
-0.0015	0.0052	0.0015	0.0187	-51.1
0.0007	0.0345	0.0007	0.0157	-51.1
0.0007	0.0315	-0.0008	-0.0008	-51.1
0.0007	0.0195	0	-0.0083	-51.1
0.0015	0.0247	0.0007	-0.0143	-51.2
0.0007	0.0195	0.0007	-0.0113	-51.2
0.0007	0.0195	0.0015	0	-51.2
0	0.0045	0.0022	0.0022	-51.2
0.0007	-0.0091	0.006	0.0007	-51.3
0.0022	-0.0068	0.0067	-0.0075	-51.3
0.0052	-0.015	0.0067	-0.0091	-51.3
0.0045	-0.0091	0.0082	-0.0075	-51.3
0.0037	-0.015	0.009	-0.0098	-51.3
0.003	-0.0181	0.0105	-0.0053	-51.3
0.0045	-0.0143	0.0105	-0.0046	-51.3
0.0045	-0.0143	0.009	-0.0023	-51.4
0.0045	-0.0083	0.0067	0	-51.4
0.003	-0.0105	0.0082	0.0007	-51.4
0.0022	-0.0015	0.0112	0.0075	-51.4
0.0045	0.027	0.0105	0.012	-51.5
0.0037	0.0345	0.0097	0.0067	-51.5
0.003	0.0007	0.009	0.0045	-51.5
0.0037	0	0.009	0.0082	-51.5
0.0015	0.003	0.0082	0.003	-51.4
0.0007	-0.0105	0.003	-0.0008	-51.4
-0.0015	-0.0046	0.0007	-0.0015	-51.4
-0.0015	-0.0091	-0.0008	-0.0046	-51.4
-0.0015	-0.0075	-0.0046	-0.0053	-51.4
-0.0008	-0.0023	-0.0053	-0.0091	-51.3
-0.0008	0.0052	-0.0038	-0.012	-51.3
-0.0008	0.0097	-0.003	-0.0098	-51.3
0.0007	0.0015	-0.0038	-0.006	-51.3
-0.0008	-0.0053	-0.003	-0.0046	-51.3
-0.0023	-0.0113	0	-0.0015	-51.2
-0.0008	-0.0128	0.0015	0	-51.2
0.0007	-0.0068	0.0045	0.0015	-51.2
0.0015	-0.0023	0.0067	0.003	-51.2
0.0015	-0.0038	0.0052	0.0015	-51.2
0.0007	-0.0015	0.0045	0.0015	-51.1
0.0007	-0.0023	0.0015	-0.0008	-51.1
0.0015	-0.0015	0.0022	-0.0008	-51.1
0.0015	0.0015	0.0022	0.0007	-51
0.0022	0.0067	0.0007	-0.0015	-50.9
0.003	0.012	0.0015	-0.0046	-50.9
0.003	0.0105	0.0015	-0.0105	-50.8
0.0007	0.0007	-0.0008	-0.027	-50.7
-0.0008	-0.0068	0.0007	-0.033	-50.7
0.0007	-0.0083	0.0007	-0.015	-50.6
0	-0.0083	0	-0.0015	-50.5
-0.0008	-0.0053	0.0007	0.0105	-50.4
0	-0.003	0.0015	0.0217	-50.4
-0.0015	-0.003	0.0037	0.0285	-50.3
-0.0008	-0.0046	0.0045	0.0382	-50.2
0.0007	-0.003	0.0045	0.0367	-50.2
-0.0008	0.006	0.0075	0.0082	-50.1
-0.0015	0.003	0.006	-0.0181	-50
-0.0015	-0.0038	0.0015	-0.0098	-50
-0.0015	-0.0008	0.0022	-0.0083	-49.9
-0.0008	0.0015	0.0007	-0.0091	-49.8
-0.0015	-0.0008	0.0015	-0.0046	-49.8
-0.0008	0.0007	0.003	-0.0068	-49.7
-0.0015	0.0015	-0.0008	-0.0046	-49.6
-0.0053	0.0007	-0.0015	-0.006	-49.5
-0.0023	0.0007	-0.0038	-0.006	-49.4
-0.0038	0.0007	-0.0046	-0.006	-49.3
-0.0068	0.0007	-0.0046	-0.006	-49.2
-0.003	0.0007	-0.0046	-0.0068	-49.1
-0.003	-0.0023	-0.0023	-0.0091	-49
-0.0008	-0.0113	-0.0008	-0.0181	-48.9
0.0007	-0.015	-0.0008	-0.0218	-48.8
-0.0008	-0.0128	-0.0008	-0.0128	-48.7
-0.0008	-0.0128	-0.0008	-0.0046	-48.6
0.0007	-0.0113	0.0007	0.0015	-48.5
0.0007	-0.0098	0.0022	0.0067	-48.4
0.0007	-0.0128	0.0015	0.0135	-48.3
0	-0.0015	0.0045	0.0195	-48.2
0.0007	0.03	0.0052	0.0255	-48.1
0.0037	0.0337	0.0075	0.0172	-48
0.003	0.0135	0.0075	0.006	-47.9
0.0007	0.015	0.0007	0.0015	-47.8
-0.0023	0.0067	-0.0023	-0.0053	-47.7
-0.003	0	-0.0053	-0.003	-47.6
-0.0023	0.0015	-0.006	-0.003	-47.5
0	-0.003	-0.0046	-0.0015	-47.3
-0.0008	0	-0.0053	-0.0015	-47.2
-0.0038	-0.0015	-0.0068	-0.0015	-47.1
-0.0023	0	-0.0053	0.0007	-47
-0.0015	0.0007	-0.0046	0.0015	-46.8
0.0007	-0.0015	-0.0053	0.0037	-46.8
0.0007	-0.0023	-0.0046	0.0022	-46.6
-0.0008	-0.0015	-0.0038	-0.0008	-46.5
0	0	-0.0023	-0.003	-46.4
-0.0015	-0.0008	-0.0023	-0.003	-46.3
-0.0008	-0.0008	-0.0008	-0.003	-46.2
-0.0008	-0.0046	0.0015	-0.0046	-46
0.0015	-0.012	0.0022	-0.0053	-45.9
0.0015	-0.0158	0.0022	-0.0008	-45.8
0.0007	-0.0128	0.003	-0.0015	-45.7
0.0015	-0.012	0.0067	-0.0083	-45.5
0.0007	-0.0128	0.0052	-0.0113	-45.5
0.0022	-0.0128	0.0045	-0.0203	-45.3
0.0007	-0.0105	0.009	-0.0203	-45.2
0.0007	0.003	0.0052	-0.0068	-45
0.0007	0.0255	0.003	-0.003	-44.9
0	0.027	0.0052	-0.0046	-44.8
0.0015	0.0022	0.0037	-0.0008	-44.6
0.0045	0.0037	0.003	0.0015	-44.6
0.003	0.0105	0.003	0.003	-44.4
0.0015	0.0067	0.0045	0.0015	-44.3
0.0022	0.0015	0.0045	0.0007	-44.1
0.0007	-0.0046	0.0007	0.0015	-44
-0.0015	-0.0038	-0.0008	0.0007	-43.9
-0.0015	-0.0046	-0.0038	0.0015	-43.7
-0.0015	-0.003	-0.0038	0.0015	-43.6
-0.0015	-0.0053	-0.003	0.0015	-43.5
-0.0023	-0.0068	-0.003	0	-43.3
-0.0015	-0.0046	-0.0023	0	-43.2
-0.0015	-0.006	-0.0015	0.0007	-43.1
-0.0023	-0.0083	0.0007	0.0022	-43
-0.0038	-0.0113	-0.003	0.0037	-42.8
-0.0053	-0.0091	-0.0046	0.0045	-42.7
-0.0038	-0.0075	-0.003	0.0052	-42.6
-0.0023	-0.003	-0.0023	0.003	-42.4
-0.0023	0.0067	-0.0008	0.0052	-42.3
-0.0008	0.0165	0.0007	0.0067	-42.2
-0.0008	0.0127	0.0015	0.0022	-42
-0.0008	0.0127	0.0007	-0.0046	-41.9
-0.0008	0.0127	0.0007	-0.0105	-41.7
-0.0015	-0.003	-0.003	-0.0105	-41.6
-0.0008	-0.0091	-0.0053	-0.0083	-41.4
