File Name: 3Npie.log
Channel 1: 'RF', 9539 values, engineering units: mV, no filters.
Channel 2: 'BF', 9539 values, engineering units: mV, no filters.
Channel 3: 'VM', 9539 values, engineering units: mV, no filters.
Channel 4: 'ST', 9539 values, engineering units: mV, no filters.
Channel 5: 'FX', 478 values, engineering units: deg, no filters, extrapolated from 50 to 1000 samples per second.

-0.0008	-0.0015	0.0015	-0.003	10.2
-0.0008	-0.0015	0.0045	-0.0023	10.2
-0.0015	-0.0015	0.0022	-0.0008	10.2
-0.0015	-0.0015	0.003	-0.0008	10.2
-0.0008	-0.0015	0.0045	-0.0008	10.2
-0.0008	-0.0015	0.0052	0.0007	10.2
0.0015	-0.0008	0.0037	0	10.2
0.0007	0.0007	0	-0.0015	10.2
-0.0008	0.0015	-0.0008	-0.0015	10.2
0.0015	0.0022	-0.0015	-0.0015	10.2
-0.0023	0.0015	0.0007	-0.0015	10.2
-0.0015	0.0015	0.0015	-0.0008	10.2
0.0022	0.0007	0.0007	-0.0023	10.2
0.003	0.0015	0.0015	-0.0015	10.2
0.0015	0.0015	0	-0.0015	10.2
-0.0015	0.0007	0	-0.003	10.2
-0.003	0	-0.0008	-0.0008	10.2
-0.003	0	-0.0023	-0.0023	10.1
-0.0008	0	0	-0.0015	10.1
-0.0015	-0.0008	0.0022	-0.0008	10.1
0.0007	0.0007	0.0007	-0.0015	10.1
0.0015	0.0015	0.0015	-0.0015	10.1
-0.0015	-0.0008	0.0022	-0.0038	10.1
-0.0023	-0.0015	0.0022	-0.003	10.1
-0.0008	-0.0008	0.0015	-0.0023	10.1
0.0015	-0.0008	-0.0008	-0.0015	10.1
0	-0.0008	-0.003	-0.0008	10.1
-0.0008	-0.0015	-0.003	-0.0008	10.1
-0.0046	-0.0008	-0.0015	-0.0015	10.1
-0.0068	-0.0008	-0.0008	-0.0015	10.1
-0.0083	-0.0008	-0.0015	-0.0015	10.1
-0.0053	-0.0015	0	-0.003	10.1
-0.0008	-0.0015	0.0037	-0.0023	10.1
0.003	-0.0023	0.0037	-0.0015	10.1
0.0052	-0.0046	0.0022	-0.0015	10.1
0.0045	-0.0068	0.0007	-0.0023	10
0.006	-0.0038	0.0007	-0.0015	10
0.003	-0.0015	0	-0.0015	10
0.0052	-0.003	0	-0.0015	10
0.006	-0.0008	-0.0008	-0.0008	10
0.0007	-0.0008	-0.0015	0	10
0	-0.0015	-0.0015	0.0015	10
-0.0008	-0.0015	-0.003	0	10
-0.0015	-0.0008	-0.0015	0	10
-0.003	-0.0008	-0.0015	-0.0015	10
-0.0015	0.0007	-0.0023	-0.0015	10
0	0.0022	-0.0023	-0.0008	10
-0.0008	0.0007	-0.0015	-0.0008	10
-0.0015	0.0007	0	-0.0008	10
-0.003	0.0007	0.003	-0.0015	10
-0.0023	0.0007	0.0015	-0.0008	10
-0.0015	0	0.0022	0.0007	10
0.0007	0.0007	0.003	-0.0008	10
-0.0015	0	0.0015	-0.0008	10
0	-0.0008	0.0045	-0.0015	10
0.0022	0.0007	0.0052	-0.0015	10
0.0015	0	0.0037	-0.0015	10
0.0015	-0.0008	0.003	-0.0015	10
0.0015	-0.0008	0.003	-0.0015	10
0	-0.0015	0.003	-0.0023	10
-0.0008	-0.0015	0.0015	-0.003	9.9
0.0015	-0.0008	0.0022	-0.0023	9.9
0	-0.0015	0.0022	-0.0008	9.9
-0.0015	0	0.003	-0.0015	9.9
-0.0008	0.0015	0.003	-0.0008	9.9
0.0015	0.0007	0.0015	-0.0015	9.9
0.0037	-0.0008	0.0015	-0.0008	9.9
0.0015	-0.0008	-0.0008	-0.0015	9.9
0.0015	-0.0008	0.0015	-0.0023	9.9
-0.0008	-0.0008	0.0045	-0.0015	9.9
-0.003	-0.0015	0.0045	-0.0008	9.9
-0.0015	-0.003	0.0067	-0.0008	9.9
-0.0008	-0.0023	0.0052	-0.0015	9.9
0.0007	-0.0023	0.0022	-0.0008	9.9
0.0007	-0.0023	0.0015	0	9.9
-0.0008	-0.0015	0	-0.0008	9.9
0.0007	0	-0.0008	-0.0008	9.9
-0.0008	0.0007	-0.0008	-0.0008	9.9
-0.0008	0.0007	-0.0008	-0.0008	9.9
0	0.0007	0.0015	-0.0015	9.9
-0.0008	0.0007	-0.0008	-0.003	9.9
0.0007	0	-0.0015	-0.0023	9.9
-0.0008	-0.0008	0.0015	-0.0023	9.9
-0.0008	-0.0008	0.0007	-0.0023	9.9
0	0.0007	0.0007	-0.0023	9.9
-0.0008	0.0007	0.0007	-0.0015	9.9
-0.0008	-0.0023	0.0015	-0.0023	9.9
0	-0.003	0.0022	-0.003	9.9
0.0015	-0.0008	0.0007	-0.003	9.9
0.0015	-0.0008	0.0007	-0.0015	9.9
-0.0008	-0.0008	0.0015	-0.0008	9.9
-0.0015	-0.0008	0.0015	0.0007	9.9
-0.0015	-0.0023	0.0015	0.0007	9.9
-0.0023	-0.0023	0.0015	0.0007	9.9
-0.0015	-0.0015	0.0022	0	9.9
-0.0015	-0.0015	0.0015	-0.0008	9.9
-0.0015	0.0007	-0.0008	-0.0015	9.9
-0.0008	-0.0008	-0.0023	-0.0008	9.9
0	0.0007	-0.003	-0.0008	9.9
0	0.0007	-0.0015	-0.0008	9.9
-0.0008	-0.0008	0.0007	-0.0008	9.9
0.0022	-0.0015	0.0007	0.0007	9.9
0.0007	-0.003	0.0015	0	9.9
-0.0008	-0.003	0.0022	-0.0015	9.9
-0.0015	-0.0015	0.0022	-0.0015	9.9
-0.0008	-0.0008	0.003	-0.0015	9.9
0.0015	-0.0008	0.0037	-0.0015	9.9
0.0015	-0.0008	0.0015	-0.0015	9.9
0.003	0.0007	0	-0.0023	9.9
0.0022	0.0007	0	-0.0023	9.9
0	-0.0008	0.003	-0.0015	10
0	0.0007	0.0037	-0.0008	10
0	0.0007	0.0015	-0.0008	10
-0.0008	-0.0008	0.0007	-0.003	10
-0.0015	-0.0015	0.0007	-0.0023	10
-0.0008	-0.0015	-0.0008	-0.0008	10
0.0015	-0.0015	-0.0038	-0.0015	10
0.0045	0.0007	-0.0008	-0.0015	10
0.0045	0.003	0.0015	-0.0038	10
0.0007	0.0015	0.003	-0.003	10
-0.0015	0	0.0037	-0.0023	10
-0.0038	-0.0015	0.003	-0.0023	10
-0.0075	-0.0038	0.003	-0.0008	10
-0.0091	-0.0053	0.0015	-0.0015	10
-0.003	-0.0083	0.003	-0.0015	10
0	-0.003	0.0015	-0.0015	10
0	-0.0008	0.0022	-0.0015	10
0.0015	0	0.0037	-0.0015	10
0.0007	0.0007	0.0037	0	10
0	0.0015	0.0022	-0.0008	10
0.0007	0.003	0	-0.0015	10
0	0.0007	0.0007	0	10
-0.0015	0	0.0015	0.0015	10
-0.0008	-0.0008	0.0015	0.0007	10
-0.0015	-0.0023	0	-0.0023	10
0.0007	-0.0023	0.0007	-0.0015	10.1
0.0007	-0.0046	0	-0.0015	10.1
-0.0008	-0.0038	0.0007	0	10.1
0.0015	-0.0015	0.0007	0.0007	10.1
0.0007	-0.0015	0.0015	0.0015	10.1
0.0037	-0.0015	0	0.0022	10.1
0.0022	-0.0015	0.0007	-0.0008	10.1
0.0007	-0.0015	0	0	10.1
0	0	-0.0008	-0.0008	10.1
-0.0008	-0.0008	0.0022	-0.0015	10.1
-0.0008	-0.0008	0.0007	-0.0015	10.1
-0.0008	0.0007	0.0007	-0.0023	10.1
-0.0008	0.0007	0.0007	-0.0015	10.1
0.0015	0.0007	0.0007	-0.0015	10.1
0.0022	-0.0008	0.003	-0.003	10.1
0.003	0	0.0007	-0.003	10.1
0.0022	0.0007	0.0007	-0.003	10.1
0.0007	0.0007	0.0007	-0.0015	10.1
-0.0008	0	0.003	-0.0008	10.1
0.0007	0.0015	0.003	-0.0008	10.1
0.0007	0	0.0007	0	10.1
-0.0015	-0.0023	0.003	0.0007	10.1
-0.0008	-0.0015	0.003	-0.0015	10.1
0	-0.0015	0.0015	-0.0008	10.1
-0.0008	-0.0015	0.0007	-0.0015	10.1
-0.0008	-0.0023	0.0007	0	10.1
0	-0.0015	0.0007	0.0007	10.1
-0.0008	0	-0.0008	0	10.1
-0.0015	-0.0008	0	-0.0008	10.1
0.0007	-0.0015	0.0007	-0.0008	10.1
0	-0.0008	0.0007	0	10.1
-0.0008	0.0007	0.0007	0	10.1
-0.0008	0.0007	0.0022	-0.0023	10.1
-0.0008	-0.0008	0.0007	-0.0023	10.1
-0.0015	0	0.0015	-0.0008	10.1
-0.003	0	0.0015	-0.0008	10.1
-0.003	-0.0015	0.0007	-0.0023	10.1
-0.0015	0.0007	0.0022	-0.0015	10.1
-0.0008	0.0007	0.0022	-0.0015	10.1
0.0007	-0.0008	0.0007	-0.003	10.1
0.0007	-0.0015	0.0007	-0.003	10.1
0	-0.0015	0.0007	-0.0038	10.1
0	-0.0008	0.0015	-0.0015	10.1
0	-0.0015	0.0007	-0.0015	10.1
0.0007	-0.0008	-0.0008	-0.0008	10.1
-0.003	0.0007	-0.0008	-0.0015	10.1
-0.003	0	0	-0.003	10.1
-0.0023	-0.0015	0.0015	-0.0023	10.1
-0.0015	-0.0015	0.0015	-0.0015	10.1
0.0007	-0.0008	0.0022	-0.0008	10.1
-0.0008	-0.0008	0.0015	-0.003	10.1
0	-0.0023	0.0022	-0.0023	10.1
-0.0008	-0.0015	0.003	-0.0015	10.1
0.0007	-0.0008	0.0022	-0.0023	10.1
0.0007	-0.0008	0.003	-0.003	10.1
0	0.0015	0.0015	-0.003	10.1
0.0015	0	-0.0008	-0.0023	10.1
0	-0.0015	-0.0008	-0.003	10.1
0.0007	-0.0008	-0.0023	-0.0046	10.1
-0.0008	0	-0.0046	-0.003	10.1
-0.0038	0.0007	-0.0068	-0.0015	10.1
-0.003	-0.0008	-0.006	-0.0015	10.1
-0.0023	0.0007	0.0015	-0.0015	10.1
-0.0008	0	0.0045	-0.0023	10.1
0.0015	-0.0015	0.0052	-0.003	10.1
0.0015	-0.0023	0.0045	-0.0008	10.1
0.0007	-0.0015	0.0007	0	10.1
0.0007	0.0007	0	-0.0008	10.1
0	0.0007	0.0022	-0.0008	10.1
0	-0.0008	0.0037	-0.0015	10.1
0.0007	0	0.003	-0.0008	10.1
0.0007	-0.0008	0.003	-0.0023	10.1
-0.0008	-0.0015	0.003	-0.0023	10.1
0.0007	-0.0023	0.0037	-0.0008	10.1
0.0015	-0.003	0.003	-0.003	10.1
0.0007	-0.0015	0.0015	-0.0015	10.1
0.0015	-0.0015	0.0015	-0.0008	10.1
0.003	-0.0015	0.0015	-0.0008	10.1
0.003	-0.0015	0.0015	0.0007	10.1
0.0022	-0.0008	0.0022	0	10.1
0.0015	-0.0008	0.0022	-0.0015	10.1
0.0007	-0.0015	0.0015	-0.0008	10.1
0.0007	-0.0015	0.0015	-0.0008	10.1
-0.0008	-0.0015	0	-0.0023	10.1
-0.0023	-0.0008	-0.0008	-0.0008	10.1
-0.0038	0.0007	-0.0008	0.0007	10.1
-0.003	-0.0008	0.0022	-0.0008	10.1
-0.0015	-0.0015	0.0037	-0.0023	10.1
-0.0008	-0.0008	0.003	-0.0015	10.1
0	-0.0046	0.0015	-0.0015	10.1
0	-0.0083	0.0015	0	10.1
0.0015	-0.0046	0.003	0.0007	10.1
0.0015	-0.003	0.003	0	10.1
0.0007	-0.0015	0.003	0.0007	10.1
0.0007	-0.0008	0.0015	-0.0008	10
-0.0015	-0.0015	0.0015	0.0007	10
-0.0015	0	0.0007	0.0007	10
0	0	-0.0008	-0.0015	10
0	0	0.0007	-0.0008	10
0.0015	0.0015	0.0007	0	10
0.0015	0.0007	0.0015	-0.0015	9.9
0	-0.0008	0.0015	-0.003	9.9
-0.0015	0.0015	0.0015	-0.0015	9.9
-0.0015	0.0015	0.003	-0.0008	9.9
-0.0015	0.0015	0.0015	-0.003	9.9
-0.0008	0.0037	-0.0008	-0.0008	9.9
-0.003	0.0022	0	0	9.9
-0.0023	0	0.0007	-0.0015	9.9
0	-0.0008	0.0015	-0.0015	9.9
-0.0008	0	0.0022	-0.0008	9.9
0.0007	-0.0015	0.0015	-0.0008	9.9
0.0007	-0.0046	0.003	-0.0008	9.9
-0.0015	-0.0015	0.0015	0	9.9
0	-0.0008	0.0007	0	9.9
0.0015	-0.0008	0.0015	-0.0008	9.9
0.003	-0.0015	0.0015	-0.0015	9.9
0.003	-0.003	0.0007	-0.0008	9.9
0.0022	-0.0015	0.0007	-0.0008	9.9
0.003	-0.0008	0.0022	-0.0023	9.9
0.0015	-0.0008	0.0015	-0.0023	9.9
0	-0.0008	0.0015	-0.0015	9.8
-0.0008	-0.0008	0.0007	-0.0023	9.8
-0.0008	-0.0008	0	-0.003	9.8
0.0007	-0.0015	0.0015	-0.003	9.8
-0.0008	-0.0015	0	-0.0023	9.8
-0.0008	-0.0015	0.0015	-0.0015	9.8
-0.0008	-0.0008	0.003	-0.0023	9.8
-0.0023	-0.0008	0.0015	-0.003	9.8
-0.0023	-0.0008	0.0007	-0.0015	9.8
-0.0015	0.0015	-0.0008	-0.0008	9.8
-0.0008	0.0022	-0.0008	-0.0015	9.8
-0.0023	0.0015	0.0007	-0.0008	9.8
-0.0015	0.0022	0.0007	-0.0008	9.8
-0.0008	0.003	0	-0.0015	9.8
0.0015	0.0007	0.0007	-0.0015	9.8
0.0007	-0.0008	0.0007	-0.0008	9.8
0.0007	-0.0008	0.0015	-0.0008	9.8
0.003	-0.003	0.003	-0.0015	9.8
0.0015	-0.003	0.0045	-0.0008	9.8
0.0022	-0.003	0.003	-0.0015	9.8
0.0007	-0.003	0.0015	-0.0015	9.8
0.0007	-0.0008	0.003	0	9.8
0.0007	0	0.003	-0.0008	9.8
0.0015	-0.0008	0	-0.0015	9.8
0.0015	-0.0008	-0.0008	-0.0008	9.8
0.0007	-0.0008	0.0007	0	9.8
0.0015	-0.0015	0.0007	0	9.8
-0.0015	-0.0015	0.0007	-0.0015	9.8
-0.0038	-0.0015	0.0007	-0.0023	9.8
-0.003	-0.003	0.0007	-0.0015	9.8
-0.0008	-0.0008	0.0015	-0.0008	9.8
-0.0008	0	0.0007	-0.0015	9.8
-0.0008	0	-0.0015	-0.003	9.8
-0.0008	-0.0008	-0.0008	-0.0008	9.8
-0.0015	-0.0023	-0.0008	-0.0015	9.8
-0.0015	-0.0023	-0.0008	-0.0023	9.8
0.0007	0	0.0007	-0.0015	9.8
-0.0008	0.0007	0.0007	-0.0015	9.8
-0.0023	0.0007	0	-0.0015	9.8
0	0	0	-0.0046	9.8
-0.0015	-0.0015	0.0007	-0.0008	9.7
-0.0015	-0.0008	0.0007	-0.0008	9.7
0	-0.0023	-0.0008	-0.0015	9.7
-0.0015	-0.0015	-0.0008	-0.0015	9.7
-0.0015	-0.0015	0	-0.0008	9.7
0	-0.0008	0.0015	-0.0008	9.7
-0.0008	0	0.0022	-0.0015	9.7
0	-0.0008	0.003	-0.0015	9.7
0.0007	-0.0008	0.003	-0.0015	9.7
0.0015	0.0007	0.0015	-0.0015	9.7
0.0015	-0.0008	0.0015	-0.0008	9.7
0.0007	-0.0015	0.0022	-0.0008	9.7
0.0022	-0.0008	-0.0008	-0.0015	9.7
0.0015	0.0007	0.0007	-0.0015	9.7
0.0007	-0.0008	0.0015	-0.0008	9.7
0.0015	-0.0015	0.0022	0	9.7
0.0015	-0.0015	0.0015	-0.0008	9.7
-0.0008	-0.0008	0.0015	-0.0023	9.7
-0.0015	-0.0015	0.0022	-0.0023	9.7
-0.0008	-0.0008	0.0015	-0.0038	9.7
-0.0015	-0.0008	0.003	-0.0046	9.7
-0.0008	-0.0008	0.0015	-0.0038	9.7
0.0015	-0.0008	0.0015	-0.0015	9.7
0.0015	-0.0023	0.0015	-0.0015	9.7
0.0022	-0.0008	0.0015	-0.003	9.7
0.0015	-0.0015	0.0022	-0.0015	9.6
0	-0.0015	0.0007	-0.0015	9.6
-0.0015	0.0007	0.0015	-0.0008	9.6
-0.003	-0.0008	0.0007	-0.0008	9.6
-0.0008	-0.0015	0.0015	-0.0008	9.6
0.0007	-0.0015	0.0007	-0.0015	9.6
-0.0008	-0.0008	0.0007	-0.0008	9.6
-0.0008	-0.0008	0.0022	-0.0008	9.6
-0.0023	-0.0008	0.0015	-0.0008	9.6
-0.0008	-0.0008	0.0015	0.0007	9.6
0.0007	-0.0015	0.0015	-0.0008	9.6
-0.0008	-0.0008	0.0015	-0.0008	9.6
-0.0008	0.0007	0.0007	-0.0015	9.6
-0.0008	0.0007	0.0007	-0.0015	9.6
-0.0008	-0.0008	0.0007	0	9.6
0	-0.0015	-0.0008	-0.0008	9.6
-0.0008	-0.003	0.0015	-0.003	9.6
-0.0015	-0.0023	0.003	-0.0023	9.6
-0.0008	-0.0023	0.0022	-0.0008	9.6
-0.0008	-0.0008	0.0015	-0.0008	9.6
-0.0008	-0.0015	0.0015	-0.0008	9.6
0	-0.003	0.003	-0.0015	9.6
-0.0008	-0.0023	0.0015	-0.0008	9.6
-0.0008	-0.003	0.0007	-0.0008	9.6
-0.0015	-0.0015	0.0015	-0.0008	9.6
0.0007	0	0.0015	0	9.6
0.0007	-0.0008	0.0015	0	9.6
-0.0008	-0.0015	0	-0.0008	9.6
0	0	-0.0008	-0.0008	9.6
-0.0015	0.0015	0.0007	-0.0015	9.6
0.0007	0.0015	0	-0.0015	9.6
0.0007	0.0015	0	-0.0023	9.6
-0.0015	0.0015	0	-0.0046	9.6
0	0.0022	0.0007	-0.0023	9.6
0.0015	0.0015	0.0015	-0.0008	9.6
0.003	0	0.0015	-0.0008	9.6
0.0015	-0.0008	0.0015	-0.0008	9.6
0.0007	0	0.0007	-0.0008	9.6
-0.0008	0.0007	-0.0008	-0.0008	9.6
-0.0008	0.0007	0	-0.0008	9.6
0.0007	0	-0.0015	-0.0015	9.6
-0.0015	0.0007	-0.0008	-0.0015	9.6
-0.0015	-0.0015	0.0015	-0.0023	9.6
0	-0.0015	0.0015	-0.0015	9.6
-0.0008	-0.0015	0.0007	-0.0015	9.6
0.0007	0	-0.0015	0	9.6
0.0015	0	-0.0008	0.0007	9.6
-0.0008	-0.0008	-0.0015	-0.0008	9.6
-0.0008	0.0015	0	-0.0008	9.6
-0.0008	0.0015	0.0015	0	9.6
0.0007	0.0007	0	-0.0015	9.6
0.0007	-0.0008	0.0015	-0.0023	9.6
-0.0008	-0.0008	0.0022	-0.0023	9.6
-0.0015	-0.0015	0.0022	-0.0015	9.6
-0.003	-0.0008	0.0015	0.0007	9.6
0	-0.0015	0.0007	0.0007	9.6
-0.0008	-0.003	0.0022	-0.0008	9.6
-0.0015	-0.0015	0.0015	-0.0008	9.6
-0.0008	-0.0023	0.0022	-0.0008	9.6
-0.0015	-0.0023	0.0015	-0.0008	9.6
0.0007	-0.003	0.003	-0.0008	9.6
0.0022	-0.0015	0.003	-0.0015	9.6
0	-0.0023	0.0022	-0.0015	9.6
-0.0015	-0.0015	0.003	-0.0008	9.6
-0.0015	-0.0008	0.0015	-0.0015	9.6
-0.0015	-0.0023	0.0022	-0.003	9.6
0	-0.0023	0.003	-0.0023	9.6
0.0007	-0.0023	0.0022	-0.0038	9.6
-0.0008	-0.0023	0.003	-0.0046	9.6
0.0007	-0.0008	0.0007	-0.0046	9.6
0.0007	0.0007	0.0015	-0.0023	9.6
0	0	-0.0008	0.0007	9.6
0.0007	-0.0008	-0.0008	0	9.6
-0.0008	-0.0015	0.0015	0	9.6
-0.0008	0.0007	0	-0.0008	9.6
-0.0008	-0.0008	0.0015	-0.0015	9.6
-0.0008	-0.0015	0.0007	-0.0015	9.6
-0.0008	-0.0015	0.0007	-0.0015	9.6
0.0007	-0.0023	0	-0.0008	9.6
0.0007	-0.0008	-0.0015	-0.0015	9.6
0.0015	-0.0008	0.0015	-0.0008	9.6
0.0007	0.0007	0.0015	-0.0015	9.6
0.0007	0	-0.0008	-0.0015	9.6
0.0007	-0.0015	-0.0008	-0.0008	9.6
0.0007	-0.0008	-0.0008	-0.0015	9.6
0.0007	-0.0008	0.0007	-0.0015	9.6
-0.0008	-0.0015	0.0015	0.0015	9.6
0.0007	-0.0015	0.003	0	9.6
0.0007	-0.0015	0.0015	-0.0008	9.6
0	-0.0015	0.0015	-0.0008	9.6
0.0015	-0.0023	0.0015	-0.0015	9.6
0.0007	-0.0008	0.0007	-0.0015	9.6
-0.0008	0.0015	0.0022	-0.0008	9.6
-0.0008	0.0007	0.0022	-0.0008	9.6
-0.0008	-0.0008	0.0022	-0.0015	9.6
0	0	0.003	-0.0015	9.6
-0.0015	0.0007	0.0045	0	9.6
-0.0015	-0.0008	0.0015	-0.0015	9.6
-0.0008	-0.0023	0.0022	-0.003	9.6
0	0	0.0037	-0.0023	9.6
-0.0008	-0.0008	0.0022	-0.0008	9.6
-0.0008	-0.0008	0.0015	-0.0008	9.6
0	-0.0023	-0.0008	-0.0015	9.6
0.0007	-0.0015	0	-0.003	9.6
0.0007	-0.0015	0.0007	-0.0015	9.6
-0.0008	-0.003	-0.0015	-0.0023	9.6
-0.0008	-0.0015	-0.0015	-0.003	9.6
-0.0008	-0.0008	0.0007	-0.003	9.6
-0.0008	-0.0015	0.0007	-0.0015	9.6
0.0015	-0.0015	0.0007	-0.0008	9.6
-0.0008	0.0007	0.0015	-0.0023	9.6
0.0007	0.0015	0.0007	-0.0015	9.6
0	0.0007	0.0015	-0.0015	9.6
-0.0008	0.0007	0.003	-0.0015	9.6
0.0007	-0.0008	0.0045	-0.0008	9.6
-0.0015	-0.0008	0.0045	-0.003	9.5
-0.0008	-0.0015	0.0022	-0.0023	9.5
0.0015	-0.0015	0.003	-0.0015	9.5
0.0007	-0.0023	0.0015	-0.003	9.5
0.0015	-0.003	0.0007	-0.0008	9.5
0.0015	-0.003	-0.0008	-0.0015	9.5
0.0007	-0.0015	-0.0015	-0.0008	9.5
0.0007	0	-0.003	0.0007	9.5
0	-0.0015	-0.003	-0.0015	9.5
-0.0008	-0.0023	-0.0015	-0.0008	9.5
-0.0008	-0.0015	0	0	9.5
-0.0008	-0.0023	-0.0008	0	9.5
-0.0008	-0.0008	0.0015	-0.0008	9.5
-0.0008	0.0015	0.0015	-0.0023	9.5
0.0007	0.0007	-0.0008	-0.0023	9.5
0.0022	0.0015	0.0015	-0.0015	9.5
0.0007	-0.0008	0.0015	-0.0015	9.5
-0.0008	-0.0015	0.0015	-0.0023	9.5
-0.0015	-0.0008	0.0015	-0.0008	9.5
-0.0023	-0.0008	0.0007	-0.003	9.5
-0.0015	-0.0008	0.0015	-0.0038	9.5
-0.0008	-0.0008	0.0015	-0.0015	9.5
-0.0015	-0.0008	0.0015	-0.0015	9.5
-0.0023	0	0.003	-0.0008	9.5
0	-0.0008	0.0022	-0.0023	9.5
0.0007	-0.0015	0.0015	-0.0008	9.5
-0.0015	-0.0008	0.0015	-0.0008	9.5
-0.0015	0.0007	0.0015	-0.0015	9.5
-0.0015	0	0.0022	-0.0015	9.5
-0.0008	0.0007	0.0007	-0.0015	9.5
-0.0008	0.0007	0	-0.0008	9.5
-0.0008	-0.0008	0.0007	-0.0008	9.5
0.0007	0.0007	-0.0008	-0.0008	9.5
-0.0015	0	0.0015	-0.0015	9.5
-0.0008	-0.0008	0.0007	-0.0008	9.5
0.0022	-0.0015	0.0015	-0.0015	9.5
0.0022	-0.0015	0.0015	-0.0015	9.5
0.003	-0.0015	0	-0.0015	9.5
0.0007	-0.0015	0.0007	-0.0008	9.5
0	-0.0015	0.0007	-0.0015	9.5
0	-0.0015	0.0007	-0.0015	9.5
-0.0015	-0.0008	0.0007	-0.0015	9.5
0	0	-0.0008	-0.003	9.5
0.0015	-0.0008	0.0007	-0.0015	9.5
0.0015	-0.0008	0.0007	-0.0015	9.5
0.0015	0.0007	0.0007	0	9.5
0	0.0007	0.0015	0	9.5
-0.0015	0	0.003	-0.0015	9.5
-0.0008	-0.0008	0.0037	-0.0023	9.5
-0.0008	-0.0008	0.0037	-0.0015	9.5
0.0007	-0.0008	0.0037	-0.0008	9.5
0.0007	0.0007	0.0045	-0.0015	9.5
-0.0015	0.0007	0.0037	-0.0008	9.5
-0.0008	-0.0008	0.003	-0.0008	9.5
-0.0015	-0.0015	0.0015	-0.0015	9.5
-0.0015	-0.0008	0.0015	-0.0008	9.5
-0.0008	-0.0015	0.0015	-0.0015	9.5
-0.003	-0.0008	-0.0008	-0.0015	9.5
-0.0038	0	-0.0046	-0.0008	9.5
-0.0046	-0.0008	-0.006	-0.0008	9.5
-0.0046	0	-0.0023	-0.0015	9.5
-0.0023	-0.0015	0	-0.0008	9.5
-0.0008	-0.003	0.0015	0	9.5
-0.0008	-0.003	0.0015	-0.0015	9.5
-0.003	-0.0023	0.0015	-0.003	9.5
0	-0.0023	0.0045	-0.0038	9.5
0.0007	-0.0023	0.0045	-0.0023	9.5
0.0007	-0.0008	0.003	-0.0015	9.5
0.003	-0.0015	0.0015	-0.0015	9.5
0.0015	-0.0008	0.0015	-0.0023	9.5
0.0007	-0.0008	0.0015	-0.0023	9.5
-0.0008	-0.0023	0.003	-0.0015	9.5
0.0007	-0.0046	0.003	-0.003	9.5
0.0007	-0.0015	0.0015	-0.003	9.5
0.0015	0.0007	0.0022	-0.0015	9.5
0.0022	-0.0015	0.0015	-0.0008	9.5
0.0015	-0.0015	0.0015	0.0007	9.5
0.0007	-0.0015	0.003	-0.0008	9.5
-0.0008	-0.0023	0.0007	-0.0008	9.5
0.0022	-0.0015	0.0022	-0.0008	9.5
0.0015	-0.0008	0.0022	-0.003	9.5
0.0007	-0.0008	0.0007	-0.003	9.5
0	0	0.0015	-0.0015	9.5
-0.0015	-0.0008	0.0015	-0.0008	9.5
0.0007	-0.0008	0	-0.0008	9.5
0.0007	0	0.0007	-0.0008	9.5
-0.0008	0.0007	0.0015	0.0007	9.5
-0.0023	-0.0008	0.0022	0.0022	9.5
-0.0015	-0.0008	0.0007	0.0007	9.5
-0.0015	0	0	-0.0015	9.5
-0.003	-0.0008	-0.0015	-0.0008	9.5
0	0	-0.003	0	9.5
0	0.0007	0	-0.0023	9.5
-0.0008	0.0015	-0.0008	-0.0015	9.5
-0.0008	0.0015	-0.0015	-0.0008	9.5
-0.0015	0	-0.0008	0	9.5
-0.0008	0.0007	-0.0008	0.0015	9.5
-0.0008	0	0.0015	0.0022	9.5
0.0007	-0.0008	0.0015	0.003	9.4
0.0015	-0.0008	0.0022	0.0007	9.4
0.0015	-0.0008	0.0045	0.0007	9.4
0.0007	-0.0015	0.0045	0.0015	9.4
0	-0.0015	0.003	0.0007	9.4
-0.0008	0	0.0045	0.0007	9.4
0	-0.0008	0.0015	-0.0023	9.4
-0.0008	-0.0008	0.003	-0.0053	9.4
-0.0015	0.0007	0.003	-0.0083	9.4
-0.0008	0	0.0007	-0.0128	9.4
-0.0015	0	0.003	-0.0098	9.4
-0.0008	0	0.0015	-0.0038	9.4
-0.0008	-0.0008	0.0007	-0.0023	9.4
-0.0015	-0.0015	0.0007	-0.0023	9.4
-0.0015	-0.0015	-0.0008	-0.0023	9.4
-0.0015	-0.0015	0	-0.0008	9.4
-0.0008	-0.0015	-0.0008	0.0022	9.4
-0.0015	-0.003	0	0.0022	9.4
-0.0008	-0.0046	0.0007	0.0022	9.4
-0.0015	-0.0046	0.0007	-0.0008	9.4
0.0015	-0.0038	0.0007	-0.0023	9.4
0.0022	-0.0038	0.0015	-0.003	9.4
-0.0008	-0.003	0.0015	-0.003	9.3
-0.0008	-0.0008	-0.0008	0.0007	9.3
0.0007	0.0015	0	0.0015	9.3
0.0015	0.0015	0.0015	-0.0015	9.3
0.0007	-0.0008	0.0015	-0.0023	9.3
0.0007	-0.0015	0.0022	0	9.3
0.0007	-0.0008	0.0007	-0.0008	9.3
-0.0008	-0.0023	-0.0015	0	9.3
-0.0008	-0.0015	0	0.0015	9.3
0.0007	-0.0008	0.0007	0	9.3
0.0007	0.0007	0	-0.0008	9.3
0	0	0.0015	0	9.3
0.0007	0	0.0007	0.0007	9.3
0	0.0007	0.0007	0	9.3
0	0.0015	-0.0023	-0.0008	9.3
0	0.0007	-0.0008	-0.0008	9.3
0.0007	0	0.0007	0	9.3
0.0007	-0.0008	0.0007	-0.0023	9.3
0.0007	-0.0015	0.0015	-0.003	9.3
0.0022	-0.0008	0.0007	-0.003	9.3
0.0007	-0.0008	0.0015	-0.0023	9.3
0	0	0.0015	-0.0023	9.3
0.0007	0	0.0022	-0.0023	9.3
0	-0.0008	0.0022	-0.003	9.3
-0.0008	-0.0015	0.0015	-0.003	9.3
-0.0008	-0.0015	0.003	-0.0023	9.3
-0.0015	-0.0008	0.0007	-0.0038	9.3
-0.0008	0.0015	0	-0.0023	9.3
0	0.0007	-0.0008	-0.0015	9.3
0	0	-0.0023	-0.0015	9.3
0.0007	0	-0.003	0.0007	9.3
-0.0038	-0.0008	-0.003	-0.0015	9.3
-0.003	-0.0008	0.0007	-0.0015	9.3
-0.0008	0.0007	0.0037	-0.0015	9.3
-0.0008	-0.0015	0.0067	-0.003	9.3
0.0015	0	0.0067	-0.0008	9.3
0	0	0.006	-0.0008	9.3
0.0007	-0.0023	0.0045	-0.0008	9.3
0.0007	-0.0008	0.0022	-0.003	9.3
0.0007	-0.0015	0.0015	-0.003	9.3
-0.0008	-0.0008	-0.0008	-0.0015	9.3
-0.0023	0.0007	0.0015	-0.0015	9.3
-0.0008	0.0007	0.003	-0.0008	9.3
-0.0008	-0.0008	0.0045	0.0007	9.3
0.0007	0	0.0037	0.003	9.3
0	0.0015	0.003	0.0015	9.3
-0.0008	-0.0008	0.0022	-0.0008	9.3
0.0007	-0.0008	0.0007	-0.0015	9.3
0.0007	-0.0008	0.0015	-0.0008	9.3
0.0015	-0.0008	0.0015	0.0015	9.3
0.0022	-0.0008	0.0015	-0.0015	9.3
-0.0008	-0.0008	0.0015	-0.0023	9.3
0	-0.0008	0	0	9.3
0.0007	-0.0008	0	0.0007	9.3
-0.0015	-0.0008	0.0015	0.0015	9.3
-0.0015	-0.0015	0.0015	0.0007	9.3
-0.0008	-0.0015	0.0007	0	9.3
-0.0015	-0.003	0.0007	0.0007	9.3
-0.0015	-0.0023	0	0	9.2
0	-0.0015	0.0015	-0.003	9.2
0.0007	-0.0015	0.0022	-0.0105	9.2
0	-0.0008	0.0007	-0.0105	9.2
0	-0.0008	0.0007	-0.0075	9.2
0	-0.0015	0.0022	-0.0105	9.2
-0.0015	-0.0053	0.0015	-0.0083	9.2
0	-0.0046	0.0007	-0.0091	9.1
0.0007	-0.0046	0.0007	-0.0053	9.1
0	-0.0015	-0.0008	-0.0046	9.1
0.0015	0	0	-0.0015	9.1
0.0007	-0.0008	0.0007	0.0015	9.1
-0.0008	0.0007	-0.0008	0.0007	9.1
0.0007	-0.0008	-0.0008	0.0015	9.1
0.0015	-0.0008	-0.0008	0.003	9.1
0.0015	0	0.0007	0.0052	9.1
0.0015	0	-0.0008	0.0052	9
0.0015	0.0015	0.0015	0.0075	9
0.0015	0.0007	0.0022	0.0052	9
-0.0008	0	0.0015	0.0007	9
0.0007	0	0.0015	-0.0008	9
0.0007	0.0007	0	-0.0023	9
-0.0008	0.0015	0.0007	-0.003	9
-0.0008	0.0015	0.0015	-0.003	9
-0.0023	-0.0015	0.0015	-0.003	9
-0.0015	-0.0023	0.0007	-0.0046	9
-0.0008	-0.0015	0.0007	-0.0053	8.9
-0.0008	-0.0015	0.0022	-0.0046	8.9
0.0007	-0.0008	0.003	-0.0015	8.9
0.0007	-0.0015	0.0007	-0.0008	8.9
-0.0008	-0.0008	-0.0008	-0.0008	8.9
0	0	0	-0.0008	8.9
-0.0008	0.0015	0.0015	0	8.9
0	0.0015	-0.0008	0.0007	8.9
-0.0008	0.0007	-0.0008	0	8.9
-0.0008	0.0007	0.0007	-0.0046	8.9
-0.0008	0	-0.0008	-0.0113	8.9
-0.0015	-0.0015	0.0007	-0.0113	8.9
-0.0015	-0.0023	0.0007	-0.0046	8.9
-0.0015	-0.003	0.003	0.0052	8.9
0.0007	-0.0015	0.0015	0.012	8.9
0.0007	0	0.0022	0.0075	8.9
0	-0.0008	0.0037	0.0007	8.9
-0.0008	-0.0015	0.0015	-0.0023	8.9
-0.0015	-0.0015	0.0007	-0.0008	8.9
-0.0015	-0.0015	0	0.0015	8.9
-0.0008	-0.0008	0.0015	-0.0008	8.9
-0.0008	0	0.0022	0	8.8
0	0.0007	0.003	0	8.8
-0.0008	0.0015	0.0007	0.0015	8.8
0.0015	0.0015	-0.0008	0	8.8
0.0037	0.0007	0	-0.0023	8.8
0.0015	-0.0015	0.0007	-0.0015	8.8
0	-0.0015	0.0007	-0.0023	8.8
0.0007	-0.0008	0.0007	-0.0015	8.8
-0.0008	0	0.0015	0	8.8
-0.0008	-0.0008	0	0.0022	8.8
0.0007	-0.0008	0	0	8.8
0.0007	-0.0008	0.0015	-0.0015	8.8
-0.0008	-0.0038	0.0045	-0.0015	8.8
0.0007	-0.003	0.0045	-0.0008	8.8
0.0015	-0.0038	0.0022	-0.0015	8.8
0.0015	-0.0046	0.0015	-0.003	8.8
0.0007	-0.0023	0.0007	-0.0008	8.8
-0.0015	-0.0015	0.0007	0	8.8
-0.0008	-0.0015	0.0007	-0.003	8.8
0	-0.003	0.0007	-0.0068	8.8
-0.0015	-0.0038	0.0045	-0.0053	8.7
-0.0008	-0.0038	0.0045	0.0015	8.7
0.0007	-0.0015	0.0022	0.0052	8.7
0	0.0007	0.006	0.0067	8.7
-0.0008	0.0007	0.003	0.009	8.7
-0.0008	-0.0008	0	0.006	8.7
-0.0015	-0.0008	0.003	0.0015	8.7
-0.0015	-0.0008	0.003	-0.0038	8.7
-0.0008	-0.0023	0.0015	-0.0091	8.7
-0.0008	-0.0015	0.0007	-0.0143	8.7
-0.0015	-0.0008	0.0015	-0.0203	8.7
-0.0015	-0.0023	0.0015	-0.0278	8.7
-0.003	-0.0046	0.0015	-0.0293	8.7
-0.0015	-0.003	0.0022	-0.0158	8.7
-0.0015	0.0015	0	-0.0091	8.7
-0.0015	0.0022	0.0007	-0.0068	8.7
0	0.0045	0	-0.003	8.7
-0.0008	0.006	-0.0008	-0.003	8.6
-0.0015	0.003	-0.0015	0.0007	8.6
0.0007	0.0015	-0.003	0.0007	8.6
-0.0015	0.0007	-0.0015	0.003	8.6
-0.0015	-0.0023	-0.0015	0.0082	8.6
0.0007	-0.0023	-0.0008	0.018	8.6
0	-0.0015	0.0015	0.0165	8.6
0	-0.0015	0.0015	0.0105	8.6
-0.0008	-0.0008	0.0022	0.0075	8.6
-0.0008	-0.0015	0	0.0037	8.6
0	0.0007	0.0007	0.0052	8.6
0	0.003	0.003	0.0052	8.5
0.0007	0.0022	0.003	0.006	8.5
0.0015	0.003	0.003	0.009	8.5
0.0015	0.0015	0.0022	0.0082	8.5
-0.0008	0.0015	0.0015	0.006	8.5
0	-0.0008	0.0007	0.0067	8.5
-0.0008	-0.003	0.0015	0.0052	8.5
-0.0023	-0.0023	0.0007	-0.0008	8.5
0	-0.0015	-0.0008	-0.0075	8.5
0.0007	-0.0015	0	-0.0143	8.5
0	-0.0008	-0.0015	-0.027	8.5
-0.0015	-0.0015	0.0015	-0.033	8.5
-0.0008	-0.003	0.0022	-0.0203	8.4
0	-0.0008	-0.0008	-0.0053	8.4
-0.0015	-0.0008	-0.0046	0.0007	8.4
-0.0038	-0.0015	-0.0053	0.0082	8.4
-0.0015	0.0015	-0.0046	0.0127	8.4
0.0007	0.0007	-0.003	0.0172	8.4
0.0007	-0.0015	0.0015	0.0217	8.4
0.0015	-0.0015	0.0022	0.0127	8.4
0.0015	-0.0015	0.0037	0.0007	8.4
0.0007	-0.0038	0.003	-0.0128	8.3
-0.0008	-0.0038	0.0015	-0.0143	8.3
-0.0023	-0.0038	0	-0.0053	8.3
-0.0015	-0.003	0.0015	-0.0046	8.3
0.0007	-0.0008	0.0022	-0.0015	8.3
0.0015	-0.003	0.003	-0.0038	8.3
0.0015	-0.003	0.0067	-0.0091	8.2
0.0007	-0.0008	0.0067	-0.0098	8.2
0.0015	0	0.0075	-0.0083	8.2
0.003	0.0015	0.006	0	8.2
0.0022	0.0015	0.0045	0.0022	8.2
0.003	0.003	0.0052	0.0045	8.1
0.003	0.0037	0.0045	0.0067	8.1
0.0007	0.0037	0.0045	0.0142	8.1
0	0.0045	0.0045	0.0195	8.1
0	-0.0038	0.0022	0.015	8.1
-0.0015	-0.0068	0.0015	0	8
-0.0015	-0.0053	0	-0.0233	8
-0.0023	-0.0046	-0.0008	-0.027	8
-0.0023	-0.0015	-0.0008	-0.015	7.9
-0.0008	0.0007	0.0015	-0.0105	7.9
-0.0008	0.0007	0.0015	-0.0113	7.8
-0.0015	0.003	-0.0008	-0.012	7.8
0.0007	-0.003	0.0007	-0.0143	7.8
0.0007	-0.0091	0.0007	-0.0083	7.7
0	-0.0046	0.0015	-0.0008	7.7
0	-0.0068	0.0015	0.0045	7.7
-0.0008	-0.0038	0	0.009	7.6
0	0.0007	-0.0008	0.0082	7.6
0.0007	-0.0008	-0.0015	0.0082	7.6
0.0015	0.0022	0.0007	0.006	7.6
0.0007	0.0015	0	0.0015	7.5
0	0.0007	0.0015	0.0022	7.5
0.0007	0.003	0.0007	0.0052	7.4
0.0007	0.0045	0.0007	0.0022	7.4
0.0007	0.009	0.0022	0.0075	7.4
0	0.0105	0.0022	0.012	7.3
-0.0008	0.0007	0.0007	0.0037	7.3
-0.0015	-0.0046	0.0007	-0.0015	7.2
0.0007	-0.0015	0.0015	0.0015	7.2
0.0015	-0.0053	0.003	-0.0053	7.2
-0.0008	-0.006	0.0037	-0.0165	7.2
-0.0008	-0.0091	0	-0.0128	7.1
0.0007	-0.0083	0.0007	-0.0143	7.1
0.0007	-0.0091	0.0007	-0.0225	7.1
-0.0015	-0.0143	0.0015	-0.0256	7
0.0015	-0.0135	0.0007	-0.0165	7
0.0022	-0.0165	0	-0.0098	6.9
0	-0.0218	-0.0015	-0.0135	6.9
-0.0008	-0.0293	-0.0053	-0.0135	6.9
-0.0008	-0.0293	-0.0023	-0.0046	6.8
-0.0008	-0.027	-0.0023	0.006	6.7
-0.0008	-0.012	-0.0023	0.0217	6.7
0	0.0172	0	0.0382	6.7
0.0007	0.0292	-0.0008	0.0345	6.7
0.0015	0.0262	0.0007	0.0247	6.7
0	0.0382	0.0022	0.0172	6.6
0	0.0517	0.0022	0.009	6.6
0.0022	0.051	0.0037	0.0022	6.6
0.0007	0.0345	0.0045	-0.0015	6.5
0.0007	0.0127	0.006	-0.0015	6.5
-0.0015	0.003	0.0052	-0.0046	6.4
-0.0023	0.0015	0.003	0.003	6.4
-0.0015	0.0007	0.0007	0.0037	6.4
-0.0023	-0.003	0.0007	0	6.3
0.0007	-0.0053	0.0015	0	6.3
0.0007	-0.0068	0.0015	-0.003	6.3
0	-0.0053	0.0022	-0.0105	6.3
-0.0015	-0.0091	0.0015	-0.027	6.2
-0.003	-0.0128	-0.0015	-0.0278	6.2
-0.0015	-0.012	-0.0038	-0.015	6.2
-0.0023	-0.0098	-0.0038	-0.0113	6.1
-0.0023	-0.006	-0.0023	-0.0053	6.1
-0.0015	-0.0053	-0.0008	0.009	6
0	-0.0053	0.003	0.0052	6
0.0015	-0.0075	0.0037	-0.0098	5.9
0.0007	-0.0083	0.0045	-0.0091	5.8
0.0007	-0.0105	0.0045	-0.0015	5.8
0.0007	-0.015	0.0015	0.003	5.8
0	-0.0173	0.0007	0.0075	5.7
0.0007	-0.015	0.0015	0.0052	5.7
0.0007	-0.0083	0.0015	0.0045	5.6
0.0007	-0.003	0.0022	-0.0008	5.5
0.0015	-0.0105	0.003	-0.0091	5.5
0.0015	-0.0233	0.0067	-0.0105	5.4
0.003	-0.0158	0.0082	-0.0053	5.4
0.0015	0.0112	0.0052	-0.003	5.3
0.0015	0.0195	0.0052	-0.0143	5.3
0.0007	-0.0105	0.0045	-0.0143	5.2
0.0015	-0.0158	0.003	-0.0068	5.2
0.0015	-0.0068	0.003	-0.0053	5.1
0.0007	-0.012	0.0045	-0.0015	5
0.0022	0.0015	0.0045	0.0067	5
-0.0008	0.03	0.0015	0.012	4.9
0.0007	0.0457	0.003	0.0015	4.9
0.0022	0.0217	0.003	0.0015	4.9
0.0015	0.0292	0.0015	0.0075	4.8
0.0007	0.0337	-0.0008	-0.0046	4.7
-0.0008	0.0022	-0.003	-0.0023	4.7
-0.0015	-0.0023	-0.0038	0.024	4.6
-0.0023	-0.0015	-0.0023	0.0352	4.5
-0.003	-0.003	-0.0008	0.0157	4.5
-0.0038	-0.0113	-0.003	-0.0008	4.5
-0.003	-0.0083	-0.0008	0.0045	4.4
-0.0038	0.0135	0.0022	-0.0015	4.3
-0.0046	0.0112	0	-0.0091	4.3
-0.0046	-0.0188	0.0015	0.0075	4.2
-0.0023	-0.0225	0.0015	-0.0046	4.1
-0.0015	-0.0165	0.0007	-0.0308	4.1
-0.003	-0.012	-0.0008	-0.03	4
-0.0015	0.0007	-0.003	-0.0203	4
-0.0008	0.0105	-0.0015	-0.0008	3.9
0	0.0157	-0.0015	0.0112	3.8
-0.0008	-0.0091	-0.003	0.0127	3.8
0.0007	-0.0098	-0.0038	0.0195	3.7
0.0007	-0.0038	-0.0068	0.0195	3.6
-0.0023	-0.0083	-0.0068	0.0097	3.6
-0.0038	-0.0053	-0.0038	-0.0023	3.5
-0.0015	-0.0113	-0.003	-0.0083	3.4
0	-0.0083	-0.0015	-0.0046	3.3
0	-0.0113	0	0.0037	3.3
0.0007	-0.0083	0.003	0.0075	3.2
0.0022	-0.0091	0.003	-0.0083	3.1
0.003	-0.0091	0.003	-0.0173	3.1
0.003	-0.0023	0.0045	-0.0015	3
0.003	0.0045	0.0022	0.012	2.9
0.0015	0.0142	0.0015	0.0142	2.8
0.0022	0.0322	0.003	0.0105	2.7
0.003	0.0472	0.0022	0.0022	2.7
0.0022	0.024	0.0022	-0.003	2.6
0.0015	0.0052	0.0015	-0.006	2.6
0.0007	0.0022	0.0015	-0.0083	2.4
-0.0008	-0.006	0.0007	-0.0218	2.4
-0.0008	-0.0046	0.0022	-0.0405	2.2
0	-0.0098	0.0045	-0.0413	2.2
-0.0015	-0.0233	0.0045	-0.0181	2.1
-0.0008	-0.0353	0.0052	0.0007	2
0	-0.0368	0.0067	-0.0143	1.9
-0.0008	-0.0308	0.0067	-0.0091	1.8
-0.0008	-0.0225	0.003	0.0127	1.7
0.0015	-0.0105	0.0052	0.0262	1.6
0.0007	-0.0015	0.0022	0.033	1.4
-0.0008	0.003	0.0015	0.018	1.3
0.0015	0.0217	0.0022	0.0165	1.3
0.0015	0.0465	0.0007	0.0127	1.2
0.0007	0.0405	0.0015	0.003	1
0.0007	0.0225	-0.0008	0.0007	0.9
0.0007	0.0112	-0.0008	-0.0015	0.9
-0.0008	-0.0046	0.0007	0.021	0.8
-0.0023	-0.012	0.0015	0.0045	0.7
-0.0038	-0.0105	0.0007	-0.0495	0.5
-0.0038	-0.0128	0.0015	-0.0706	0.4
-0.003	-0.0165	0.0015	-0.0608	0.3
-0.0008	-0.0105	0.003	-0.033	0.2
0	0.003	0.0045	-0.0091	0
-0.0008	0.003	0.0015	-0.0105	-0.1
0.0007	-0.0008	0.0007	-0.0105	-0.2
-0.0015	0.0112	0.0007	0.0075	-0.3
-0.0023	0.0127	0	0.0315	-0.5
-0.0015	0.006	-0.003	0.039	-0.6
-0.0023	0.0015	-0.0053	0.0247	-0.7
-0.003	0.0007	-0.0038	0.0112	-0.9
-0.0053	0.0157	-0.003	-0.015	-1
-0.0046	0.012	-0.0015	-0.0233	-1.1
-0.0038	-0.0113	-0.003	-0.003	-1.3
-0.0053	-0.0203	-0.003	0.0067	-1.4
-0.0046	-0.027	-0.0053	0.0097	-1.5
-0.003	-0.024	-0.0053	0.003	-1.6
-0.0008	-0.015	-0.006	-0.0068	-1.8
-0.003	-0.0128	-0.0053	0.0015	-1.9
-0.0015	-0.003	-0.003	0.0157	-2
-0.0008	0.0007	-0.003	0.0255	-2.2
-0.0008	-0.0008	0	0.024	-2.3
0.0007	0.0037	0.0015	0.0127	-2.5
0.0007	0.0105	0.0045	0.0082	-2.7
0.003	0.021	0.009	-0.003	-2.8
0.0045	0.0202	0.012	-0.003	-3
0.0075	0.018	0.0127	0.0052	-3.1
0.0075	0.012	0.0142	-0.0008	-3.3
0.0082	0.0022	0.0112	-0.0188	-3.4
0.0067	-0.0008	0.0097	-0.0195	-3.6
0.0067	0.0015	0.0105	0.0075	-3.8
0.0067	0.0052	0.006	0.0202	-3.9
0.0037	0.0082	0.006	0.0157	-4.1
0.0045	0.0082	0.0067	0.0082	-4.2
0.006	0.009	0.0067	-0.0038	-4.4
0.0045	0.0105	0.0082	-0.0165	-4.5
0.0015	0.0045	0.0045	-0.0203	-4.7
0.0007	-0.006	0.003	-0.0158	-4.9
0.0007	-0.021	0.003	-0.0233	-5
-0.0008	-0.0293	0.0037	-0.0256	-5.2
0.0007	-0.0293	0.003	-0.027	-5.4
0.0015	-0.0278	0.0007	-0.0256	-5.5
0.0022	-0.0165	-0.0008	-0.0203	-5.7
0.003	-0.0091	0	-0.0256	-5.9
0.0022	-0.0015	-0.0008	-0.0068	-6.1
0.0015	0.0105	-0.0023	0.0112	-6.3
0.0007	0.0195	-0.0008	0.0195	-6.5
-0.0008	0.0255	-0.0015	0.0435	-6.7
-0.0015	0.0187	-0.0008	0.0652	-6.8
-0.0046	0.0097	0.0007	0.063	-7
-0.003	0.0097	-0.0008	0.0382	-7.2
-0.0046	-0.0008	-0.003	0.003	-7.4
-0.0068	-0.0113	-0.006	-0.0158	-7.6
-0.0046	-0.0203	-0.003	-0.0188	-7.8
-0.003	-0.0256	0	-0.0195	-8
-0.0015	-0.0173	0.0015	-0.0113	-8.1
-0.0015	-0.0181	0.0007	-0.0293	-8.3
-0.0023	-0.0173	-0.0015	-0.0405	-8.6
-0.0023	-0.0053	-0.0008	-0.0263	-8.7
-0.0008	-0.0053	-0.0015	-0.033	-8.9
-0.0015	-0.0105	-0.0068	-0.0368	-9.1
-0.0046	-0.0158	-0.0068	-0.0203	-9.3
-0.0038	-0.0135	-0.0046	-0.0083	-9.5
-0.0038	-0.0143	-0.006	-0.012	-9.6
-0.006	-0.0203	-0.0046	0.0067	-9.8
-0.0046	-0.0203	-0.006	0.0307	-9.9
-0.0046	-0.0165	-0.006	0.033	-10.1
-0.0053	-0.0068	-0.003	0.0277	-10.3
-0.003	0.0015	-0.003	0.024	-10.5
-0.0015	0.0067	0.0037	0.0195	-10.7
0.003	0.0067	0.0022	0.0052	-10.8
0	0.0067	-0.0015	-0.0075	-11
-0.0008	0.0127	0	-0.0128	-11.2
0.0015	0.0165	-0.0008	-0.0143	-11.3
-0.0015	0.0187	-0.0008	-0.0165	-11.5
0	0.0202	-0.0008	-0.0143	-11.7
0	0.0187	0	-0.003	-11.9
0.0022	0.0165	0.0022	0.0135	-12
0.003	0.0202	0.0015	0.0157	-12.2
0.0007	0.024	0.003	0.006	-12.4
0.0015	0.0255	0.0037	0.0082	-12.6
0.0007	0.0247	0.0022	0.012	-12.7
0.0015	0.0142	0.0045	0.012	-12.9
0.0022	0.0052	0.003	0.003	-13.1
0	0.0022	0.0022	-0.0068	-13.3
0.0007	0.0045	0.003	0.003	-13.5
0.003	0.0097	0.0052	0.021	-13.7
0.0022	0.0105	0.003	0.0292	-13.9
-0.0008	0.0007	0.0015	0.0285	-14
-0.0008	-0.0105	0.0037	-0.0008	-14.2
-0.0015	-0.0091	0.0045	-0.0293	-14.4
-0.0023	-0.0008	0.0045	-0.0203	-14.6
-0.0008	-0.0023	0.0045	-0.0135	-14.8
0.0007	-0.0128	0.0037	-0.0135	-14.9
-0.0008	-0.0105	0.0045	-0.0315	-15.1
-0.0008	-0.0046	0.0037	-0.048	-15.3
0.0007	-0.0083	0.0052	-0.0398	-15.5
0.0037	-0.0083	0.0045	-0.006	-15.7
0.0037	-0.0091	0.0045	0.0255	-15.9
0.003	-0.0135	0.0052	0.018	-16.1
0.0022	-0.0188	0.0052	0.0157	-16.3
0.0022	-0.027	0.0045	0.0217	-16.4
0.0015	-0.027	0.0067	0.0075	-16.7
-0.0008	-0.0308	0.0045	-0.0181	-16.8
0	-0.0293	0.0037	-0.0263	-17.1
-0.0008	-0.0181	0.0052	-0.0068	-17.3
0.0007	-0.0128	0	0.009	-17.5
-0.0015	-0.0128	-0.003	0.0022	-17.7
-0.0046	-0.0068	-0.0023	-0.0105	-17.9
-0.0015	-0.0008	-0.003	-0.0158	-18.1
-0.0008	0.0052	-0.0046	0.0022	-18.3
0.0015	0.018	-0.0046	0.0255	-18.5
0.0015	0.0247	-0.006	0.0247	-18.7
0.0015	0.024	-0.0053	0.003	-18.9
0.0015	0.0195	-0.0023	-0.0263	-19.1
0.0015	0.018	0	-0.033	-19.3
0.0007	0.021	0.003	-0.0158	-19.5
0	0.021	0.0022	-0.0008	-19.7
0	0.0202	0.0037	0.0082	-19.9
0.0007	0.0195	0.0045	0.0135	-20.1
0.0007	0.0172	0.0052	0.0127	-20.3
-0.0015	0.0105	0.0067	0.015	-20.5
-0.0015	0.0037	0.0075	0.0255	-20.7
-0.0023	-0.0046	0.0052	0.0232	-20.9
-0.0046	-0.0165	0.0037	0.015	-21.2
-0.0053	-0.0218	0.0037	0.015	-21.4
-0.0046	-0.0195	0.0022	-0.0008	-21.6
-0.0038	-0.0218	0.0015	-0.0278	-21.8
-0.003	-0.0233	0.0037	-0.0436	-22
-0.0008	-0.0165	0.0037	-0.0518	-22.2
-0.0008	-0.0098	0.0015	-0.0585	-22.5
-0.0008	-0.003	0.0007	-0.057	-22.7
0.0007	0.0037	-0.003	-0.0353	-22.9
-0.0008	0.0082	-0.0046	-0.0158	-23.1
-0.0008	0.0067	-0.0046	-0.0015	-23.3
0.0007	0.0097	-0.0068	0.024	-23.5
0.0007	0.021	-0.003	0.042	-23.8
0.003	0.0277	-0.0008	0.0495	-24
0.0037	0.0232	0.0007	0.0517	-24.2
0.003	0.0157	0.0045	0.0382	-24.4
0.003	0.0097	0.0045	0.0202	-24.7
0.0022	0.0037	0.0037	0.0157	-24.8
0.0015	-0.0038	0.0037	-0.0015	-25.1
0.0007	-0.012	0.0052	-0.015	-25.3
0.0015	-0.0083	0.0052	-0.012	-25.6
0	-0.0046	0.0037	-0.0091	-25.8
-0.0015	-0.0046	0.0015	-0.0113	-26
-0.0023	-0.006	-0.003	-0.021	-26.2
0.0007	-0.0091	-0.003	-0.0083	-26.5
0.0007	-0.0091	-0.0038	0.0127	-26.7
-0.0015	-0.0158	-0.0038	0.0225	-27
-0.0015	-0.0181	-0.0023	0.0082	-27.2
-0.0015	-0.0181	-0.0023	-0.0053	-27.4
-0.0008	-0.0158	-0.0008	0.0097	-27.7
0.0007	-0.0098	0.0022	0.012	-27.9
-0.0008	-0.0091	0.003	0.006	-28.1
0.0007	-0.0165	0.0022	0.0045	-28.4
0.0007	-0.0181	0	0.0082	-28.6
-0.0015	-0.0181	-0.0008	0.0045	-28.8
-0.003	-0.0143	-0.003	-0.0068	-29.1
-0.0015	-0.0015	-0.0008	-0.024	-29.3
0.0007	0.0045	-0.0008	-0.0495	-29.5
-0.0015	0.009	0.0007	-0.0511	-29.8
-0.0008	0.0165	0.003	-0.0361	-30
-0.0008	0.021	0.0015	-0.0225	-30.2
-0.0015	0.0127	-0.0008	-0.03	-30.5
-0.003	0.0037	-0.0008	-0.0165	-30.7
-0.0015	0.0067	0.0007	0.0307	-31
-0.0008	0.0127	-0.0015	0.0442	-31.2
0.0007	0.0202	0.0015	0.0247	-31.5
0.0015	0.0202	0.006	0.0082	-31.7
0.0007	0.0195	0.0052	-0.003	-31.9
0.003	0.021	0.006	-0.0203	-32.2
0.0015	0.0202	0.0045	-0.0015	-32.4
0.0007	0.0195	0.0015	0.0105	-32.6
0.0022	0.0135	0.0037	0.0172	-32.9
0.0015	0.009	0.0067	0.0562	-33.1
0.0022	0.0037	0.0105	0.0802	-33.3
0.003	-0.003	0.0097	0.0255	-33.6
0.003	-0.0068	0.0045	-0.0383	-33.8
0.0015	-0.012	0	-0.0285	-34.1
-0.0008	-0.0203	-0.0038	-0.0158	-34.3
-0.0015	-0.0263	-0.0008	-0.0068	-34.6
-0.0023	-0.0346	0.0022	-0.0015	-34.8
-0.0015	-0.039	0.0007	-0.0083	-35
-0.0038	-0.039	-0.0008	-0.0323	-35.3
-0.003	-0.0428	-0.0023	-0.0653	-35.5
-0.0015	-0.033	0	-0.0765	-35.7
0	-0.015	0.0007	-0.0503	-36
0.003	-0.0023	0.0007	-0.012	-36.2
0.0015	0.0045	-0.0015	0	-36.5
-0.0008	0.0015	-0.003	0.012	-36.7
-0.0008	0.0052	-0.0015	0.0345	-36.9
-0.0023	0.0105	-0.003	0.084	-37.2
-0.0046	0.0082	-0.0023	0.1215	-37.4
-0.0068	-0.003	-0.0046	0.078	-37.7
-0.0075	-0.0083	-0.0053	-0.0203	-37.9
-0.0053	-0.0083	-0.0068	-0.0653	-38.1
-0.0038	-0.0046	-0.0083	-0.042	-38.3
-0.003	0.003	-0.0053	-0.0346	-38.6
-0.0008	0.003	-0.0046	-0.0315	-38.9
0.0007	0.0015	-0.0023	-0.0353	-39.1
0	0.0045	0	-0.0488	-39.3
0.0007	0.0157	0.003	-0.0353	-39.6
0.003	0.027	0.0052	-0.0143	-39.9
0.0037	0.033	0.006	0.0045	-40.1
0.0052	0.0412	0.0067	0.0232	-40.4
0.0052	0.0555	0.0045	0.0375	-40.6
0.0045	0.0667	0.003	0.0472	-40.9
0.0022	0.057	0.003	0.0577	-41.1
-0.0008	0.0382	0.003	0.0382	-41.4
-0.0015	0.0232	0.0045	-0.0173	-41.6
0.0015	0.009	0.0082	-0.015	-41.9
0.003	0.0007	0.009	0.039	-42.1
0.0015	-0.0068	0.0127	0.0667	-42.4
0.0007	-0.0225	0.0097	0.0457	-42.7
0	-0.0405	0.0082	-0.021	-42.9
0.0007	-0.057	0.0082	-0.0555	-43.2
-0.0015	-0.063	0.003	-0.0473	-43.4
-0.0008	-0.0623	0.0022	-0.0443	-43.7
0.0007	-0.0578	0.0015	-0.0323	-44
-0.0008	-0.0488	0.0007	-0.0233	-44.2
-0.0015	-0.0413	0.0007	-0.0256	-44.5
-0.0008	-0.033	0.0022	-0.0285	-44.7
-0.0015	-0.03	0.0015	-0.0135	-45
-0.003	-0.0285	-0.0015	-0.0068	-45.3
-0.0046	-0.0188	-0.0046	-0.0173	-45.5
-0.0023	-0.0113	-0.003	-0.0068	-45.8
0.0007	0.0067	0.0007	0.0232	-46.1
0.003	0.0315	0.0037	0.039	-46.4
0.0052	0.0367	0.0045	0.0255	-46.6
0.0037	0.0352	0.0037	0.0142	-46.8
0.0052	0.042	0.0045	0.0052	-47.1
0.0052	0.0367	0.0052	-0.0203	-47.4
0.0007	0.0255	0.0045	-0.0428	-47.7
0.0022	0.0285	0.0045	-0.0495	-47.9
0.0007	0.0202	0.0022	-0.03	-48.2
-0.0008	0.0127	0.003	0.0015	-48.5
-0.0008	0.0105	0.0037	0.0172	-48.7
-0.0008	-0.0053	0.003	0.0315	-49
-0.0008	-0.015	0.0037	0.0405	-49.3
-0.0015	-0.0173	0.0007	0.0285	-49.5
0	-0.0135	0.0015	-0.0015	-49.8
0.0015	-0.0135	0.0007	-0.0248	-50
-0.0008	-0.0165	-0.0015	-0.048	-50.3
-0.0008	-0.0143	-0.0053	-0.0458	-50.6
0	-0.0046	-0.0083	-0.003	-50.9
-0.0008	0.009	-0.0075	0.0097	-51.1
0	0.0232	-0.006	0.039	-51.3
0.0015	0.0352	-0.0046	0.057	-51.6
0.0015	0.0307	-0.006	0.0607	-51.9
0.0007	0.0292	-0.0015	0.102	-52.2
0.0015	0.039	0.003	0.1087	-52.4
0	0.0382	0.0037	0.0615	-52.7
-0.003	0.0165	0.0045	-0.0188	-52.9
-0.003	-0.0046	0.009	-0.063	-53.2
-0.0008	-0.0105	0.015	-0.0691	-53.5
-0.0008	-0.0158	0.012	-0.0608	-53.7
-0.0008	-0.0256	0.0127	-0.0361	-54
-0.0008	-0.0405	0.009	-0.054	-54.2
-0.003	-0.0555	0.0037	-0.0593	-54.5
-0.0015	-0.0465	0.003	-0.0458	-54.8
-0.003	-0.03	-0.003	-0.054	-55
-0.0015	-0.0181	-0.0053	-0.0233	-55.3
-0.0023	-0.0143	-0.0113	0.0307	-55.5
-0.0046	-0.0105	-0.0105	0.0427	-55.8
-0.0015	-0.003	-0.0083	0.0495	-56.1
-0.0015	-0.0046	-0.0068	0.0787	-56.3
-0.0023	-0.0098	-0.0053	0.084	-56.6
-0.003	-0.0143	-0.003	0.06	-56.8
-0.0023	-0.0046	0.0007	0.0232	-57.1
0	0.0037	0.0045	-0.0181	-57.4
0.0007	0.003	0.0067	-0.0203	-57.6
0.0007	0.0045	0.003	0.0007	-57.9
-0.0015	-0.006	0.0015	-0.0278	-58.1
-0.0015	-0.0128	0.003	-0.0691	-58.4
0.0015	-0.0128	0.0045	-0.0818	-58.7
0.0037	-0.0105	0.0052	-0.0735	-59
0.0037	-0.0038	0.003	-0.0405	-59.2
0.0022	-0.003	-0.0015	-0.0113	-59.4
0	0.0015	-0.003	0.009	-59.8
-0.0008	0.0082	-0.003	0.012	-59.9
-0.0038	0.006	-0.0015	-0.0113	-60.2
-0.0015	0.0045	-0.003	-0.0368	-60.4
0.0007	0.018	-0.0046	-0.039	-60.7
0.0015	0.0375	-0.0015	0.0045	-60.9
0.003	0.0495	-0.0008	0.0585	-61.2
-0.0015	0.0495	-0.0008	0.0607	-61.4
0	0.0487	0.003	0.0285	-61.7
0.003	0.0495	0.0067	0.0352	-61.9
0.0045	0.0367	0.0045	0.057	-62.2
0.0015	0.0067	0.0015	0.0157	-62.4
-0.0015	-0.0218	0.0015	-0.0315	-62.6
-0.0008	-0.0315	0.003	-0.0465	-62.9
0	-0.0346	0.003	-0.0608	-63.1
-0.0008	-0.0315	0.0015	-0.0743	-63.4
-0.0008	-0.0256	-0.0008	-0.0848	-63.6
0.0007	-0.0218	-0.0008	-0.0728	-63.9
0.0015	-0.0135	-0.0015	-0.0608	-64.1
-0.0008	-0.0068	-0.0008	-0.0428	-64.4
-0.0023	0.0015	-0.0015	0.012	-64.7
0.0015	0.018	0	0.0862	-64.8
0.0037	0.0307	0.006	0.1455	-65.1
0.0015	0.0217	0.0052	0.1305	-65.3
0.0007	0.0015	0.0052	0.09	-65.6
-0.0008	-0.0053	0.0045	0.0585	-65.8
-0.0008	-0.0105	0.0022	0.015	-66.1
-0.0008	-0.0195	0.0022	-0.0383	-66.3
-0.0023	-0.0293	0.003	-0.078	-66.5
-0.0008	-0.0233	0.0052	-0.0825	-66.8
0.0007	-0.0098	0.0037	-0.063	-67
0.0007	-0.0113	0.0015	-0.012	-67.2
-0.0015	-0.0023	0.0007	0.0607	-67.5
-0.0015	0.018	-0.0008	0.0975	-67.7
0.0007	0.0217	-0.0008	0.078	-68
-0.0015	0.0067	-0.0015	0.0052	-68.2
-0.003	0.003	-0.0015	-0.057	-68.4
-0.0053	0.009	-0.0046	-0.0638	-68.7
-0.0068	-0.003	-0.0038	-0.0878	-68.9
-0.0008	-0.0098	-0.0008	-0.0915	-69.2
0.0015	-0.0128	-0.003	-0.0885	-69.4
0.0022	-0.0218	-0.003	-0.0728	-69.6
0.003	-0.0143	-0.0023	0.0232	-69.8
0.0022	0.006	0.0007	0.1267	-70.1
0.0022	0.0352	0.0037	0.144	-70.3
0.0015	0.0337	0.003	0.105	-70.5
-0.0008	0.0225	0.0067	0.141	-70.7
-0.0015	0.0315	0.009	0.1335	-71
-0.003	0.0127	0.0067	-0.0203	-71.2
-0.0046	-0.0105	0.0067	-0.1455	-71.4
-0.0015	-0.0181	0.0082	-0.1748	-71.6
0.0007	-0.0278	0.0082	-0.123	-71.9
0.0007	-0.0218	0.0037	-0.0218	-72.1
0	-0.027	-0.0015	0.0352	-72.3
-0.0008	-0.0308	-0.0008	0.0307	-72.5
0.0015	-0.0135	-0.0015	-0.0158	-72.8
0.0015	-0.0046	-0.0008	-0.0143	-73
-0.0008	0.0045	0	0.0352	-73.2
-0.0075	0.0045	-0.0023	0.0405	-73.4
-0.0068	-0.0023	0.0022	-0.033	-73.7
-0.0015	-0.0053	0.0052	-0.057	-73.9
0.0007	-0.0053	0.0052	0.039	-74.1
0.0007	-0.003	0.006	0.105	-74.3
-0.0015	-0.0098	0.0015	0.0892	-74.6
0.0007	-0.0248	-0.0015	-0.0068	-74.7
0.0015	-0.0361	-0.0046	-0.0548	-75
0.0022	-0.0278	-0.0046	-0.0555	-75.2
0.0007	-0.0203	-0.006	-0.0518	-75.4
-0.0008	-0.0128	-0.0083	-0.0315	-75.6
0.0015	-0.0053	-0.0091	0.0015	-75.9
0.0015	-0.0015	-0.0083	0.0277	-76.1
0.003	0.009	-0.0068	0.0202	-76.3
0	0.012	-0.0046	0.0547	-76.5
-0.0008	0.0225	0	0.042	-76.7
0	0.0195	0.0015	-0.0143	-77
-0.0008	0.0157	0.0037	-0.054	-77.2
0.0022	0.0375	0.006	-0.0683	-77.4
0.0037	0.0292	0.0075	-0.027	-77.6
0.0067	0.009	0.009	0.0262	-77.8
0.0067	0.0105	0.0082	0.0667	-78
0.0045	0.0127	0.0097	0.0495	-78.3
0.0015	0.0015	0.0052	-0.0181	-78.5
-0.0008	-0.015	0.003	-0.057	-78.7
-0.0023	-0.0173	0.0052	-0.0518	-78.9
-0.0015	-0.0203	0.0067	-0.0443	-79.1
0.0007	0.0105	0.0082	-0.0083	-79.3
-0.0008	0.0345	0.0052	-0.012	-79.5
-0.0053	-0.0091	0.0015	-0.0728	-79.7
-0.0068	-0.0053	0	-0.0968	-79.9
-0.003	-0.0008	0.0007	-0.0938	-80.1
-0.0015	-0.0091	0.0015	-0.0615	-80.3
0.0015	0.0082	0.0015	-0.0218	-80.6
0.0007	0.0037	0	0.0517	-80.7
0.0007	0.024	-0.0015	0.1252	-81
0.0015	0.0217	-0.0023	0.1132	-81.1
0.0022	0.0172	0.0015	0.0765	-81.4
0.0045	0.0232	-0.0008	0.072	-81.6
-0.0015	0.0202	-0.006	0.0757	-81.8
-0.0053	0.0105	-0.0068	0.039	-82
-0.0068	-0.0256	-0.0083	0.045	-82.2
-0.0053	-0.0181	-0.0053	0.057	-82.4
-0.0046	-0.0083	-0.006	-0.0248	-82.6
-0.0038	-0.006	-0.003	-0.078	-82.8
-0.0008	-0.006	0.003	-0.0743	-83
0.0007	-0.015	0.0082	-0.0878	-83.2
0.0037	-0.0008	0.0112	-0.1103	-83.4
0.0045	-0.003	0.0097	-0.1455	-83.6
0.0052	-0.0046	0.012	-0.1343	-83.8
0.0052	-0.0098	0.0097	-0.027	-84
-0.0008	-0.0105	0.0022	0.1125	-84.2
-0.006	-0.0098	-0.0038	0.207	-84.4
-0.0105	-0.0315	-0.0075	0.186	-84.6
-0.0091	-0.0233	-0.006	0.1222	-84.8
-0.0046	0.003	-0.006	0.1155	-85
-0.0046	0.0075	-0.006	0.0532	-85.2
-0.0023	0.0037	-0.0023	-0.0653	-85.4
-0.0015	-0.0015	0.0007	-0.1328	-85.5
0.0015	-0.024	0.0052	-0.123	-85.8
0.0037	-0.0405	0.0045	-0.0818	-86
0.0015	-0.0315	0.0015	-0.0585	-86.2
0.0015	-0.0368	0	-0.0278	-86.4
0	-0.0353	-0.0015	-0.0105	-86.5
0.0022	-0.0218	0	0.006	-86.7
0.003	-0.0015	-0.0015	0.0195	-86.9
0	0.0202	-0.0015	0.003	-87.1
0.003	0.027	0.0015	0.006	-87.3
0.0045	0.042	0.0052	0.0307	-87.5
0.0052	0.06	0.0052	0.0457	-87.7
0.003	0.0555	0.003	0.063	-87.9
-0.0008	0.0285	0.0045	0.0382	-88.1
0	0.009	0.0037	-0.0128	-88.3
0.0007	-0.0091	0.003	-0.0083	-88.5
0.0015	-0.0195	0.003	-0.0143	-88.7
0.0015	-0.0113	0.0052	-0.0518	-88.8
0.0045	-0.0038	0.0052	-0.0818	-89.1
0.003	-0.0158	0.0015	-0.1006	-89.2
-0.0023	-0.0473	-0.0008	-0.0893	-89.4
-0.0015	-0.0458	0	-0.0458	-89.6
-0.0008	-0.0248	0.0007	0.021	-89.8
-0.0008	0.0052	0.0007	0.0892	-90
-0.0008	0.0397	-0.0008	0.0592	-90.2
-0.0008	0.054	0.0022	0.018	-90.4
0.003	0.0547	0.003	-0.0195	-90.5
0.003	0.0165	-0.0015	-0.0383	-90.8
0	0.0052	-0.0008	0.0247	-90.9
-0.0015	0.0082	-0.0008	0.0877	-91.1
-0.003	0.0007	-0.0008	0.1575	-91.3
-0.006	0.0015	-0.003	0.09	-91.5
-0.0046	-0.0113	0.0007	-0.0368	-91.7
0.0007	-0.0008	0.006	-0.0975	-91.9
0.0015	-0.0053	0.003	-0.1215	-92.1
0.0007	-0.0038	0.0015	-0.1275	-92.3
0.003	0.009	0.0007	-0.1215	-92.4
0.0045	-0.0075	-0.0015	-0.0525	-92.7
0.0015	-0.0128	-0.0038	0.042	-92.8
-0.003	-0.0173	-0.006	0.123	-93
-0.006	-0.0458	-0.0075	0.135	-93.2
-0.0083	-0.0518	-0.003	0.1447	-93.4
-0.0091	-0.0323	0	0.1545	-93.6
-0.0083	-0.003	0.0082	0.1252	-93.8
-0.0008	0.057	0.015	0.0705	-94
0.003	0.0967	0.0157	-0.027	-94.1
0.0045	0.0967	0.0165	-0.057	-94.3
0.0015	0.048	0.012	-0.0075	-94.5
-0.0023	0.0052	0.0105	-0.0346	-94.7
-0.0008	-0.0173	0.006	-0.0908	-94.9
-0.0015	-0.057	-0.0015	-0.0825	-95
-0.0015	-0.063	-0.0053	-0.1313	-95.2
-0.0038	-0.0893	-0.0075	-0.1815	-95.4
-0.003	-0.0825	-0.006	-0.1575	-95.6
-0.0008	-0.0495	-0.0068	-0.1103	-95.8
-0.0008	-0.0473	-0.0053	-0.0533	-95.9
0.0015	-0.021	-0.0023	-0.0015	-96.1
0.0015	0.0045	0.0007	0.0142	-96.3
0.003	0.0247	0.003	-0.015	-96.4
0.003	0.0405	0.003	-0.0046	-96.6
0.003	0.0667	0.006	0.0405	-96.8
0.0045	0.0502	0.0045	0.0622	-97
-0.0015	0.012	0.0015	0.0787	-97.2
-0.0023	0.0052	0.0015	0.1042	-97.3
0.003	0.0165	0.0015	0.093	-97.6
0.0052	0.0217	0.0037	0.0442	-97.7
0.006	0.0067	0.0022	0.0667	-97.8
0.0007	0.012	-0.0015	0.1312	-98
-0.006	0.015	-0.0038	0.1612	-98.2
-0.0068	0.0067	-0.0015	0.0997	-98.3
-0.0075	-0.0256	-0.003	-0.0233	-98.5
-0.0068	-0.027	0.0022	-0.0721	-98.7
-0.0015	0.0232	0.006	-0.0743	-98.8
0.0015	0.0217	0.0045	-0.0975	-99
-0.0015	-0.003	0.003	-0.1215	-99.2
-0.0008	-0.0068	-0.0008	-0.108	-99.3
0.0022	-0.0233	0.0015	-0.0706	-99.5
0.0015	-0.0225	0.0007	-0.0511	-99.6
0.0015	-0.0165	-0.0015	-0.0383	-99.8
0.003	-0.0293	-0.0015	-0.012	-100
0.0015	-0.0346	-0.0046	0.042	-100.1
0.0007	-0.0308	-0.0015	0.0712	-100.3
0.0022	-0.0256	-0.0015	0.0427	-100.5
-0.0008	-0.0038	-0.0008	0.0105	-100.6
-0.0015	0.0292	0.0007	-0.0203	-100.8
-0.0015	0.0255	0	-0.0188	-100.9
-0.0023	0.0232	0.0045	0.0135	-101.1
0.0015	0.0337	0.0037	0.0082	-101.3
0.0007	0.0105	0.0052	-0.0113	-101.4
0.0022	0.0127	0.0082	-0.0293	-101.5
0.0037	0.0015	0.003	-0.0713	-101.7
0.003	-0.0195	0.0007	-0.0735	-101.8
0.003	-0.0128	0.0015	-0.048	-102
-0.0015	-0.0315	-0.0008	-0.0165	-102.1
-0.0046	-0.0181	-0.0015	0.0337	-102.3
-0.0053	0.0202	-0.0008	0.0255	-102.4
-0.003	0.006	0.0015	0.0457	-102.6
-0.0023	0.024	0.0037	0.1222	-102.7
-0.0015	0.0457	0.0045	0.0757	-102.9
-0.0008	0.012	0.006	0.0645	-103
-0.0008	0.0277	0.0082	0.087	-103.1
0.0007	0.0112	0.006	0.0352	-103.3
0.0015	-0.0091	0.0015	0	-103.5
-0.0023	-0.0128	-0.0008	-0.054	-103.6
-0.0015	-0.0308	-0.0008	-0.06	-103.8
0	-0.0181	0	-0.0428	-103.9
-0.0023	-0.0293	-0.0008	-0.0308	-104
0	-0.033	0.0015	-0.0091	-104.1
0.0007	-0.0181	0.0052	0.0037	-104.2
0.0015	-0.003	0.0082	0.0142	-104.3
0.003	-0.0038	0.0075	0.0322	-104.4
0.0045	0.0067	0.0052	0.027	-104.5
0.0015	0.024	0.003	-0.0105	-104.7
0	0.03	-0.0015	-0.0195	-104.8
-0.0015	0.0217	-0.0053	-0.0495	-104.9
-0.006	-0.0293	-0.0105	-0.054	-105
-0.0053	-0.0353	-0.0128	-0.0495	-105.1
-0.0046	-0.0233	-0.0143	-0.042	-105.3
-0.0023	-0.006	-0.012	0.0075	-105.3
-0.0008	0.0277	-0.0068	0.0345	-105.5
-0.0015	0.027	-0.003	0.042	-105.6
-0.0015	0.009	-0.0008	0.0195	-105.7
-0.0008	-0.0068	-0.0008	0.0157	-105.8
-0.0008	-0.0046	-0.0015	0.0172	-105.9
-0.0008	0.003	0.0015	0.0015	-106.1
-0.0008	-0.0068	0.0052	-0.0113	-106.2
0	-0.0075	0.0082	-0.039	-106.2
0.003	0.0045	0.0082	-0.0675	-106.3
0.0037	0.003	0.0045	-0.0871	-106.5
0.0052	0.0052	0.006	-0.0691	-106.6
0.0052	0.0142	0.0045	-0.0105	-106.7
0.0037	0.0007	0.0037	0.0525	-106.7
0.0015	-0.0158	0.0015	0.042	-106.8
-0.0008	-0.0158	-0.0008	0.0045	-106.9
-0.0008	-0.0105	0.0015	0.0285	-107.1
0	-0.0195	0.0007	0.0337	-107.1
-0.0008	-0.0113	0.0015	0.0682	-107.2
-0.0046	0.0127	-0.0015	0.0517	-107.3
-0.0068	-0.006	-0.0015	-0.0195	-107.4
-0.003	-0.0128	-0.0008	-0.0053	-107.5
0	-0.0008	0.0022	0.0082	-107.6
0.0015	0.012	0.0037	0.027	-107.7
0.003	0.0045	0.003	0.006	-107.8
0.003	-0.0173	0.0052	-0.0368	-107.9
0.003	-0.0105	0.0082	-0.048	-108
0.0045	0.0022	0.0082	-0.0256	-108
0.0052	0.0247	0.003	0.0142	-108.1
0.0022	0.0315	-0.0008	0.0165	-108.2
-0.0015	0.0322	-0.0015	0.0195	-108.3
-0.0053	0.0142	0	-0.0203	-108.4
-0.0046	-0.0158	0.003	-0.0128	-108.4
-0.0023	-0.0113	-0.0015	-0.0068	-108.5
-0.0015	-0.0225	-0.003	-0.0368	-108.5
-0.0008	-0.0165	0.0007	0.0007	-108.6
-0.0008	-0.0105	0.0015	0.0157	-108.7
-0.0008	-0.0308	0.0052	0.027	-108.7
0	-0.0233	0.0052	0.0157	-108.8
0.0022	-0.0128	0.0067	-0.0075	-108.9
0.0015	0.009	0.006	-0.0091	-108.9
0.0007	0.0292	0.0067	0.0142	-109
0	0.0292	0.0082	0.0427	-109.1
0.0015	0.027	0.006	0.0127	-109.1
0.0007	0.0217	0.0067	-0.024	-109.2
0.0007	0.0052	0.0045	-0.033	-109.3
-0.0008	0.009	0.003	-0.0338	-109.4
0.0007	0.0367	0.003	-0.048	-109.4
-0.0023	0.0052	-0.0008	-0.033	-109.4
-0.0038	-0.0068	0.003	-0.0083	-109.5
0	-0.0046	0.0022	-0.0203	-109.5
-0.0015	-0.0218	-0.0015	-0.0203	-109.6
-0.0015	-0.0105	-0.0008	0.003	-109.6
-0.0023	-0.0181	-0.0023	0.0615	-109.6
-0.0023	0.0015	0.0007	0.1042	-109.7
-0.0015	0.0105	0.0007	0.063	-109.7
-0.0038	-0.0143	-0.0008	0.0067	-109.8
-0.0053	-0.0308	0.0015	-0.0338	-109.8
-0.0068	-0.0368	0.0015	-0.0465	-109.8
-0.0053	-0.0128	0.003	0.0015	-109.9
-0.003	0.0232	0.0045	0.006	-109.9
0.0007	0.0427	0.0045	-0.0143	-110
0.003	0.0375	0.0045	-0.0188	-110
0.0015	0.0045	0.0022	-0.0353	-110
0.0015	-0.0308	0.0007	-0.0091	-110.1
0.0015	-0.0443	0	-0.0091	-110.1
0.0007	-0.0353	0.0015	-0.0256	-110.2
0.0015	-0.0203	0.0007	-0.0225	-110.2
0.003	-0.0015	-0.0023	0.012	-110.2
0.0015	0.0127	-0.006	0.057	-110.2
0.0007	0.0037	-0.0075	0.051	-110.2
0.0007	-0.0173	-0.0068	0.0165	-110.2
0.0015	-0.021	-0.0046	-0.0323	-110.2
0.0045	-0.0143	-0.003	-0.0578	-110.3
0.0045	-0.0181	-0.0008	-0.066	-110.3
0.0045	-0.0068	0.003	-0.0691	-110.3
0.006	0.0187	0.003	-0.042	-110.3
0.0067	0.0397	0.0037	-0.0008	-110.3
0.0067	0.0502	0.0045	0.0465	-110.3
0.0022	0.042	0.0015	0.0757	-110.3
-0.0023	0.0315	0.0015	0.048	-110.3
-0.0038	0.0262	0.0007	0.0202	-110.3
-0.0046	0.0112	0.0022	0.0607	-110.3
-0.0053	-0.0038	0.0022	0.051	-110.3
-0.0038	-0.0293	0.0015	0.0075	-110.4
-0.0038	-0.042	0	0.009	-110.4
-0.003	-0.0173	-0.0015	-0.0181	-110.4
-0.0008	0.0015	0.0007	-0.0203	-110.4
-0.0008	0.0247	0.0007	-0.012	-110.4
0.0007	0.0217	0.0007	-0.0458	-110.4
0.0022	-0.003	0.0022	-0.0593	-110.3
0.003	0.0067	0.0052	-0.027	-110.3
0.0007	-0.0068	0.0045	0.0022	-110.3
-0.0008	-0.0233	0.0007	0.0067	-110.3
-0.0023	-0.024	-0.003	0.012	-110.3
-0.0046	-0.0278	-0.0068	-0.0105	-110.3
-0.0038	-0.0256	-0.0046	-0.0218	-110.3
-0.0008	-0.0143	-0.0038	-0.0083	-110.3
0.0007	-0.0053	-0.0015	-0.003	-110.2
-0.0023	-0.0038	0.0007	0.0037	-110.2
-0.0008	0.0052	-0.0015	-0.0068	-110.2
0.0007	0.0045	0.0007	-0.0158	-110.2
-0.0008	0.0067	0.0007	-0.0263	-110.2
-0.0015	0.0127	-0.0008	-0.0361	-110.1
-0.0008	0.0195	0.0015	-0.0203	-110.1
0.0007	0.012	0.0015	-0.0008	-110.1
0.0015	0	0.0045	0.0322	-110.1
0.0022	0.0127	0.0052	0.075	-110
0	0.0135	0.0015	0.0577	-110
-0.003	-0.0053	-0.0008	0	-109.9
-0.0053	-0.0075	-0.0008	-0.0188	-109.9
-0.0023	0.0075	0.0015	-0.0181	-109.8
-0.0015	0.0045	0.0007	0.0082	-109.8
-0.003	0.0075	0.0015	0.0172	-109.8
-0.0015	-0.0046	0.0015	-0.0015	-109.7
-0.0015	-0.0293	-0.0015	-0.0068	-109.7
-0.003	-0.0375	-0.0015	0.003	-109.6
-0.003	-0.0383	-0.0023	0.0157	-109.6
-0.003	-0.0233	-0.0015	0	-109.5
-0.0015	-0.012	0.0007	-0.0165	-109.5
0.0007	-0.0038	0.0015	-0.0165	-109.4
0.0007	0.0007	0.0007	-0.0128	-109.4
-0.0008	0.0075	0.0007	-0.0068	-109.4
0.0007	0.0135	0.0015	0	-109.3
0.0015	0.0112	0.0015	-0.003	-109.3
0.0022	0.012	0.0007	-0.0128	-109.2
0.003	0.015	0.0015	-0.0173	-109.2
0.0037	0.0112	0.0015	-0.0218	-109.1
0.0037	0.0045	0.0015	-0.0308	-109
0.0022	-0.0015	0.0007	-0.0383	-108.9
0	-0.0053	0.0015	-0.0181	-108.9
-0.0008	0.0007	0.003	0.0195	-108.8
-0.003	0.0195	0.0015	0.0615	-108.8
-0.0038	0.0292	0.0015	0.066	-108.7
-0.0015	0.0082	0.003	0.0232	-108.6
-0.0015	-0.0068	0.003	0.0195	-108.5
-0.003	0.0007	0.0015	0.0202	-108.5
-0.003	-0.015	-0.0015	-0.0203	-108.4
-0.0038	-0.039	-0.003	-0.0091	-108.3
-0.003	-0.0375	-0.0015	0.0067	-108.3
-0.0023	-0.0263	-0.0015	0.0052	-108.2
-0.0008	-0.0083	-0.0015	0.0157	-108.1
0.0007	0.0052	-0.0015	-0.006	-108
0.0015	0.03	-0.0008	-0.0203	-108
0.0022	0.042	0.0007	-0.0383	-107.9
0.0007	0.0255	0.0015	-0.0353	-107.9
0.0022	0.027	0.0045	-0.0181	-107.8
0.0037	0.0202	0.0067	-0.0113	-107.7
0.0022	0.0142	0.006	0.0052	-107.6
0.0015	0.0052	0.0045	0.009	-107.5
0.0015	-0.0038	0.0045	0.0165	-107.4
0.0022	-0.0038	0.0045	0.0157	-107.3
-0.0008	-0.0173	0.0037	-0.0038	-107.2
-0.0008	-0.0225	0.003	-0.0128	-107.1
0	-0.0225	0.0022	-0.012	-107.1
-0.0008	-0.0248	0.003	-0.0128	-107
-0.0008	-0.0195	0.0022	-0.0091	-106.9
0	-0.0105	0.003	-0.0143	-106.8
0.0007	-0.0113	0.0045	-0.024	-106.7
-0.0008	-0.0135	0.003	-0.0046	-106.7
0.0007	-0.0046	0.0022	-0.0008	-106.6
0.0007	0	-0.0008	-0.0143	-106.5
-0.0008	-0.0008	0.0007	-0.0008	-106.4
-0.0008	0.0045	0.0007	0.0037	-106.3
-0.0015	0.0045	-0.0008	0.0187	-106.2
-0.003	0.0082	0.0007	0.0345	-106.1
-0.0046	0.0015	0	0.0247	-106
-0.003	-0.0068	0.0007	0.0232	-105.9
0.0007	-0.0046	0.003	0.0105	-105.8
0.0015	-0.0046	0.0045	-0.0083	-105.8
0.003	-0.003	0.0045	-0.0315	-105.6
0.003	0.0052	0.0022	-0.0413	-105.5
0.0045	0.0255	0.0015	-0.0368	-105.4
0.0045	0.0217	0.0015	-0.0203	-105.3
0.003	0.0015	0.0015	0.0292	-105.3
0.003	0.003	0.0022	0.0637	-105.2
-0.0008	0.0045	0	0.0547	-105
-0.003	-0.0046	-0.0023	0.018	-104.9
-0.003	-0.0143	-0.0008	-0.0195	-104.9
-0.0015	-0.0128	0.0015	-0.0323	-104.8
0.0015	-0.0015	0.0022	-0.0285	-104.7
0.0015	0.0022	0.0015	-0.006	-104.6
-0.0008	0.0022	0.0022	0.0232	-104.5
-0.0008	0.0022	0.0022	0.024	-104.4
0	-0.0008	0.0045	0.0217	-104.3
0	0.0082	0.003	0.0127	-104.2
-0.0008	0.0082	0.0007	-0.0105	-104.1
-0.0008	-0.006	-0.0008	-0.015	-104
-0.0023	-0.012	-0.003	-0.0218	-103.9
-0.003	-0.0158	-0.0023	-0.0248	-103.8
-0.003	-0.0233	-0.0015	-0.024	-103.7
-0.003	-0.0195	-0.003	-0.0225	-103.5
-0.003	-0.0083	-0.003	-0.0128	-103.5
-0.0008	-0.003	-0.0023	-0.0008	-103.4
0.0015	0.0045	-0.0015	0.0075	-103.2
0.0007	0.0127	-0.0015	0.012	-103.1
0.0015	0.0172	0.0007	0.0225	-103
0.0007	0.0172	-0.0008	0.0217	-102.9
0	0.018	-0.0015	-0.0046	-102.8
-0.0015	0.012	-0.003	-0.0128	-102.7
-0.0008	0.0075	-0.0015	-0.003	-102.6
-0.0008	0.0135	0.0007	-0.003	-102.5
-0.0008	0.0007	0.0007	0.003	-102.4
0.0007	-0.0068	0.0007	0.0007	-102.3
0	-0.0128	0	0.0052	-102.2
-0.0015	-0.0233	-0.003	0.0067	-102.1
-0.0008	-0.0278	-0.0015	-0.0458	-102
-0.0008	-0.042	-0.0023	-0.0706	-101.9
0	-0.0203	-0.0008	-0.0473	-101.8
0.0022	-0.003	0.0015	-0.0181	-101.7
0.0015	-0.0135	0.0052	0.0285	-101.6
0.0015	0.0052	0.0105	0.06	-101.5
0.0022	0.0315	0.0105	0.0442	-101.4
-0.0015	0.0285	0.0067	-0.0046	-101.3
-0.0023	0.0232	0.0067	-0.042	-101.2
-0.0008	0.021	0.0052	-0.0473	-101.1
0	0.0037	0.0045	-0.0368	-100.9
0.0015	-0.003	0.0045	-0.03	-100.8
0.0015	-0.0023	0.0037	0.0015	-100.8
0.0015	-0.003	0.0045	0.0615	-100.7
0.0007	0.0007	0.0052	0.0915	-100.5
0.0015	-0.0038	0.0052	0.0502	-100.4
0.0022	-0.0046	0.0052	-0.0158	-100.4
-0.0008	-0.0098	0.0015	-0.021	-100.3
-0.0008	-0.0225	0.0015	-0.0181	-100.1
-0.0008	-0.0158	0	-0.0181	-100
-0.0015	-0.0098	0	-0.0105	-99.9
-0.0015	-0.0091	0.0015	-0.0256	-99.9
-0.0023	0	0	-0.0135	-99.8
0.0007	0.0105	0.0007	-0.003	-99.6
0.0007	0.012	0.0015	0.0202	-99.5
0.0007	0.0247	0.0007	0.0517	-99.5
0.0015	0.0315	0.0022	0.0532	-99.4
0.0007	0.0105	0.0015	0.0232	-99.2
-0.0008	0.0015	0.0015	-0.003	-99.1
-0.0015	0.006	0.0015	0.003	-99
-0.0008	0	-0.0008	0	-98.9
-0.0008	-0.0225	-0.003	-0.0083	-98.8
-0.0008	-0.0233	-0.003	-0.015	-98.7
-0.0015	-0.0015	-0.0023	-0.0158	-98.6
-0.0015	-0.0015	-0.003	-0.0203	-98.5
-0.0008	-0.0105	0	-0.0188	-98.4
-0.0008	-0.0083	0.0007	-0.0158	-98.3
0.0007	-0.0068	0.0007	-0.0158	-98.2
-0.0015	-0.0113	-0.0023	-0.0135	-98.1
-0.0015	-0.0075	-0.003	-0.0015	-98
-0.0015	0.0007	0	0.006	-97.9
-0.003	0.0067	-0.0008	-0.0091	-97.8
-0.0008	0.0015	-0.0023	-0.0128	-97.7
-0.0008	-0.003	-0.0023	-0.0113	-97.6
-0.0008	-0.0068	0.0007	-0.0105	-97.5
0.0015	-0.0075	0.0022	0.0082	-97.4
0.0015	0.0022	0.003	0.045	-97.3
0.0022	0.0082	0.003	0.045	-97.2
0.0015	0.018	0.0037	0.018	-97.1
0.0007	0.0292	0.003	0.018	-97
0.0007	0.0255	0.0052	0.0007	-96.9
-0.0008	0.0022	0.003	-0.033	-96.8
-0.003	-0.0068	0.0015	-0.0315	-96.7
-0.0038	0.0105	0.0037	-0.012	-96.6
-0.0015	0.0045	0.0022	-0.0165	-96.5
-0.0008	-0.0113	0.0045	-0.0158	-96.4
-0.0008	-0.0195	0.0037	-0.015	-96.3
0	-0.0263	0.0015	-0.0098	-96.2
0	-0.0218	0.0007	-0.006	-96.1
0.0015	-0.0218	0.003	-0.0046	-96
0.0007	-0.0173	0.0007	0.0045	-95.9
0	-0.0075	0.0007	-0.0015	-95.8
0.0015	0.003	0.0015	-0.0083	-95.7
-0.0015	0.0082	0.0007	-0.0105	-95.6
-0.0015	0.012	0.0007	0.0015	-95.5
-0.0008	0.0165	-0.0008	0.0015	-95.4
-0.0015	0.0052	0	-0.0091	-95.3
0	0.003	-0.0008	-0.0075	-95.2
0	0.0105	0.0007	-0.0053	-95.1
0.0007	0.0172	0.003	0.0045	-95
0.0015	0.0217	0.0045	0.0165	-94.9
0.0022	0.0225	0.0052	0.0232	-94.8
0.003	0.0217	0.0022	0.0127	-94.7
0.003	0.0105	0.0007	0.0015	-94.6
0.0007	-0.0075	0.0007	-0.003	-94.5
-0.0008	-0.0181	-0.0008	-0.0046	-94.4
0	-0.0263	0	-0.012	-94.3
-0.0023	-0.0383	-0.0008	-0.0023	-94.2
-0.003	-0.0383	-0.0008	0.0157	-94.1
-0.0015	-0.0308	-0.003	0.0112	-94
0	-0.0233	-0.0046	0.0195	-93.9
0	-0.012	-0.0046	0.0165	-93.8
-0.0015	0.0045	-0.0015	-0.0038	-93.6
-0.0015	0.027	-0.0008	-0.0323	-93.6
-0.0008	0.0292	-0.0015	-0.042	-93.4
-0.0008	0.0337	0.0007	-0.0465	-93.3
-0.0023	0.0202	-0.0008	-0.0413	-93.2
-0.0008	-0.0181	-0.0023	0.0075	-93.1
0	-0.0181	0.0022	0.0405	-93
-0.0008	-0.0023	0.0022	0.0495	-92.9
0.0015	-0.0105	0.0052	0.024	-92.8
0.003	-0.024	0.006	-0.003	-92.7
0.0007	-0.0188	0.0045	0.003	-92.6
0.0007	-0.015	0.0037	0.0037	-92.5
0	-0.0165	0.0007	0.0105	-92.3
0	-0.0128	0.0007	0.009	-92.3
0.0007	-0.0113	0.0007	0.0105	-92.2
-0.0008	0.0142	0.0007	0.0037	-92
-0.0015	0.0382	0.0007	-0.012	-91.9
-0.0008	0.042	0.003	-0.0128	-91.8
0.0015	0.0165	0.003	-0.0165	-91.7
0.0007	-0.0068	0.0037	-0.012	-91.6
0	0.0082	0.0045	-0.0091	-91.5
-0.0015	0.012	0.0007	-0.0105	-91.4
-0.003	0.009	-0.0015	-0.0068	-91.3
-0.0015	0.0067	-0.003	-0.0113	-91.2
-0.0023	0.0067	-0.0046	-0.012	-91.1
-0.0015	0.0082	-0.003	-0.0091	-90.9
-0.0008	0.0052	0.0007	-0.0015	-90.9
0.0015	0.006	-0.0008	0.0052	-90.7
0.0022	0.003	-0.0015	0.0082	-90.6
0	-0.0038	-0.0038	0.018	-90.5
-0.003	-0.0098	-0.006	0.0157	-90.4
-0.0046	-0.0158	-0.0053	0.0105	-90.3
-0.003	-0.0128	-0.0038	0.0172	-90.2
-0.0008	0.0052	0.003	0.003	-90.1
-0.0008	-0.0023	0.0075	-0.0195	-90
-0.0008	-0.0165	0.009	-0.024	-89.9
0.0007	-0.0105	0.0105	-0.0143	-89.8
0.0015	-0.0188	0.012	-0.0083	-89.6
0.003	-0.0165	0.0082	-0.0046	-89.6
0.0007	-0.0128	0.0045	0.0007	-89.4
-0.003	-0.0135	0.003	-0.0038	-89.3
-0.003	-0.0068	-0.0008	-0.003	-89.2
-0.003	-0.0053	-0.0008	-0.006	-89.1
-0.0008	0.0015	0.0022	-0.0143	-89
-0.0008	0.0075	0.0022	-0.015	-88.9
0.0015	0.0097	0.0052	-0.0023	-88.7
0.0022	0.009	0.0045	0.0052	-88.7
0.003	0.0097	0.0045	-0.0038	-88.5
0.0045	0.0015	0.0052	-0.0143	-88.4
0.003	-0.0053	0.0067	-0.0203	-88.3
0.003	0.0007	0.0082	-0.0105	-88.2
0.0037	-0.006	0.0082	-0.0015	-88.1
0.0037	-0.0128	0.009	0.0082	-87.9
0.0022	-0.006	0.0052	0.0315	-87.8
0.0022	0.009	0.0067	0.057	-87.7
0.0045	0.033	0.0075	0.0457	-87.6
0.0045	0.0217	0.0037	0.0142	-87.5
0.003	0.0082	0.0007	0.006	-87.4
0.003	0.0142	0	-0.0158	-87.3
0.0022	-0.0143	0.0022	-0.0383	-87.1
-0.0008	-0.0053	0.0007	-0.03	-87
-0.0015	-0.0091	-0.0008	-0.0165	-86.9
-0.003	-0.0181	-0.0068	-0.0068	-86.8
-0.0038	-0.0053	-0.0068	-0.0083	-86.7
-0.003	-0.0143	-0.0046	-0.0053	-86.5
-0.0023	-0.0015	-0.0053	-0.0023	-86.4
-0.0023	-0.006	-0.0053	-0.0053	-86.3
-0.0038	-0.0046	-0.006	-0.0038	-86.2
-0.0046	-0.0068	-0.0038	-0.0046	-86.1
-0.003	-0.0105	-0.003	-0.0083	-86
-0.003	-0.0053	0.0015	-0.0091	-85.9
-0.0015	-0.0053	0.0015	-0.0075	-85.7
-0.0023	-0.0008	-0.003	-0.0165	-85.6
-0.0046	-0.0015	-0.0068	-0.0218	-85.5
-0.0038	0.0052	-0.0075	-0.0053	-85.4
-0.003	0.0067	-0.0091	0.018	-85.3
-0.0038	0.0105	-0.0075	0.0285	-85.1
-0.0015	0.012	-0.0046	0.0352	-85.1
-0.003	0.0225	-0.006	0.0607	-84.9
-0.0015	0.0367	-0.003	0.0487	-84.8
0	0.0187	-0.0015	-0.0105	-84.6
0.0015	-0.0053	0.0015	-0.063	-84.5
0.0007	-0.0165	0.003	-0.0713	-84.4
0	-0.0233	0.0015	-0.033	-84.3
0.0007	-0.0225	0.0007	0.0075	-84.2
-0.0015	-0.012	-0.0015	0.0367	-84
-0.0023	-0.0038	-0.0023	0.0457	-83.9
0	-0.0091	-0.0015	0.0082	-83.7
0.0015	-0.0203	0.0007	-0.012	-83.6
-0.0008	-0.0143	0.0015	-0.0008	-83.5
-0.003	-0.0105	0.0045	-0.0098	-83.4
-0.0015	-0.0083	0.009	-0.0046	-83.3
-0.0008	-0.0046	0.0067	-0.0053	-83.1
-0.0008	-0.003	0.0022	-0.0008	-83
-0.0008	0.0007	0.0007	0.0007	-82.8
-0.0008	0	0.003	-0.0053	-82.8
-0.0008	-0.0008	0.003	0.0007	-82.6
-0.0008	0.006	0.0067	0.003	-82.5
0.0022	0.027	0.0097	0	-82.4
0.0022	0.0435	0.0082	-0.0083	-82.2
-0.0008	0.0217	0.0052	0.0045	-82.1
-0.0015	0.0067	-0.0008	0.0135	-81.9
-0.0015	0.0157	-0.0008	0.0067	-81.8
0.0015	0.0082	0.0045	-0.0181	-81.6
0.0045	-0.0038	0.0067	-0.0181	-81.5
0.0045	-0.0083	0.0052	-0.003	-81.4
0.0022	-0.0278	0.0045	-0.0158	-81.2
0.003	-0.0368	0.0037	-0.0068	-81.1
0.0037	-0.0098	0.0045	-0.0046	-80.9
0.0015	-0.0046	0.0082	-0.0053	-80.8
0.0007	-0.0165	0.0067	-0.0015	-80.6
0	-0.0068	0.0067	-0.0038	-80.5
0.0007	-0.0068	0.0067	0	-80.4
0.0015	-0.003	0.0037	-0.003	-80.2
0.0022	0	0.0022	-0.0008	-80.1
0	-0.0023	0.0007	-0.0008	-79.9
-0.0015	0.0007	-0.0015	0.0007	-79.8
-0.0015	0.0015	-0.003	0.0007	-79.7
-0.003	0.0037	-0.0015	0	-79.5
-0.003	0.0045	-0.0008	0.0007	-79.4
-0.0038	0.0045	-0.0015	0.0007	-79.2
-0.0008	0.0045	-0.0023	0.0007	-79.1
-0.0008	0.003	-0.0038	-0.003	-78.9
-0.0015	0.0007	-0.003	-0.0038	-78.8
-0.0015	0.0007	-0.0015	-0.003	-78.6
-0.0008	0.003	0	-0.0008	-78.4
0.0022	0.0037	0.0037	0.003	-78.3
0.003	0.0067	0.0037	0.0067	-78.1
0.0022	0.0052	0.0015	0.006	-78
0.0037	0.009	0.0015	0.0052	-77.9
0.0015	0.0165	0.0015	0.009	-77.7
0	0.0037	0.0037	0.009	-77.5
0.0007	-0.0008	0.0052	0	-77.4
0.0007	0.003	0.003	-0.0023	-77.2
-0.0008	-0.003	0.0007	0.0007	-77.1
-0.0008	-0.003	0.0007	0	-76.9
0.0007	-0.0053	-0.0008	-0.0008	-76.8
-0.0008	-0.0053	-0.003	-0.0113	-76.6
-0.0023	-0.0053	-0.003	-0.0173	-76.5
-0.003	-0.0091	-0.0053	-0.0173	-76.3
-0.0046	-0.0105	-0.0046	-0.0233	-76.1
-0.006	-0.0158	-0.0023	-0.027	-76
-0.0046	-0.024	-0.0008	-0.0225	-75.8
-0.0023	-0.0308	0.0015	-0.0105	-75.6
-0.0008	-0.0143	0.0037	0.0105	-75.5
0	0.0052	0.0045	0.027	-75.3
0.0015	0.0097	0.003	0.0495	-75.1
0.003	0.015	0.003	0.048	-74.9
0.0015	0.033	0.003	0.015	-74.7
-0.0008	0.0532	-0.0015	0.0015	-74.6
-0.0015	0.027	-0.0053	-0.0181	-74.4
-0.0015	-0.0053	-0.0068	-0.012	-74.3
-0.0023	-0.006	-0.0068	-0.0038	-74.1
-0.0023	-0.0203	-0.0046	-0.0046	-73.9
-0.0015	-0.0143	-0.003	0	-73.8
-0.0008	-0.0091	-0.0015	-0.0083	-73.6
0.0007	-0.0053	-0.0008	0.003	-73.4
0.0007	0.009	-0.0015	-0.0008	-73.3
0.0007	0.018	0	0.0037	-73.1
0.0007	0.0352	-0.0015	0.0082	-72.9
0.0015	0.0292	-0.0015	0.0157	-72.7
0.0007	0.0135	0	0.0292	-72.5
0	0.0067	0.0007	0.0067	-72.4
0.0007	-0.0083	0.003	-0.024	-72.2
-0.0008	-0.024	0.0015	-0.0143	-72
-0.0015	-0.0398	-0.0008	-0.0098	-71.8
-0.003	-0.045	0	-0.0143	-71.6
-0.003	-0.0353	0.003	-0.0038	-71.5
0.0007	-0.0293	0.0067	-0.0053	-71.3
0.0037	-0.0143	0.009	-0.0046	-71.1
0.0037	0	0.0052	-0.003	-71
0.0022	-0.003	0.0015	0.0045	-70.8
0.0015	-0.006	0.0015	-0.0008	-70.6
0.0007	-0.003	0.003	-0.0068	-70.4
-0.0008	0.0127	0.0045	-0.0128	-70.2
-0.0015	0.012	0.0045	-0.0315	-70.1
-0.0008	-0.0053	0.0015	-0.039	-69.9
0	-0.0068	0.0015	-0.042	-69.7
0.0007	0.0015	0.0015	-0.0293	-69.5
0.0015	0.0067	0.0007	-0.0068	-69.3
0	0.003	0.0007	0.0007	-69.2
0	0.0037	0.0015	0.0052	-68.9
0.0007	0.0015	0.0022	0.0067	-68.8
0.0015	0.0007	0.0015	0.0067	-68.6
-0.0008	-0.0008	0.003	0.0142	-68.4
0.0007	-0.003	0.0037	0.0142	-68.2
0.0007	-0.0023	0.0045	0.012	-68
0.0015	-0.0083	0.0037	0.0127	-67.8
0.0022	-0.0053	0.003	0.015	-67.6
0.0022	-0.0015	0.0045	0.018	-67.4
0.0015	0.0127	0.0052	0.0157	-67.2
0.0007	0.03	0.0067	0.0015	-67.1
0.0007	0.0082	0.0037	-0.0053	-66.8
-0.0008	0.0112	0.0015	-0.0015	-66.6
0.0007	0.024	0.0015	-0.0143	-66.5
0.0015	-0.012	0.0015	-0.0091	-66.3
-0.0008	0.0022	0.0007	0	-66.1
-0.0008	0.0187	-0.0008	-0.0068	-65.9
-0.0008	-0.0008	-0.0015	-0.0068	-65.7
-0.0023	-0.003	0.0022	-0.006	-65.5
-0.0015	-0.0105	0.0015	-0.0015	-65.3
-0.0008	-0.0083	0.0015	-0.0015	-65.1
-0.0015	-0.0105	0.0045	-0.0008	-64.9
-0.0015	-0.0083	0.0015	-0.0023	-64.8
-0.0015	-0.0075	0.0015	-0.0038	-64.6
0.0007	-0.0068	0.0022	-0.003	-64.4
0.0007	-0.0015	0.0022	-0.003	-64.2
-0.0008	-0.003	0.003	0	-64
0	0.003	0.0007	0.0007	-63.8
-0.0015	0.003	-0.0015	0.003	-63.6
-0.0015	0.0052	-0.0008	0.0045	-63.4
-0.0023	0.003	0.0007	0.0052	-63.2
-0.0015	-0.0015	0.0045	0.0045	-63
0	-0.0053	0.006	0.0015	-62.8
-0.0015	-0.0068	0.0052	0.0007	-62.6
-0.0008	-0.003	0.0045	0.0007	-62.5
-0.0015	-0.0083	0.0045	0.0007	-62.2
-0.0015	-0.006	0.0052	0.0007	-62.1
0.0015	-0.0023	0.0045	-0.0008	-61.9
0.003	-0.0008	0.0045	-0.0015	-61.7
0.0052	0.0015	0.0045	-0.0008	-61.5
0.0052	0.0007	0.003	0.0007	-61.3
0.006	0.0007	0.0015	0.0015	-61.1
0.0052	0.0007	-0.0015	0.003	-60.9
-0.0008	-0.0008	-0.0075	0.0022	-60.7
-0.0015	-0.006	-0.0105	0.0015	-60.5
-0.003	-0.0091	-0.0098	0.003	-60.3
-0.0053	-0.0091	-0.0113	-0.0053	-60.1
-0.0075	-0.0083	-0.0098	-0.021	-59.9
-0.0068	-0.012	-0.0083	-0.027	-59.8
-0.0053	-0.0143	-0.0083	-0.0203	-59.5
-0.0068	-0.012	-0.0068	-0.0083	-59.4
-0.0068	-0.0046	-0.0068	0.0045	-59.2
-0.0053	0.0022	-0.0068	0.012	-59
-0.0053	0.0165	-0.003	0.0367	-58.8
-0.0038	0.036	-0.003	0.0442	-58.6
-0.0038	0.0255	-0.0038	0.0165	-58.4
-0.0046	0.024	-0.003	0.0105	-58.2
-0.0046	0.024	-0.0015	0.006	-58
-0.0015	0.009	0.0022	-0.0008	-57.8
0.0015	0.0217	0.0052	0.0007	-57.6
0.0015	0.0105	0.0037	-0.0256	-57.4
0.0007	-0.015	0.0045	-0.0315	-57.2
0	-0.0105	0.0052	-0.021	-57
0.003	-0.024	0.0105	-0.0256	-56.8
0.0067	-0.039	0.0135	-0.0278	-56.6
0.0067	-0.0375	0.0112	-0.024	-56.4
0.0052	-0.0188	0.0067	-0.0083	-56.2
0.0045	0	0.0022	0.0112	-55.9
0.0015	0.0015	0.0045	0.0255	-55.8
0.0015	0.006	0.0067	-0.006	-55.5
0.003	-0.0046	0.009	-0.039	-55.4
0.0015	-0.0128	0.0082	-0.0428	-55.1
0.0022	-0.0278	0.0037	-0.0638	-54.9
0.0007	-0.0443	0.0007	-0.0548	-54.7
-0.0008	-0.0405	-0.0015	-0.0256	-54.5
0.0007	-0.0443	-0.0023	-0.0098	-54.3
-0.0008	-0.039	-0.003	0.0262	-54.1
0	-0.012	-0.0008	0.0877	-53.9
0.0007	0.024	0.003	0.129	-53.7
0.003	0.0577	0.003	0.1125	-53.5
0.003	0.1147	0.0015	0.042	-53.3
0.0007	0.1155	0.0007	-0.0218	-53.1
0.0007	0.027	-0.0015	-0.024	-52.9
-0.003	-0.003	-0.003	-0.0068	-52.7
-0.0023	0	-0.003	-0.003	-52.5
-0.0008	-0.0083	-0.0015	-0.0053	-52.3
0	-0.003	-0.003	-0.0083	-52.1
-0.0015	-0.0053	-0.0038	-0.0053	-51.9
-0.003	-0.0023	-0.0046	-0.006	-51.7
-0.0015	-0.0023	-0.0046	-0.006	-51.5
-0.0015	-0.003	-0.0015	-0.0068	-51.3
-0.0008	-0.0038	-0.0008	-0.0053	-51.1
-0.0008	-0.0053	0.003	-0.0046	-50.9
-0.0008	-0.0038	0.003	-0.0053	-50.7
0.0007	-0.0053	0.0007	-0.0053	-50.5
0	-0.0053	0.003	-0.006	-50.3
0.0007	-0.0053	0.0037	-0.0068	-50.1
0.0022	-0.0038	0.0052	-0.0053	-49.9
0.0015	-0.0046	0.0022	-0.0068	-49.7
0.0007	-0.0046	0.0022	-0.0091	-49.5
-0.0008	-0.0046	0.003	-0.0068	-49.3
0	-0.0053	0.003	-0.0053	-49.1
0.0007	-0.0023	0.0037	-0.0015	-48.9
-0.0008	-0.003	0.0015	0.0022	-48.6
0.0007	-0.0046	0.0045	0.003	-48.4
0.0007	-0.0046	0.0067	0.0045	-48.2
0.003	-0.003	0.0052	0.0022	-48
0.0007	-0.0023	0.0037	-0.0046	-47.8
0.0007	-0.003	0.0067	-0.012	-47.6
0.0015	-0.0053	0.0022	-0.0256	-47.4
0	-0.0128	-0.0008	-0.0413	-47.2
0	-0.0165	0.0015	-0.0346	-47
-0.0015	-0.015	0.0007	-0.012	-46.8
0.0007	-0.0135	0.0022	-0.0008	-46.6
0.0015	-0.0091	0.0045	0.0082	-46.4
0.0015	-0.006	0.003	0.018	-46.1
0.0007	-0.003	0.0015	0.03	-45.9
-0.0008	0.009	0.0045	0.0382	-45.7
0	0.018	0.003	0.021	-45.5
-0.0008	0.018	0.003	-0.012	-45.3
0.0007	0.018	0.0045	-0.0218	-45.1
0.0007	0.0052	0.0037	-0.0143	-45
0.0007	-0.0083	0.0045	-0.0098	-44.7
0	-0.0046	0.0015	-0.0046	-44.6
0.0007	-0.003	0	-0.0038	-44.4
0.0015	-0.0015	-0.0015	-0.0008	-44.2
0.0015	-0.0023	-0.0023	0.0007	-44
0.0007	-0.0046	-0.0008	0.0015	-43.8
-0.0008	-0.003	-0.0008	0.0015	-43.6
-0.0008	-0.0046	0.0007	0.0007	-43.4
-0.0008	-0.0053	0.0007	-0.0008	-43.2
-0.0008	-0.0053	0.0007	-0.0038	-43
0	-0.0038	0.0015	-0.0068	-42.8
0	-0.0015	0	-0.0105	-42.6
-0.0015	0.0022	-0.0046	-0.0053	-42.4
-0.0068	0.003	-0.0083	-0.0008	-42.3
-0.0053	0.0052	-0.0083	-0.0008	-42
-0.0068	0.0067	-0.0068	0.0007	-41.9
-0.0068	-0.0008	-0.0075	-0.0015	-41.7
-0.0053	0.0015	-0.0068	-0.0015	-41.5
-0.0046	0	-0.0038	-0.0008	-41.3
-0.003	-0.0008	-0.0008	0.0007	-41.1
-0.0038	-0.0015	0.003	0.0015	-40.9
-0.0015	-0.0083	0.0052	0.0007	-40.7
-0.0008	-0.0105	0.0045	0.0022	-40.5
0.0007	-0.0075	0.003	0.003	-40.3
0.0015	-0.0023	0.0037	0.0037	-40.1
0.003	-0.0038	0.0037	0.0052	-40
0.003	-0.0008	0.0037	0.0045	-39.8
0	0.0045	0.006	-0.0008	-39.6
0.0007	0.0082	0.0075	-0.0015	-39.4
0.0022	0.0075	0.0052	-0.0015	-39.2
0	0.0007	0.0052	-0.0008	-39
0	0.0015	0.0052	0	-38.8
0.0015	0.0007	0.006	-0.0053	-38.7
0.0015	0.0015	0.006	-0.0091	-38.4
0.003	-0.003	0.0052	-0.0098	-38.3
0.0022	-0.012	0.0082	-0.0091	-38.1
0.0015	-0.0105	0.006	-0.0083	-37.9
0.0007	-0.0053	0.0052	-0.012	-37.7
0.0007	-0.0023	0.0052	-0.0143	-37.5
0.0007	-0.0008	0.0015	-0.0068	-37.4
0.0007	0.0007	0	0.0022	-37.1
0.0022	0.0052	0.0007	0.009	-36.9
0.0015	0.0082	0.0007	0.0195	-36.8
0.0007	0.0045	-0.0008	0.0142	-36.6
0	0.003	-0.0008	0.0007	-36.4
-0.0015	0.0007	-0.0008	-0.0023	-36.2
-0.0008	-0.0046	-0.0015	-0.0053	-36
0.0007	-0.0098	-0.0023	-0.0053	-35.9
0.0022	-0.0135	-0.0023	-0.0015	-35.7
0.0007	-0.0083	-0.0015	-0.0023	-35.5
-0.0015	-0.006	-0.0008	-0.003	-35.3
-0.0023	-0.0091	-0.0008	-0.0046	-35.1
-0.0015	-0.0083	0.0007	-0.0046	-34.9
-0.0008	-0.0068	0	-0.0015	-34.7
0	-0.003	-0.0008	0.0052	-34.6
-0.0008	0.0195	0.0015	0.015	-34.4
-0.0008	0.0292	0.0052	0.015	-34.2
0.0015	0.0105	0.0052	0.003	-34
0.0007	0.0082	0.0052	-0.0023	-33.8
0	0.0052	0.0045	-0.0015	-33.7
-0.003	-0.0015	0.003	-0.003	-33.5
-0.006	-0.0008	0.0022	-0.0046	-33.3
-0.0083	-0.0068	0.0015	-0.0046	-33.1
-0.0105	-0.006	-0.0008	-0.0053	-32.9
-0.0046	-0.006	0	-0.0083	-32.8
0.0007	-0.006	0.0007	-0.0075	-32.5
0.0015	-0.006	0.0022	-0.0068	-32.4
0.0022	-0.006	0.0045	-0.0053	-32.2
0.003	-0.0046	0.003	-0.0015	-32
0.0015	-0.003	0.0007	-0.0015	-31.8
-0.0008	-0.0015	-0.0015	-0.0015	-31.6
-0.003	-0.003	-0.0038	-0.0015	-31.5
-0.0038	-0.0023	-0.006	-0.0015	-31.3
-0.0015	-0.0023	-0.0046	0	-31.1
0.0022	0.0007	-0.0068	-0.0008	-30.9
0.0067	0.0022	-0.006	0	-30.7
0.0067	0.0022	-0.0015	0.0007	-30.6
0.0037	0.0007	-0.0015	0	-30.4
0.0015	-0.0008	0.0007	0	-30.2
-0.0008	0	0.0007	-0.0015	-30
-0.0023	-0.0023	0.0015	-0.0046	-29.8
-0.0023	-0.0046	0.0045	-0.003	-29.7
-0.003	-0.0046	0.0045	-0.0008	-29.5
-0.0015	0.0007	0.006	-0.0015	-29.3
-0.003	0.0045	0.003	-0.0008	-29.2
-0.0046	0.0007	0.0007	0.0007	-29
-0.003	0.0015	0.0007	-0.0008	-28.8
-0.0023	0.0022	-0.0008	-0.0015	-28.6
0.0007	-0.0015	0	0	-28.4
0.0007	0.0015	-0.0008	0.0007	-28.3
-0.0015	0.0067	-0.0008	0.0015	-28.1
-0.003	0.0052	-0.0038	0.0007	-27.9
-0.003	-0.0038	-0.0023	0.0007	-27.8
-0.0008	-0.0083	-0.0015	-0.0015	-27.6
0	-0.0083	0	-0.0023	-27.4
0.0015	-0.0053	0.0015	-0.0023	-27.2
0.0037	-0.0008	0.0015	-0.0023	-27
0.0045	-0.0023	0.0015	-0.003	-26.9
0.0037	-0.0015	0.003	-0.0038	-26.7
0.0045	-0.0015	0.0037	-0.0023	-26.6
0.0045	0.0007	0.0015	-0.0023	-26.4
0.0052	-0.0008	0.0052	-0.0038	-26.2
0.0067	-0.0023	0.0067	-0.006	-26.1
0.003	0	0.0097	-0.0105	-25.9
0.0007	-0.0015	0.0105	-0.0128	-25.7
-0.0008	-0.0023	0.0082	-0.0165	-25.6
-0.003	-0.0053	0.006	-0.021	-25.4
-0.0023	-0.0053	0.003	-0.0195	-25.2
-0.0015	-0.0046	0.0015	-0.015	-25.1
-0.0008	-0.0023	0.0015	-0.0143	-24.9
0	-0.0008	0.003	-0.0068	-24.7
0	-0.0038	0.0015	0.0067	-24.6
-0.0008	-0.0128	0.0007	0.0202	-24.4
-0.006	-0.0091	0.0052	0.048	-24.2
-0.0091	0.0082	0.009	0.0682	-24.1
-0.0075	0.0217	0.006	0.03	-23.9
-0.0046	0.0195	0.0015	-0.0068	-23.7
-0.0008	0.003	-0.0008	0.0052	-23.6
0.0037	0.018	-0.0053	0.0097	-23.4
0.0082	0.0157	-0.006	0.006	-23.2
0.0082	-0.0015	-0.0053	-0.0046	-23.1
0.0052	0.0022	-0.0053	-0.0053	-22.9
0.0045	-0.0008	-0.0053	-0.0046	-22.7
0.0045	0.0007	-0.0083	-0.0075	-22.6
0.0052	-0.003	-0.0098	-0.0068	-22.4
0.0052	-0.0053	-0.0143	-0.0098	-22.2
0	-0.0068	-0.0135	-0.0068	-22.1
-0.0053	-0.0091	-0.0113	-0.0083	-21.9
-0.0113	-0.0068	-0.0091	-0.0068	-21.8
-0.0105	0.0007	-0.0008	-0.0075	-21.6
-0.0091	0.006	0.0067	-0.006	-21.4
-0.0158	0.003	0.006	-0.0053	-21.3
-0.0143	-0.0015	0.006	-0.0068	-21.1
-0.0135	-0.0091	0.009	-0.006	-20.9
-0.0105	-0.0098	0.0127	-0.0053	-20.8
-0.003	-0.006	0.0165	-0.006	-20.6
0.003	-0.003	0.0195	-0.0053	-20.4
0.0097	-0.0023	0.0142	-0.003	-20.3
0.009	-0.003	0.009	-0.0038	-20.1
0.0127	-0.006	0.0052	-0.003	-20
0.0135	-0.0083	0	-0.0023	-19.8
0.0142	-0.0053	-0.0038	-0.0023	-19.6
0.0127	-0.0015	-0.0046	-0.003	-19.5
0.006	0.003	-0.0023	-0.003	-19.3
-0.0023	0.0045	-0.0053	-0.0046	-19.2
-0.0105	0.0052	-0.0068	-0.0038	-19
-0.0105	0.003	-0.0046	-0.0053	-18.8
-0.0023	0.0015	0.0015	-0.0038	-18.7
0.012	0.0082	0.0075	-0.0008	-18.5
0.024	0.0082	0.0045	0	-18.4
0.018	0.0045	0.0045	0.0007	-18.2
0.0075	0.0052	0.0007	-0.0008	-18
0.003	0.0052	-0.0046	-0.0008	-17.9
-0.0015	0.003	-0.0046	-0.0015	-17.7
-0.003	-0.0008	-0.0046	-0.0015	-17.6
-0.003	-0.0075	-0.0015	-0.0023	-17.4
-0.0046	-0.015	0.0007	-0.0038	-17.2
-0.0053	-0.0158	0.0045	-0.0038	-17.1
-0.0105	-0.0083	0.0075	-0.0038	-16.9
-0.0128	-0.0015	0.0045	-0.0008	-16.8
-0.0113	0.0007	0	-0.0008	-16.6
-0.0075	0.0037	0	-0.0015	-16.5
-0.0083	0.003	-0.003	0.0007	-16.3
-0.0068	0.0015	-0.0015	0.0007	-16.2
-0.006	0.0007	-0.0008	0	-16
-0.0068	0.0015	-0.0038	0.0007	-15.8
-0.0083	0.0015	0	-0.0008	-15.7
-0.0128	-0.0015	-0.0038	-0.0015	-15.6
-0.0068	0.0015	-0.0046	-0.0015	-15.4
0.0007	0.0022	0	-0.0008	-15.3
-0.0008	-0.0008	0.0052	-0.0015	-15.1
0.0007	-0.0023	0.0082	-0.003	-14.9
0.003	-0.0083	0.0045	-0.0015	-14.8
0.0045	-0.0128	0.0037	-0.0008	-14.7
0.0105	-0.012	-0.003	0	-14.5
0.021	-0.0053	-0.0046	0	-14.4
0.0285	0.0045	-0.0046	0.0007	-14.2
0.0285	0.009	-0.0015	0.0007	-14.1
0.0277	0.0045	0.006	0	-14
0.021	-0.0015	0.0105	-0.0008	-13.8
0.0015	-0.0046	0.009	-0.0023	-13.6
-0.0173	-0.0068	0.0082	-0.003	-13.5
-0.0278	-0.0053	0.0112	-0.0015	-13.4
-0.0203	-0.0046	0.0067	-0.0015	-13.2
-0.0135	-0.0053	0.0015	-0.0008	-13.1
-0.0143	-0.006	-0.003	-0.0008	-12.9
-0.0091	-0.003	-0.0046	-0.0015	-12.8
-0.0053	-0.0008	-0.0008	0.0015	-12.6
-0.003	-0.0008	-0.003	0.0007	-12.5
-0.0038	0.0022	-0.0015	0.0007	-12.4
-0.0023	0.0045	-0.0008	0.0007	-12.2
-0.0015	0.006	0	0.0015	-12.1
0	0.0082	0.0007	0.0015	-11.9
-0.0008	0.006	-0.0008	0.0007	-11.8
-0.0008	0.0022	0.0015	0.0022	-11.7
0.0007	-0.0008	0.0022	0	-11.5
-0.0008	-0.0015	0.0007	-0.0015	-11.4
-0.0015	-0.0008	-0.003	-0.0008	-11.3
-0.0023	-0.0008	-0.0046	-0.0008	-11.1
-0.003	0.0007	-0.0023	-0.0008	-11
-0.0015	0.0015	0.0022	-0.0015	-10.8
0.0007	0.0015	0.0037	-0.0008	-10.7
0.003	0.0052	0.0015	-0.0015	-10.6
0.009	0.0052	-0.0015	-0.0015	-10.4
0.0142	0.003	-0.003	-0.0008	-10.3
0.0127	0	-0.003	-0.0015	-10.2
0.0067	-0.0023	-0.0023	-0.0008	-10.1
0	-0.0038	0.0075	-0.0015	-9.9
-0.0083	-0.0075	0.0135	-0.003	-9.8
-0.0091	-0.0068	0.0157	-0.0023	-9.7
-0.0083	-0.0046	0.0127	-0.003	-9.5
-0.0091	-0.003	0.006	-0.0015	-9.4
-0.0053	-0.0046	0.0052	0	-9.3
-0.0046	-0.003	0.0015	-0.0008	-9.1
-0.0015	-0.0008	0.003	0	-9
0.0007	0.0007	0.0007	-0.0008	-8.9
0.0052	0	-0.0008	-0.0015	-8.8
0.0135	-0.003	-0.0008	-0.0008	-8.6
0.018	-0.0015	-0.0015	-0.0008	-8.6
0.0135	0.0015	0.0052	-0.0008	-8.4
0.0045	-0.0008	0.0045	-0.0015	-8.3
0.0037	-0.003	0.003	-0.0023	-8.2
-0.0008	0.0007	0.0022	-0.003	-8.1
-0.0038	0.0007	0.003	-0.0038	-8
-0.003	0.0015	0.0015	-0.0015	-7.9
-0.0015	0.0015	-0.0015	-0.0015	-7.8
0	0.0007	-0.003	-0.0015	-7.7
-0.0015	0	-0.003	-0.0015	-7.6
0	-0.0015	0.0007	-0.0015	-7.5
-0.0008	-0.0015	0	-0.0015	-7.3
-0.0053	-0.003	0.0015	0	-7.2
-0.0038	-0.0023	0.003	0.0007	-7.2
0	-0.0015	0.0045	0	-7
0.0015	-0.0008	0.006	0.0007	-6.9
0.0007	-0.0023	0.006	0.0007	-6.8
-0.0008	-0.0046	0.0045	0	-6.7
-0.0015	-0.0046	0.0045	-0.0008	-6.6
-0.0053	-0.0046	0.006	0	-6.5
-0.0105	-0.003	0.0052	0	-6.5
-0.0181	-0.003	0.003	-0.0023	-6.4
-0.0203	-0.0023	0.0007	-0.003	-6.3
-0.0098	-0.0015	-0.0015	-0.0038	-6.2
-0.0008	-0.0015	-0.0015	-0.0015	-6.1
0.0082	-0.0015	-0.0015	-0.0008	-6.1
0.0157	0.0015	-0.0008	-0.0015	-6
0.0157	0.0067	-0.0008	0	-5.9
0.0172	0.0037	0	-0.0008	-5.8
0.0187	0.0007	-0.0008	-0.0023	-5.7
0.018	-0.0008	-0.0015	-0.0015	-5.7
0.0142	-0.0015	-0.0008	-0.003	-5.6
0.0007	-0.0008	-0.0038	-0.0008	-5.5
-0.0091	-0.0008	-0.0053	-0.0008	-5.4
-0.0053	-0.0008	-0.0038	-0.0015	-5.3
-0.0046	-0.0008	-0.003	-0.0023	-5.3
-0.0068	-0.0015	-0.0008	-0.0023	-5.2
-0.0053	-0.0015	0.0007	-0.0015	-5.1
-0.0053	-0.0023	-0.0008	-0.0038	-5
-0.0015	-0.0023	0	-0.0023	-5
0.0007	0.0007	0.0022	-0.0015	-5
0.003	0.0037	0.003	-0.0008	-4.9
0.0052	0.0052	0.0007	-0.0008	-4.8
0.006	0.006	0.0007	-0.0015	-4.8
0.0007	0.0037	0.0037	0.0015	-4.7
-0.0135	-0.0015	0.003	-0.0008	-4.7
-0.0158	-0.0046	0.0015	-0.0015	-4.6
-0.0113	-0.0075	0.0015	-0.0015	-4.5
-0.0083	-0.0105	0.0015	-0.003	-4.5
-0.0053	-0.0068	0.009	-0.003	-4.5
-0.003	-0.0023	0.015	-0.0023	-4.4
-0.0015	-0.0008	0.0082	-0.003	-4.4
-0.0015	-0.0015	0.0015	-0.003	-4.3
-0.0068	-0.0015	-0.0046	-0.0015	-4.3
-0.0091	-0.0008	-0.0098	-0.0015	-4.2
-0.003	0	-0.0098	-0.0023	-4.1
0.0007	-0.0008	-0.0105	-0.0008	-4.1
0.0052	-0.0023	-0.0068	-0.0015	-4.1
0.0067	-0.0015	-0.0053	-0.0008	-4
0.006	0.0015	-0.0053	-0.0008	-4
0.009	0	-0.0053	-0.0023	-4
0.006	-0.0008	-0.0046	-0.0015	-3.9
0.006	0.0007	-0.003	-0.0015	-3.9
0.0052	0.003	0	-0.0015	-3.8
0.0067	0.0037	0.0045	-0.0015	-3.8
0.0067	-0.0008	0.0052	-0.0023	-3.8
0.0007	-0.0015	0.0082	-0.003	-3.7
-0.0015	-0.0023	0.006	-0.0023	-3.7
-0.0015	-0.0008	0.0052	-0.0008	-3.6
-0.0038	0.0015	0.0067	-0.0023	-3.6
-0.003	-0.0008	0.003	-0.003	-3.6
-0.0038	-0.0015	0.0007	-0.0015	-3.6
-0.0053	-0.0015	-0.0015	-0.0046	-3.5
-0.0075	0.0007	-0.0008	-0.0038	-3.5
-0.0091	0.0007	0.003	-0.0038	-3.4
-0.0068	0	0.0037	-0.003	-3.4
-0.0053	-0.0008	0.0052	-0.0015	-3.4
-0.0046	-0.0015	0.003	-0.0015	-3.3
-0.0038	-0.0008	0.0007	0	-3.3
-0.0015	-0.006	-0.0008	0	-3.3
0.0015	-0.0068	-0.0023	-0.0008	-3.2
0.0045	-0.0015	0.0015	-0.0015	-3.2
0.0082	0.0037	0.0015	-0.0015	-3.2
0.0097	0.0015	0.0015	-0.003	-3.2
0.0097	-0.0008	0.0052	-0.003	-3.2
0.006	-0.003	0.006	-0.0015	-3.1
0.0067	-0.0046	0.0052	-0.0008	-3.1
0.009	-0.0038	0.0015	0	-3.1
0.0082	-0.0015	0.003	-0.0008	-3
0.003	0.0015	0.0037	0.0015	-3
-0.0046	0.0007	0.0022	0.0022	-3
-0.0053	0.0015	0.0015	0.0015	-3
-0.0068	0.0007	-0.0008	0	-2.9
-0.0075	0.0007	-0.0015	0.0007	-2.9
-0.0053	0.0007	-0.0015	0.0015	-2.9
-0.003	-0.003	-0.0015	-0.0008	-2.8
-0.0015	-0.0038	-0.003	-0.0008	-2.8
-0.0038	-0.0015	-0.003	-0.0023	-2.8
-0.0023	0	-0.0038	-0.003	-2.8
-0.0008	-0.0008	-0.0053	-0.003	-2.7
0.0052	0.0007	-0.003	-0.0046	-2.7
0.012	-0.0008	-0.0008	-0.0046	-2.7
0.0082	-0.0008	0.0007	-0.0023	-2.7
0.0067	0	-0.0008	-0.0008	-2.7
0.003	-0.003	0.0015	-0.0008	-2.7
-0.003	-0.0038	-0.0023	0	-2.7
-0.0023	-0.0008	-0.0015	-0.0008	-2.7
0.0007	0.0007	0.0015	-0.0008	-2.6
0.0007	0.0022	0.0045	-0.0008	-2.6
-0.012	0.0037	0.0105	0	-2.6
-0.0233	0.0022	0.009	0.0007	-2.6
-0.03	0.0007	0.0067	-0.0008	-2.6
-0.0248	-0.0008	0.0015	0	-2.6
-0.0128	-0.0008	-0.003	-0.0008	-2.5
-0.0046	0	-0.0008	0.0007	-2.5
-0.0015	-0.0008	0.0007	0.0015	-2.5
-0.0008	-0.0008	0.0067	0.0007	-2.5
0.0007	0	0.0052	-0.0008	-2.5
0.0007	-0.0008	0.003	0.0007	-2.5
0.0022	0.0015	0.0052	0.003	-2.4
0.0037	0.0052	0.0052	0.0022	-2.4
0.006	0.0052	0.0067	0.0015	-2.4
0.0105	0.0052	-0.0053	0.0015	-2.4
0.0075	0.0037	-0.012	0	-2.4
-0.0053	0	-0.0075	-0.006	-2.4
-0.0105	-0.0098	-0.0068	-0.0113	-2.3
0	-0.021	-0.006	-0.0128	-2.3
0.0157	-0.0165	-0.006	-0.0143	-2.3
0.0217	-0.006	-0.003	-0.0128	-2.3
0.015	-0.0091	0.0015	-0.0105	-2.3
0.0052	-0.0143	0.0015	-0.0075	-2.3
-0.0008	-0.0135	0.0067	-0.0008	-2.3
-0.003	-0.0008	0.012	0.0052	-2.3
0.0007	0.009	0.012	0.0142	-2.2
0.0045	0.009	0.0105	0.0277	-2.2
0.0067	0.0127	0.012	0.0277	-2.2
0.0052	0.0067	0.012	0.0127	-2.2
0.0052	0.0015	0.0067	-0.0008	-2.2
0.0097	-0.0023	0.003	-0.006	-2.1
0.0127	-0.0008	0.0015	-0.0068	-2.1
0.0135	0.0045	0.0007	-0.0091	-2.1
0.009	0.003	0.0007	-0.0098	-2.1
0.0015	0.0015	-0.0015	-0.0143	-2
-0.003	-0.0053	-0.0015	-0.0203	-2
-0.0068	-0.0113	-0.0023	-0.015	-2
-0.0068	-0.0128	-0.0015	-0.0046	-1.9
-0.0068	-0.0083	-0.0008	-0.0015	-1.9
-0.0068	-0.0008	0.0007	-0.0053	-1.9
-0.006	-0.0015	0.0037	-0.0091	-1.8
-0.0075	0.0007	0.0052	-0.006	-1.8
-0.0083	0.0045	0.006	-0.0038	-1.8
-0.0053	-0.0008	0.0037	-0.0046	-1.8
-0.0008	-0.0008	0	-0.0015	-1.8
0.0007	0.0082	0.0007	-0.0023	-1.7
-0.003	0.0112	0.0022	-0.0008	-1.7
-0.0053	0.003	0.003	0.0037	-1.7
-0.0046	-0.0008	0.0015	0.0097	-1.7
-0.0046	-0.0015	0	0.0165	-1.6
-0.003	-0.0008	-0.0008	0.015	-1.6
-0.0015	0.0052	-0.0008	0.003	-1.5
0	0.006	-0.0023	0	-1.5
0.0007	0.0045	-0.003	0.003	-1.4
0.0007	0.009	-0.0008	0.0082	-1.4
0.0015	0.0127	0.0007	0.009	-1.4
0.003	0.0067	0.0015	0.0015	-1.3
0.003	-0.0008	0.0045	0.0007	-1.3
0.0007	-0.0053	0.0045	-0.0015	-1.2
0.0007	-0.015	0.0037	-0.0068	-1.1
-0.0008	-0.0263	0.0022	-0.0128	-1.1
0.0007	-0.0278	0.0015	-0.0128	-1
0.003	-0.015	0.0007	-0.0098	-1
0.0007	-0.003	0.0022	-0.0098	-0.9
-0.0015	-0.003	0.0112	-0.0113	-0.9
-0.0038	-0.0053	0.018	-0.0165	-0.9
-0.0098	-0.0046	0.0112	-0.012	-0.8
-0.0158	0.018	0.0007	-0.0068	-0.8
-0.0105	0.045	-0.0046	-0.003	-0.7
-0.0015	0.0277	-0.0083	-0.006	-0.7
0	-0.0023	-0.0083	-0.0098	-0.6
0.0067	-0.0091	-0.0098	-0.0053	-0.6
0.0142	-0.012	-0.0105	-0.0053	-0.5
0.018	-0.0158	-0.0083	-0.0023	-0.5
0.0165	-0.0105	-0.006	0.003	-0.4
0.0142	-0.0046	-0.0038	0.006	-0.4
0.0045	-0.0068	-0.0023	0.0165	-0.3
-0.003	0.0067	-0.003	0.0352	-0.2
-0.003	0.03	-0.003	0.0457	-0.2
-0.003	0.0255	-0.0008	0.0292	-0.1
-0.0008	0.0105	0.0052	0.0052	0
-0.0105	0.009	0.009	-0.0023	0
-0.0218	-0.0053	0.0097	-0.0113	0
-0.0218	-0.0218	0.0082	-0.0181	0.1
-0.0158	-0.0225	0.0067	-0.0218	0.2
-0.0068	-0.0203	0.0052	-0.0203	0.2
-0.0015	-0.0135	0.0007	-0.0165	0.3
-0.0008	-0.0091	0.0007	-0.0233	0.4
0.0015	-0.0083	0.0007	-0.0233	0.4
0.0037	-0.0083	0.0022	-0.0181	0.4
0.0082	-0.003	0.003	-0.0143	0.5
0.0112	-0.0008	0.0022	-0.0068	0.5
0.0097	-0.0046	0.003	-0.0046	0.5
0.0067	-0.0075	0	0	0.6
0.009	-0.0083	0	0.0082	0.6
0.0112	-0.0053	0.0015	0.0195	0.6
0.0075	-0.003	0.003	0.0315	0.7
0.0007	0.0007	0.0045	0.03	0.7
-0.0053	-0.0105	0.0067	0.0135	0.7
-0.0098	-0.0181	0.003	0.003	0.8
-0.0105	-0.0098	0.0022	-0.0008	0.8
-0.0075	0.0022	0.003	0.003	0.8
-0.0046	0.0367	0.003	0.0067	0.9
-0.0015	0.0555	0.0052	0.0015	0.9
-0.0015	0.0352	0.0015	-0.0008	0.9
-0.0038	0.021	0.003	-0.0053	0.9
-0.0075	0.012	0.0007	-0.0091	1
-0.0181	-0.0053	-0.0023	-0.0068	1
-0.0158	-0.0105	-0.003	-0.0075	1
-0.0075	-0.0173	-0.0068	-0.006	1.1
0	-0.0173	-0.0053	-0.006	1.1
0.0127	-0.0091	-0.0068	-0.0083	1.1
0.012	-0.006	-0.0023	-0.0068	1.1
0.0135	-0.0008	0.003	-0.0015	1.1
0.015	0.0037	0.0067	0.006	1.1
0.0127	0.0045	0.0082	0.0015	1.1
0.0165	0.0022	0.0067	-0.0046	1.1
0.0157	-0.0008	0.003	-0.006	1.1
0.0135	-0.0023	0.0015	-0.0091	1.1
0.0045	-0.003	0.003	-0.0068	1.1
-0.003	-0.0053	0.0007	-0.0053	1.1
-0.0083	-0.0068	-0.0008	-0.0068	1.1
-0.0091	-0.0083	-0.0015	-0.006	1.1
0.0007	-0.012	-0.0023	-0.003	1.1
-0.0015	-0.0083	-0.003	-0.0008	1.1
-0.0046	-0.0046	-0.0038	-0.0023	1.1
-0.0083	-0.003	-0.0038	-0.0015	1.1
-0.0083	0.0015	-0.0038	-0.0008	1.1
-0.0023	0.0007	-0.0038	0.0007	1.1
-0.0038	-0.0015	-0.003	0.0007	1.1
0.0007	-0.0008	-0.0008	-0.0008	1.1
-0.0008	-0.0015	0.0007	0.0007	1.1
0.0022	0	0.0022	0.0007	1.1
0	-0.0015	0.0045	0.0015	1.1
-0.0046	-0.0015	0.006	0	1.1
-0.0053	0.0007	0.006	0	1.1
-0.0091	0.0015	0.0067	0.0007	1.1
-0.0068	0.0045	0.006	-0.0053	1.1
-0.0053	0.0037	0.0037	-0.0091	1.1
-0.0046	-0.0068	0.0022	-0.0053	1
-0.0008	-0.0075	0.0007	0.0007	1
0.0007	-0.0015	0.0007	0.0045	1
0.0007	0.0007	0.003	0.0052	1
0.0007	0.0007	0.0022	0.0037	1
0.0015	0.0007	0.0015	0.0037	1
0.0015	0.0015	0.0007	0.003	1
0.0015	0.0037	-0.0015	0.003	1
0.0022	0.0045	-0.0008	0.0037	1
0.003	0.0052	0.0007	-0.003	1
0.0015	-0.0008	-0.0008	-0.0098	0.9
0	-0.0105	0.0015	-0.0083	0.9
0.0015	-0.0068	0.0022	-0.003	0.9
0.0022	-0.0008	0	-0.0046	0.9
0.003	-0.0023	-0.0023	-0.0038	0.9
0.0007	-0.0023	-0.003	-0.0008	1
0.0007	-0.003	0.0007	-0.0008	1
0.0015	-0.0046	0.0045	0	1
0	-0.0038	0.006	-0.0008	1
-0.0008	-0.006	0.0067	0.0015	1
0	-0.0053	0.003	0.003	1
0.003	-0.003	0.0015	0.003	1
0.0022	-0.0023	0.0007	0.0045	1
0.0007	0	0.003	0.0022	1
0.0007	0.0045	0.0037	0.0015	1
0.0007	0.0157	0.0015	0	1
-0.0008	0.0157	0.0007	-0.0015	1
-0.0023	0.0007	0.0022	-0.0008	1
-0.003	-0.0008	0.0037	-0.0038	1
-0.0046	-0.006	0.0067	-0.006	1
-0.0105	-0.0098	0.0052	-0.0068	1
-0.0091	0.0015	0.003	-0.0038	1
-0.0008	0.0052	-0.0008	0.0007	1
0.0052	0.0022	-0.0015	-0.0008	1.1
0.012	0.003	-0.0023	-0.003	1.1
0.0135	0.0007	-0.0046	-0.006	1.1
0.015	-0.0023	-0.0046	-0.0105	1.1
0.021	-0.003	-0.006	-0.0105	1.1
0.0165	-0.003	-0.0046	-0.0083	1.1
0.009	-0.003	-0.0015	-0.0068	1.1
-0.0008	-0.0038	0.0015	-0.006	1.2
-0.0091	-0.0023	0.006	-0.0091	1.2
-0.0128	-0.0083	0.0052	-0.0083	1.2
-0.0143	-0.0091	0.0015	-0.0008	1.2
-0.012	-0.0068	0	0.003	1.2
-0.0158	-0.0053	-0.0015	0.0045	1.2
-0.0203	0.0007	0.0007	0.0045	1.2
-0.0173	-0.003	0.0007	-0.0008	1.2
-0.0105	-0.0068	0.0015	-0.006	1.3
-0.0038	-0.0091	0.0045	0.0007	1.3
0.0007	-0.0015	0.006	0.0135	1.3
0.0022	0.0247	0.0037	0.0157	1.3
0.0045	0.0352	0.0015	0.0135	1.3
0.006	0.0142	0.0007	0.0082	1.3
0.012	-0.0008	-0.0008	0.0075	1.3
0.0165	0.0007	-0.0015	0.0112	1.3
0.0142	-0.003	-0.0023	0.0105	1.3
0.0067	-0.0015	-0.0015	0.0045	1.3
0.003	-0.003	-0.0008	-0.0046	1.3
0.0007	-0.0053	0.0007	-0.006	1.3
-0.0038	-0.0015	0.0022	-0.0075	1.3
-0.0083	-0.003	0.0022	-0.0075	1.3
-0.0165	-0.0068	0.0022	-0.0083	1.3
-0.021	-0.0075	0.0015	-0.0053	1.3
-0.0098	-0.006	0.0015	-0.0015	1.3
0.0015	-0.0053	0.0015	-0.0015	1.3
0.0067	-0.0075	0.0015	-0.0008	1.3
0.0127	-0.006	0.0045	-0.0038	1.3
0.0157	-0.0046	0.0045	-0.0038	1.3
0.015	-0.0046	0.003	-0.0083	1.3
0.0127	-0.003	0.003	-0.0128	1.3
0.0112	-0.0015	0.0022	-0.0128	1.3
0.0127	-0.0015	0.0007	-0.0158	1.3
0.0052	-0.0038	0.0022	-0.021	1.3
-0.0046	-0.0046	0.003	-0.0135	1.3
-0.0091	-0.003	-0.0023	-0.0023	1.3
-0.0105	-0.003	-0.0023	0.0022	1.3
-0.0083	-0.0023	-0.0046	0.006	1.3
-0.0083	0.0142	-0.0046	0.0195	1.3
-0.0053	0.0382	-0.0008	0.03	1.3
-0.0046	0.0202	0.0015	0.012	1.3
-0.006	0	0.0067	0.0015	1.3
-0.003	0.003	0.0052	-0.0015	1.3
-0.003	-0.0046	0.0037	-0.0053	1.3
-0.0023	-0.0015	0.0007	-0.0046	1.3
-0.0008	-0.003	-0.0023	-0.0053	1.4
-0.0008	-0.0091	-0.006	-0.0015	1.4
-0.0015	-0.0105	-0.0046	-0.0015	1.4
-0.0008	-0.0083	-0.0038	-0.0015	1.4
0.0007	-0.0008	-0.003	-0.0015	1.4
0.0007	-0.0023	0	-0.0015	1.4
0.0015	0.0007	-0.0008	-0.0008	1.4
0.0007	-0.0015	0.003	-0.0023	1.4
0.0007	-0.0053	0.0045	-0.0023	1.4
-0.0008	-0.003	0.0067	-0.003	1.4
0.0007	-0.003	0.0097	-0.0015	1.4
0.0045	0.0007	0.0082	-0.003	1.4
0.006	0.0007	0.0067	-0.0046	1.4
0.0037	0.0007	0.0052	-0.0053	1.4
0	-0.0015	0.0037	-0.0068	1.4
-0.0038	-0.0023	0.0022	-0.0053	1.4
-0.006	-0.0046	-0.0015	-0.003	1.4
-0.0083	-0.0053	-0.0008	-0.003	1.4
-0.0053	-0.0038	0.0022	-0.0023	1.4
-0.0015	-0.0046	0.0015	0.0015	1.4
-0.0008	-0.0023	0.0022	0.003	1.5
-0.0008	-0.0008	0.0037	0.0007	1.5
0	0.0015	0.0022	-0.0015	1.5
0	0.0045	0.0015	-0.0023	1.5
0.0015	0.0045	-0.0008	-0.003	1.5
0.0045	-0.0015	-0.0008	-0.0008	1.5
0.0052	0.003	0.0015	0.0037	1.5
0.0052	0.009	0.003	0.0067	1.5
0.0015	0.0022	0.0037	0.0007	1.5
-0.0008	-0.003	0.0015	0.0015	1.5
-0.0008	-0.0038	0.0015	0.0067	1.5
-0.0015	-0.003	0.003	0.0045	1.6
-0.0015	-0.0068	0.0022	-0.0068	1.6
-0.0023	-0.0068	0.0007	-0.0165	1.6
-0.0008	-0.0068	0.0007	-0.0158	1.6
0.0067	-0.012	0.0015	-0.012	1.6
0.012	-0.0128	-0.0008	-0.003	1.6
0.0075	-0.003	0.0007	0.006	1.6
0.0007	0.0112	0.0007	0.0082	1.6
-0.0046	0.021	0.0007	0.0135	1.6
-0.0083	0.0277	0.003	0.012	1.7
-0.0068	0.024	0.0015	0.0075	1.7
-0.003	0.003	-0.0008	-0.0008	1.7
-0.003	-0.0038	0.0015	-0.0075	1.7
-0.0068	-0.003	0.0015	-0.012	1.7
-0.0105	-0.0068	0	-0.0158	1.7
-0.0083	-0.0098	-0.0008	-0.0113	1.7
-0.0015	-0.0158	0	-0.0053	1.7
0.003	-0.0091	0	-0.0053	1.7
0.0045	-0.0068	0.0007	0	1.7
0.006	0.0022	0.003	0.0075	1.7
0.0067	0.0052	0.003	0.0045	1.7
0.0045	-0.003	0	-0.0008	1.7
0.0015	-0.0008	-0.0008	-0.0008	1.7
0.0015	-0.0015	-0.0008	0	1.7
0.0037	0	-0.0008	-0.0008	1.7
0.0015	-0.0015	0.0015	-0.0015	1.7
-0.0015	-0.0053	0.0015	-0.0023	1.7
-0.0046	-0.0046	0.0022	-0.0015	1.7
-0.0046	-0.003	0.0007	0	1.7
-0.0038	-0.0015	0.0015	0.0007	1.7
-0.0068	0.0007	0.0052	-0.0008	1.7
-0.012	0.003	0.006	0.0007	1.7
-0.0068	0.0045	0.006	-0.0015	1.7
-0.0015	0.0037	0.003	-0.0046	1.7
0.0015	0	-0.0008	-0.0068	1.7
0.0045	0.0007	-0.0053	-0.0068	1.7
0.0097	-0.0008	-0.0075	-0.006	1.7
0.0142	-0.0046	-0.0075	-0.0046	1.7
0.0097	-0.0113	-0.0038	-0.0023	1.7
0.006	-0.012	-0.0008	0.0007	1.7
0.0037	-0.0038	-0.0008	0.0052	1.7
0.0007	-0.0008	-0.0008	0.012	1.7
-0.0008	0.0052	-0.0023	0.0165	1.7
-0.0008	0.012	-0.003	0.0112	1.7
0.003	0.006	-0.0038	-0.0008	1.8
0.006	0.0015	-0.003	-0.0105	1.8
0.0015	-0.006	0.0015	-0.012	1.8
-0.0023	-0.0091	0.003	-0.0091	1.8
-0.003	-0.006	0.0045	-0.0075	1.8
-0.0015	-0.0053	0.0045	-0.0053	1.8
-0.0015	-0.0023	0.0045	-0.0046	1.8
0	-0.0023	0.0052	-0.003	1.8
-0.0008	-0.0023	0.0052	-0.0015	1.8
-0.0008	-0.0023	0.0037	-0.0008	1.8
0.0007	0.0007	0.0037	0.0022	1.8
0.0015	0.0022	0.0045	0.0045	1.8
-0.0008	0.003	0.0015	0.0037	1.8
-0.0038	0.003	0.0022	0.0015	1.8
-0.0015	0.0007	0.0015	-0.0015	1.8
-0.0023	0.0007	0.003	-0.0015	1.8
-0.003	0.0007	0.0052	-0.0015	1.8
-0.003	-0.0015	0.0045	-0.003	1.8
-0.003	-0.0008	0.0037	-0.0053	1.8
-0.0015	-0.0008	0.0015	-0.0068	1.8
-0.0015	0	-0.0008	-0.012	1.8
-0.0008	0.0007	-0.0015	-0.012	1.8
-0.0023	0.0015	-0.0015	-0.006	1.8
-0.0046	0.003	-0.0015	-0.003	1.8
-0.0015	0.003	0.0007	-0.0015	1.8
-0.0008	0.0015	0.0007	-0.0015	1.8
0.0015	0.0015	0.0015	0.0007	1.8
0.0015	-0.003	0.0015	-0.0008	1.8
-0.0008	-0.0068	0	0.0007	1.8
0.0007	-0.0023	0.0007	0.0015	1.8
0	-0.0008	0.0015	0.0007	1.7
-0.0008	-0.0015	0.0007	0.0015	1.7
-0.0015	0	0	0.0007	1.7
-0.0008	-0.003	-0.0015	0.0007	1.7
0	-0.0023	0.0007	0.0015	1.7
-0.0008	-0.0023	0.0015	0.0007	1.7
0.0015	-0.003	-0.0008	0	1.7
0.0022	-0.0023	0	0.0007	1.7
0.0007	-0.0023	-0.0008	-0.0008	1.7
-0.0008	-0.0046	0.0015	-0.003	1.7
-0.0015	-0.0046	0.0045	-0.0038	1.7
-0.0023	-0.0015	0.003	-0.0046	1.7
-0.0015	-0.003	0.0037	-0.0091	1.7
0	-0.003	0.0007	-0.0135	1.7
0.0007	-0.003	0	-0.0135	1.7
0.0007	-0.0023	0.0015	-0.0053	1.7
0.0007	0.0045	0.003	0.0045	1.7
0	0.012	0.003	0.012	1.7
-0.0008	0.012	0.0007	0.0202	1.7
-0.0015	-0.0008	0.003	0.0142	1.7
-0.0008	-0.003	0.0007	0.0045	1.6
-0.0015	-0.0023	0	-0.0008	1.6
-0.0015	-0.0053	0.0015	-0.0015	1.6
0	-0.0023	0.0015	-0.0008	1.6
0.0007	-0.003	0.003	-0.0015	1.6
0	-0.0015	0.0007	-0.003	1.6
0	-0.0038	0.003	-0.0023	1.6
0.0015	-0.0008	0.0015	-0.0023	1.6
0.0045	0.0022	0.0007	-0.003	1.6
0.0052	0.003	0	-0.003	1.6
0.0045	0.0007	-0.003	-0.006	1.6
0.003	-0.0015	-0.0015	-0.0046	1.6
0.0015	-0.0008	0	-0.0008	1.6
0.0045	0.0007	0.0007	-0.0008	1.6
0.009	0.0007	0.0015	0.0007	1.6
0.0067	-0.0023	0.003	-0.0008	1.6
0.003	-0.0008	0.0022	0.0007	1.6
-0.0015	-0.0023	0.0007	0.0015	1.5
-0.0075	-0.0068	-0.0008	0	1.5
-0.0083	-0.0068	-0.0008	0.0007	1.5
-0.0083	-0.003	0.0022	0.0007	1.5
-0.0083	0	0.0015	0.0007	1.5
-0.0105	-0.0008	0.003	-0.0015	1.5
-0.0135	0	0.0045	-0.0015	1.5
-0.0105	-0.0015	0.0015	-0.0023	1.5
-0.0046	-0.0023	0.0015	-0.0046	1.5
0.0007	-0.0015	0.0007	-0.003	1.5
0.0007	-0.0008	-0.0008	-0.0008	1.5
0.0022	-0.0008	-0.0008	-0.0023	1.5
0.0022	-0.0008	0.0007	-0.0015	1.5
0.0007	-0.0008	0.0015	-0.0046	1.4
-0.0015	-0.0008	0.003	-0.0075	1.4
-0.0008	-0.0008	0.0007	-0.006	1.4
0.0007	-0.0008	-0.0008	-0.0023	1.4
0.0007	0.0015	0.0015	0.0007	1.4
0.0015	-0.0015	-0.0008	0.0037	1.4
0.0015	0.0007	0.0015	0.0045	1.4
0.0045	0.0067	0.0007	0.003	1.4
0.0037	0.0037	0.0015	0.003	1.4
0.0022	0.0037	0.003	0.0022	1.4
0.0015	0.003	0.0022	0.0022	1.3
0.0015	-0.0008	0.0045	-0.0008	1.3
0.0015	-0.003	0.0045	-0.0105	1.3
0.0007	-0.0068	0.0045	-0.0181	1.3
0.0007	-0.0083	0.0022	-0.0203	1.3
0.0007	-0.0105	0.0015	-0.0158	1.3
-0.0008	-0.0098	0.0007	-0.0128	1.3
-0.0023	-0.0068	0.0007	-0.0083	1.3
-0.0038	-0.0075	0.0037	-0.0038	1.3
-0.0015	-0.0068	0.003	-0.0046	1.3
-0.0008	0.0045	0.0007	0.0022	1.3
-0.0015	0.027	-0.0015	0.0112	1.3
0.0007	0.0217	-0.0008	0.0187	1.3
-0.0008	0.0142	-0.0015	0.0202	1.3
0.0007	0.0142	-0.0015	0.009	1.3
0.003	0.0007	0.0007	0	1.2
0.003	-0.003	0.0015	-0.003	1.2
0.0082	-0.0083	0.0045	-0.003	1.2
0.0097	-0.0105	0.003	-0.0046	1.2
0.0045	0.0022	0.0045	-0.003	1.2
-0.0015	0.0015	0.0015	-0.0015	1.1
-0.0038	0.0007	0.0007	-0.0008	1.1
-0.0053	0	0.003	0.0015	1.1
-0.0053	0.0015	0	0.0022	1.1
-0.0046	0.0007	-0.0008	0.0015	1.1
-0.0046	-0.0008	-0.0008	0.0007	1.1
-0.0023	0	0.0007	0.0015	1.1
-0.003	-0.0008	0.0007	0.0045	1.1
-0.0023	0	0.003	0.0067	1
-0.0008	-0.0053	0.003	0.0015	1
-0.0015	-0.0113	-0.0008	-0.0091	1
0.0007	-0.0091	0.0007	-0.012	1
-0.0008	-0.012	0.0015	-0.0113	1
-0.0015	-0.0083	0.0015	-0.0083	0.9
-0.0015	-0.0038	0.0007	-0.0053	0.9
0	-0.0046	0.0015	-0.0068	0.9
0.0022	0.0007	-0.0008	-0.003	0.9
0	0	0.0007	-0.003	0.9
-0.0008	-0.0008	0.0015	-0.0015	0.9
-0.0008	-0.0008	0.0015	0	0.9
-0.0008	-0.0008	0.003	0.0007	0.8
0	0.0007	0.0015	-0.0015	0.8
0	-0.0015	0	-0.0046	0.8
-0.0008	-0.0015	-0.0008	-0.0015	0.8
-0.0008	0.0022	-0.0015	-0.0008	0.8
-0.0008	0.003	0.0007	-0.0008	0.8
-0.0015	0	-0.0008	0	0.8
0.0007	-0.003	0.0007	0.0015	0.7
0.0015	-0.012	0.0015	0.0015	0.7
0.0015	-0.0181	0.0015	-0.0008	0.7
0.003	-0.0105	0.0022	0.0015	0.7
0.0022	-0.006	0.0015	0.003	0.7
0.003	-0.0091	0.0007	-0.003	0.6
0.0015	-0.0105	0	-0.0105	0.6
0.0022	-0.0091	0.0015	-0.012	0.6
0.0015	0.0015	-0.0008	-0.0135	0.6
-0.0008	0.0142	0	-0.0105	0.6
0.0015	0.0172	-0.0008	0.0022	0.5
0.0007	0.0217	0	0.018	0.5
0.0015	0.033	0.0015	0.0172	0.5
0.0007	0.018	0	0.0015	0.4
0	-0.0046	0.0007	-0.0053	0.4
0	-0.003	0.0007	-0.0053	0.4
-0.0008	-0.0083	0	-0.0008	0.4
0.0007	-0.0068	-0.0008	-0.0015	0.4
0.0007	-0.006	0	-0.0015	0.4
0.0007	-0.0053	0.0007	0.0045	0.4
0.0007	0.0015	0.0007	0.0082	0.4
0.0007	0.0015	0	0.012	0.3
-0.0015	0.0022	0	0.0135	0.3
-0.0015	0.0172	0.0007	0.0097	0.3
-0.0015	0.0202	0.0022	-0.0038	0.3
-0.0023	-0.0046	0.0015	-0.0105	0.3
-0.0015	-0.0068	0.0015	-0.012	0.2
-0.0023	-0.006	0.0007	-0.0143	0.2
-0.0038	-0.0023	0.0007	-0.012	0.2
-0.003	0.003	0.0015	-0.0098	0.2
-0.0015	-0.0053	0	-0.006	0.1
-0.0015	-0.0075	0.0022	-0.0068	0.1
-0.0008	-0.0083	0.0022	-0.0046	0.1
-0.0008	-0.0038	0.0015	-0.0046	0
0	-0.006	0.0015	-0.0075	0
0.0007	-0.0075	0.0015	-0.0046	0
0.0022	-0.0075	0.003	-0.0068	0
0.003	-0.0091	0.0015	-0.0083	0
0.003	-0.0098	0.0037	-0.0046	0
0.0015	-0.0053	0.0045	0.006	0
0	0.0052	0.0007	0.0097	0
-0.0008	0.0045	0.0015	0.0082	-0.1
-0.0008	0.003	0.0022	0.012	-0.1
0.0015	0.0067	0.0015	0.0112	-0.1
0.0007	0.006	0.003	0.0045	-0.2
0	0	-0.0008	-0.003	-0.2
0.0007	-0.0015	-0.0008	-0.003	-0.2
0.0007	0.0015	0.0015	-0.0015	-0.2
0.0015	0.0007	-0.0008	-0.0015	-0.3
0.0015	0.0007	0	-0.0023	-0.3
0.0022	0.0007	0.0007	-0.0046	-0.3
0.0022	0	0.0007	-0.0038	-0.3
0.0015	0.0007	0.0007	-0.0015	-0.3
-0.0015	0	0.0015	0	-0.4
-0.0023	-0.003	0.003	-0.003	-0.4
-0.0015	-0.0128	0.003	-0.0068	-0.4
0	-0.0233	0.0022	-0.0083	-0.5
0.0015	-0.027	0.0007	-0.0105	-0.5
-0.0015	-0.03	0.0015	-0.012	-0.5
-0.0015	-0.0293	-0.0008	-0.0113	-0.5
0	-0.0128	-0.0023	-0.0091	-0.6
0	0.0067	-0.0015	-0.0046	-0.6
0	0.0075	0.0015	0.0045	-0.6
-0.0008	0.0105	0.003	0.012	-0.7
0	0.0435	0.0022	0.024	-0.7
0.0007	0.057	0.0015	0.0232	-0.7
-0.0008	0.027	0.003	0.0082	-0.7
-0.0015	0.0007	0.0022	0.006	-0.8
-0.0008	-0.0053	0.0022	0.0067	-0.8
0	0.0082	0.0045	0.0082	-0.8
0.0007	0.015	0.0022	0.003	-0.9
0.0015	-0.006	0.0007	-0.0128	-0.9
0	-0.021	0	-0.0181	-0.9
-0.003	-0.0293	0	-0.0135	-1
-0.003	-0.0308	0.0015	-0.0015	-1
-0.0023	0.0165	0.0022	0.0172	-1
-0.0008	0.0637	0	0.009	-1
0	0.0262	0	-0.0143	-1.1
-0.0015	-0.0046	0.0007	-0.0158	-1.1
-0.0015	0.0022	0.0015	-0.0165	-1.1
0	0.0045	0.0022	-0.0158	-1.2
0.0007	0.0052	0.0015	-0.0113	-1.2
0.0007	-0.0143	0.0015	-0.0083	-1.2
0.0007	-0.0105	0.0015	-0.0046	-1.3
0.0007	-0.0083	0.0015	-0.0046	-1.3
0.0007	-0.0113	0.0007	-0.0046	-1.3
0.0007	-0.0075	0.0022	-0.0046	-1.4
0	-0.0128	0.0045	-0.0008	-1.4
0	-0.0083	0.003	0.0052	-1.4
0.0007	-0.003	0.003	0.0127	-1.4
-0.0015	0.0022	0.0015	0.0165	-1.5
-0.0015	-0.003	0.0015	0.0045	-1.5
-0.0008	-0.0091	0.0015	-0.003	-1.5
-0.0008	-0.0083	0	-0.0008	-1.6
-0.0008	-0.0068	0	-0.0008	-1.6
-0.0008	-0.0068	0.003	-0.0038	-1.7
-0.0015	-0.012	0.003	-0.0015	-1.7
-0.0015	-0.0158	0	-0.0046	-1.8
-0.0023	-0.0181	-0.0015	-0.0046	-1.8
-0.0008	-0.012	0.0007	-0.0015	-1.8
-0.0015	-0.003	0.0015	0.0007	-1.9
-0.0023	0.0105	0.0015	0.012	-1.9
-0.0008	0.0045	0.003	0.0142	-2
0.0007	-0.012	0.0015	0.0112	-2
0.0015	-0.0008	0.0015	0.0082	-2.1
0	0.0127	0.0007	-0.0105	-2.1
-0.0008	0.0082	0.003	-0.0293	-2.2
0.0007	-0.0091	0.0007	-0.024	-2.2
-0.0023	-0.0128	-0.0046	-0.0143	-2.3
-0.0015	-0.0068	-0.0038	-0.0046	-2.3
0.0007	-0.0053	-0.003	-0.0015	-2.3
-0.0008	-0.0008	-0.0008	0.0015	-2.4
0	-0.0008	0.0015	0.0052	-2.4
0	0.0015	0.0015	-0.0008	-2.5
-0.0015	0.0195	0	-0.0046	-2.5
-0.0015	0.0367	0.0015	0.0067	-2.6
-0.0008	0.0405	0.003	-0.0015	-2.7
-0.0015	0.0225	0.003	-0.015	-2.7
-0.0008	-0.0128	0.0022	-0.0113	-2.7
-0.0015	-0.0135	0.0045	-0.0083	-2.8
-0.0008	-0.0083	0.0052	-0.0105	-2.9
0.0015	-0.0181	0.0007	-0.0128	-2.9
-0.0008	-0.0308	0.0007	-0.0083	-3
-0.0015	-0.0383	-0.0008	-0.006	-3.1
0.0007	-0.0256	0.0007	-0.0053	-3.1
0	-0.0158	0.0007	0.0022	-3.2
-0.0015	0.0052	-0.0008	0.0157	-3.2
-0.0015	0.0105	0	0.0165	-3.2
0.0007	-0.003	0	0.0067	-3.3
-0.0008	-0.012	0.0007	0.0082	-3.4
0	-0.0053	0.0015	0.0127	-3.4
0.0015	0.0465	0.0007	0.0142	-3.5
0.0007	0.06	0.0015	0.0217	-3.6
0.0007	0.0502	0.0015	0.0255	-3.6
0.0007	0.0382	0.0007	0.0067	-3.6
0.0015	-0.0008	0.003	-0.0143	-3.7
0.003	-0.0046	0.0037	-0.0143	-3.8
0.0022	-0.0068	0	-0.012	-3.8
0.0022	-0.0091	0	-0.0098	-3.9
0.0015	-0.0083	0.0007	-0.003	-3.9
0	-0.0135	0.0007	0.0082	-4
-0.0015	-0.0091	-0.0008	0.0105	-4.1
-0.0015	-0.0165	-0.0023	0.0045	-4.1
-0.0008	-0.0195	0	-0.0008	-4.1
-0.0023	-0.0203	-0.0015	-0.0053	-4.2
-0.0015	-0.0165	0	-0.0038	-4.2
0.0007	-0.0135	0	0.003	-4.3
0	-0.0046	0.0015	0.0015	-4.4
-0.0023	0.0007	-0.0008	-0.0053	-4.4
-0.0015	-0.012	-0.0015	-0.0038	-4.5
-0.0015	-0.0008	0.003	0.012	-4.5
-0.0008	0.027	0.0045	0.012	-4.6
0	0.0307	0.003	-0.012	-4.6
-0.0008	0.0045	0.0022	-0.0293	-4.7
0	0	0.003	-0.0308	-4.7
-0.0015	0.0195	0.0015	-0.0135	-4.8
0	0.024	0	-0.0128	-4.8
-0.0008	0.0105	0.0015	-0.0248	-4.9
-0.0015	-0.0091	0.0022	-0.03	-5
0.0007	-0.0158	0.0022	-0.0383	-5
-0.0008	-0.0173	0.0015	-0.0323	-5
0	-0.0135	0.0007	-0.0128	-5.1
0.0007	-0.012	0.0007	0.0202	-5.1
0.0007	-0.0128	0.0007	0.0307	-5.2
0.003	-0.0091	0.0015	0.024	-5.3
0.0015	-0.0091	0.0022	0.0262	-5.3
0	-0.0083	0.0015	0.0195	-5.4
-0.0008	-0.0105	0.0007	0.0052	-5.4
-0.0008	-0.0053	0.0007	0.0015	-5.4
0.0007	0.009	0.0022	-0.0008	-5.5
0	0.0067	0.0015	-0.0068	-5.6
0.0007	-0.0068	0.0015	-0.0015	-5.6
0.0015	-0.0023	0.003	0.006	-5.7
0.0015	0	0.0015	0.0075	-5.8
0.0015	-0.0068	0.0007	0.0045	-5.8
0.0015	-0.0083	-0.0008	-0.0015	-5.9
0	-0.0091	-0.0015	-0.0053	-5.9
-0.0015	-0.0068	0	-0.0098	-6
-0.0008	-0.0053	0.0015	-0.0128	-6
-0.0008	-0.0015	0.0015	-0.0165	-6.1
0.0007	0	-0.0015	-0.0195	-6.2
0.0007	-0.0046	-0.0015	-0.012	-6.2
-0.0023	-0.0053	0.0007	-0.0008	-6.3
-0.0008	0.006	0.0022	0.018	-6.3
0.0007	0.0285	0.0052	0.0277	-6.4
0.003	0.0225	0.0045	0.021	-6.5
0.0015	0.003	0.003	0.0105	-6.5
0.0007	0.0045	0.0022	0.0045	-6.6
0.0007	0.003	0.0007	0.009	-6.7
-0.0015	0.0052	-0.0008	0.006	-6.7
-0.0008	0.0022	-0.0015	-0.003	-6.8
-0.003	-0.003	-0.0008	-0.0046	-6.8
-0.0023	-0.0053	-0.0015	-0.0053	-6.9
-0.003	-0.0046	-0.0008	-0.003	-7
-0.0038	0.0007	0.0015	-0.0046	-7
-0.0015	-0.0015	0.0015	-0.0091	-7.1
-0.003	-0.0008	0.0015	-0.012	-7.2
0	-0.0075	0.0015	-0.0165	-7.2
-0.0008	-0.0113	0.0007	-0.015	-7.3
0.0007	-0.0098	-0.0008	-0.0105	-7.3
0	-0.012	0.0007	-0.0068	-7.4
-0.003	-0.0105	0.003	-0.0046	-7.5
0	-0.012	0.0045	-0.0023	-7.6
-0.0008	-0.0128	0.0037	0.0067	-7.6
-0.0008	0.0015	0.0007	0.0217	-7.7
0	0.0262	0	0.0337	-7.7
0.0007	0.0225	0.0007	0.0195	-7.8
0.0015	0.0142	-0.0008	0.0045	-7.9
0.0007	0.0067	-0.0015	0.0007	-7.9
0	-0.0083	0	-0.0068	-8
-0.0015	-0.0046	0.0007	-0.0083	-8.1
-0.0015	-0.0068	-0.0008	-0.0165	-8.1
-0.0008	-0.0091	0.0007	-0.0195	-8.2
0.0015	-0.015	0.0007	-0.0113	-8.3
-0.0008	-0.0135	0.0007	-0.0046	-8.3
0	0.0052	0.0045	-0.0015	-8.4
0.003	0.0232	0.0037	0.0075	-8.4
0.0015	0.024	0.003	0.0187	-8.5
0.0007	0.0105	0.003	0.0157	-8.6
0.0007	0.0202	0.0022	0.0112	-8.6
0.0007	0.0277	0.0045	0.006	-8.7
0.0015	0.0307	0.003	-0.0023	-8.7
0.0022	0.033	0.003	-0.0083	-8.8
0.0015	0	0.003	-0.0046	-8.9
0.0007	-0.0293	0.0045	-0.0068	-8.9
-0.0015	-0.0293	0.003	-0.0105	-9
-0.0023	-0.021	0	0.003	-9
-0.0023	-0.0165	-0.0015	0.0015	-9.1
-0.0015	-0.0263	-0.0023	-0.0083	-9.2
-0.0015	-0.0308	0	-0.0143	-9.2
-0.003	-0.0248	0	-0.0165	-9.3
-0.0023	-0.021	-0.0015	-0.0135	-9.4
-0.0015	-0.0128	-0.0008	-0.0128	-9.5
-0.0008	-0.0038	-0.0008	-0.0158	-9.5
-0.0008	0.003	-0.0015	-0.0195	-9.6
-0.0008	0.0067	-0.0015	-0.0128	-9.6
0	0.0195	0.0007	0.0097	-9.7
0.0007	0.0465	0.0015	0.0277	-9.8
0.0015	0.0367	0.0015	0.0157	-9.9
0.0022	0.0037	0.0015	0.003	-9.9
0.0007	0.0015	0.0037	0.0022	-10
0.0007	-0.0008	0.0015	0.0022	-10.1
0.0015	-0.0075	-0.0008	0.0015	-10.2
0.0015	-0.0203	-0.0015	-0.0098	-10.3
0.0007	-0.027	-0.0008	-0.003	-10.3
0.0007	-0.0158	0.0015	0.0037	-10.4
0.0015	-0.0128	-0.0008	-0.0113	-10.4
-0.0008	-0.0158	-0.0008	-0.0293	-10.5
-0.0015	-0.0263	0.0007	-0.0405	-10.6
-0.003	-0.0248	-0.0008	-0.0218	-10.7
-0.0015	-0.0098	0.0007	0.0097	-10.8
0.0007	0.0097	0.0022	0.0082	-10.8
0.0007	0.0082	0.0007	-0.0105	-10.9
0.0015	-0.0181	-0.003	0.0007	-11
-0.0008	-0.0195	-0.0023	0.0277	-11.1
0	-0.0135	-0.003	0.0307	-11.2
-0.0008	-0.0188	-0.0015	0.0202	-11.3
-0.0008	-0.0135	0.0037	0.024	-11.3
-0.0008	0.0165	0.0045	0.009	-11.4
-0.0008	0.0517	0.0022	-0.0203	-11.5
-0.0008	0.0465	-0.0015	-0.0165	-11.6
0.0007	0.033	-0.0008	-0.0015	-11.7
0.0015	0.033	0.0007	0	-11.8
0.0007	0.012	0.0015	0.0022	-11.9
0.003	0.0075	0.0037	0.0022	-12
0.003	0.0045	0.0045	-0.003	-12.1
0.0007	-0.0075	0.0045	-0.0098	-12.2
0.0015	-0.0091	0.0052	-0.024	-12.2
0	-0.0158	0.006	-0.0278	-12.3
0	-0.0128	0.0067	-0.0083	-12.4
0.0015	-0.0105	0.0052	0.0142	-12.5
0.0007	0.0007	0.003	0.021	-12.6
0.0007	0.018	0.0022	0.018	-12.7
0.0007	0.0157	0.003	0.0045	-12.8
-0.0008	0	0.0045	-0.0083	-12.9
-0.0008	-0.003	0.003	-0.006	-13
-0.0008	-0.0053	0.003	-0.0143	-13.1
-0.0008	-0.0105	0.003	-0.0173	-13.2
-0.0008	-0.0083	0.0015	-0.0008	-13.3
-0.0008	-0.0091	0.0015	0.0202	-13.4
-0.0015	0.0067	0	0.0277	-13.5
-0.0015	0.0105	-0.0023	0.0232	-13.6
-0.0008	0.0067	0	0.027	-13.7
0.0007	0.012	0.003	0.0352	-13.9
0.0015	0.0142	0.0045	0.039	-14
0.0015	0.0247	0.0052	0.0195	-14
0.0015	0.0442	0.0052	-0.0143	-14.2
0.0015	0.024	0.0045	-0.0383	-14.3
0.0015	-0.003	0.0015	-0.0503	-14.4
0.0007	-0.0105	0.0007	-0.0443	-14.5
-0.0008	-0.0256	0.0007	-0.0256	-14.6
-0.0023	-0.0068	-0.0008	-0.0105	-14.7
-0.0023	0.0097	-0.0015	-0.012	-14.8
-0.003	-0.0008	-0.0015	-0.0203	-14.9
-0.0015	0.0015	-0.0008	-0.0195	-15
-0.0008	-0.0105	0.0007	-0.0203	-15.1
-0.0015	-0.0346	0.003	-0.0165	-15.2
-0.0023	-0.0375	0.0015	-0.0113	-15.3
-0.0008	-0.0315	0.0007	-0.0188	-15.4
0.0007	-0.0383	-0.0008	-0.0248	-15.6
-0.0008	-0.0488	-0.0008	-0.0075	-15.7
-0.0015	-0.0465	-0.0008	0.018	-15.8
0.0007	-0.0218	0	0.0217	-15.9
0.0007	-0.0015	0.0022	0.0405	-16
-0.0008	0.0052	0.0022	0.057	-16.1
-0.0008	0.0007	0.0022	0.0495	-16.2
-0.003	-0.0195	-0.0015	0.0585	-16.3
-0.0046	-0.0195	-0.003	0.0615	-16.4
-0.0046	-0.0083	-0.0038	0.027	-16.6
-0.0046	-0.0075	-0.0053	-0.0008	-16.7
-0.0038	0.0075	-0.003	0.0007	-16.8
-0.0015	0.0405	-0.0015	0.0097	-16.9
0.0015	0.0802	0.0022	0.0157	-17
0.0015	0.0592	0.003	0.0172	-17.1
0.0015	0.0315	0.0015	0.0217	-17.2
0.0007	0.0367	0.0037	-0.0091	-17.3
0.0015	0.0075	0.0022	-0.0473	-17.4
0.0015	0.0015	0.003	-0.0428	-17.6
0	0	0.0045	-0.054	-17.6
0.0015	0.0075	0.003	-0.0698	-17.7
0.0007	0.018	0.0015	-0.075	-17.9
0.0015	-0.0135	0.0022	-0.0691	-18
0.0015	-0.0346	0.0022	-0.054	-18.1
-0.0008	-0.0338	0.0037	-0.063	-18.2
0.0015	-0.033	0.0037	-0.0465	-18.3
0.0007	-0.027	0.0052	-0.0015	-18.4
-0.0008	-0.0038	0.0045	0.0292	-18.5
0.0007	0.0112	0.0022	0.0375	-18.6
-0.0008	-0.0128	0.003	0.0217	-18.7
-0.0015	-0.0375	0.0007	-0.0083	-18.8
-0.003	-0.0346	0.0007	-0.0083	-18.9
-0.003	0.0007	-0.0015	0.0112	-19
-0.0038	0.0202	0.0007	0.0135	-19.2
-0.0023	0.003	0.0037	0.0307	-19.3
0	0.0112	0.0037	0.0495	-19.4
0	0.012	0.0052	0.0382	-19.5
-0.0008	0.0007	0.003	0.012	-19.6
-0.003	0.0015	0.003	0.003	-19.8
-0.003	-0.003	-0.0008	-0.0008	-19.9
0.0007	-0.0015	-0.0008	0	-20
0.0007	-0.003	0.0022	0.0022	-20.1
0.0015	0.0127	0.0022	-0.0083	-20.3
0.0037	0.024	0.003	-0.0165	-20.4
0.0037	0.0217	0.0007	-0.0188	-20.5
0.003	0.0255	0.0007	-0.0091	-20.6
0.0015	0.024	-0.0015	0.012	-20.7
0	0.0195	-0.0068	0.0427	-20.9
0.0015	0.021	-0.003	0.0555	-21
0.003	0.018	-0.0008	0.0105	-21.1
-0.0008	0.0007	0	-0.0278	-21.2
0.0015	-0.0046	0.0015	-0.0165	-21.4
0	-0.0091	0.0015	-0.0083	-21.5
0.0007	-0.0203	0.0037	-0.0053	-21.6
0.0045	-0.0218	0.003	0.0195	-21.8
0.003	-0.0158	0.0045	0.0367	-21.9
0.0037	-0.0046	0.0045	0.0165	-22
0.0007	0.0007	0.0007	0.0015	-22.1
-0.0008	0.0015	0.0007	0.0007	-22.3
-0.0008	-0.0068	-0.0015	0.009	-22.4
-0.0023	-0.021	-0.0015	0.0165	-22.5
-0.0015	-0.0308	-0.0008	0.0082	-22.7
-0.003	-0.039	-0.0023	-0.0068	-22.8
-0.0053	-0.0525	-0.0046	-0.027	-23
-0.006	-0.0495	-0.003	-0.0368	-23.1
-0.0053	-0.0383	-0.0023	-0.0398	-23.2
-0.0046	-0.0353	-0.0008	-0.0293	-23.4
-0.0023	-0.0158	-0.0008	-0.0218	-23.5
-0.0015	-0.006	-0.003	-0.0225	-23.6
-0.0008	-0.003	-0.003	-0.0203	-23.8
-0.0015	0.0067	-0.0023	-0.0143	-23.9
0.0007	0.0202	-0.0015	-0.0053	-24
0.0022	0.033	-0.003	-0.0091	-24.2
0.0015	0.0337	-0.003	-0.0091	-24.3
0.0022	0.0382	-0.0008	0.0015	-24.5
0.0015	0.0427	0.0007	0.0157	-24.6
0.0015	0.048	0.0022	0.0315	-24.7
0.0015	0.0465	0.0037	0.0352	-24.9
0.0022	0.0352	0.003	0.0435	-25
0.003	0.027	0.0037	0.048	-25.2
0.0015	0.0142	0.0045	0.0412	-25.3
0.0007	0.003	0.0067	0.0352	-25.4
-0.0015	0.0315	0.0082	-0.003	-25.6
-0.0008	0.024	0.0082	-0.0458	-25.7
-0.0015	-0.0128	0.0082	-0.0533	-25.9
-0.0008	-0.0098	0.0082	-0.042	-26
-0.0008	-0.0188	0.0105	-0.0338	-26.1
0.0015	-0.0128	0.0105	-0.033	-26.3
0.0022	-0.0158	0.0112	-0.0285	-26.5
-0.0008	-0.027	0.0105	-0.0173	-26.6
-0.0008	-0.0256	0.0052	-0.0008	-26.7
-0.0008	-0.027	0.0015	0.009	-26.9
-0.0008	-0.0256	-0.0046	0.009	-27
-0.003	-0.0375	-0.0068	0.0105	-27.2
-0.0053	-0.0383	-0.0046	0.0007	-27.4
-0.0023	-0.0353	-0.0068	-0.0203	-27.5
-0.0008	-0.0263	-0.0083	-0.0143	-27.7
-0.0023	-0.0091	-0.0083	-0.0008	-27.9
-0.0015	-0.0023	-0.0068	-0.0015	-28
-0.0015	-0.0015	-0.0053	-0.0143	-28.2
-0.0023	0.0007	-0.0046	-0.0443	-28.4
-0.0015	0.0082	0.0007	-0.06	-28.5
-0.0015	0.0127	0.0015	-0.048	-28.7
-0.0008	0.0195	0.003	-0.0353	-28.9
0.0007	0.018	0.0045	-0.0285	-29.1
0.0022	0.0195	0.0045	-0.0105	-29.2
0.0022	0.0225	0.0045	0.0285	-29.4
0.0015	0.0255	0.0075	0.0787	-29.6
0.0022	0.0225	0.0067	0.0915	-29.7
0	0.0052	0.0015	0.069	-29.9
-0.0015	-0.0023	0.0007	0.0562	-30.1
-0.0015	-0.0046	-0.0008	0.0532	-30.2
-0.0023	-0.0038	-0.0008	0.0472	-30.4
-0.0015	-0.0015	0.0007	0.0195	-30.6
0	0.003	0.003	-0.0105	-30.8
0.0007	0.009	0.003	-0.0143	-31
0.0007	0.0067	0.0022	0.0105	-31.1
0.0007	0.0142	0.0045	0.015	-31.4
0.0007	0.0135	0.0007	-0.0173	-31.5
-0.0023	-0.0008	0	-0.0353	-31.7
-0.0023	-0.0091	-0.0008	-0.0293	-31.9
-0.0008	-0.0023	0.0015	-0.0203	-32.1
0	0.0067	0.0067	-0.0195	-32.3
0.0007	-0.0008	0.003	-0.0165	-32.5
0.0007	-0.0091	0.0022	-0.015	-32.7
0.0007	-0.012	0.0045	-0.006	-32.9
0.0015	0.003	0.003	-0.0091	-33
0	0.006	0.0015	-0.0361	-33.3
-0.0008	-0.0248	-0.0015	-0.033	-33.4
0	-0.039	-0.0008	-0.0008	-33.6
0.0007	-0.0285	-0.0015	0.009	-33.8
0.0007	-0.0353	-0.0038	0.0082	-34
0	-0.027	-0.003	0.0075	-34.2
0.0015	-0.0195	-0.0023	0	-34.4
0.0015	-0.0233	-0.0008	0.015	-34.6
0.0015	-0.0068	0.003	0.0427	-34.8
0.0015	0.0067	0.0015	0.0337	-35
0	0.0405	-0.0008	-0.0023	-35.2
-0.0015	0.0592	0.0022	-0.039	-35.4
0.0007	0.0225	0.003	-0.0653	-35.6
0.0007	0.0112	0.0052	-0.0353	-35.8
0.0015	0.0232	0.0067	-0.0083	-36
0.003	0.0135	0.0067	-0.0008	-36.2
0.0007	0.0105	0.003	-0.0015	-36.4
0.0015	-0.003	0.0022	-0.0173	-36.6
0.0015	-0.0113	0.0015	-0.012	-36.8
-0.0008	-0.0105	-0.0023	-0.0083	-37
-0.0023	-0.0098	-0.003	0.009	-37.2
-0.003	0.0067	-0.0038	0.0345	-37.4
0.0007	0.0112	-0.0015	0.0442	-37.6
0.0007	0.0262	-0.0008	0.0367	-37.8
-0.0008	0.0532	-0.0008	0.0135	-38
-0.0008	0.039	0.003	0.0045	-38.2
-0.0015	-0.0195	0.0007	0.0067	-38.4
-0.0008	-0.033	0	0.0022	-38.7
-0.003	-0.0285	-0.0015	-0.0105	-38.8
-0.003	-0.0368	-0.0008	-0.0135	-39.1
-0.0015	-0.0203	-0.0008	-0.0218	-39.2
-0.0038	-0.0203	-0.003	-0.0165	-39.5
-0.003	-0.0173	-0.0015	-0.0008	-39.7
-0.0008	-0.0135	-0.0008	0.0142	-39.9
-0.0008	-0.0158	-0.0023	0.0225	-40.1
-0.0023	-0.027	-0.0046	0.0135	-40.3
-0.0038	-0.0323	-0.0046	-0.0046	-40.5
-0.0008	-0.0188	-0.0046	-0.0165	-40.8
0.0007	-0.0083	-0.0046	-0.0203	-41
0.0007	-0.0008	-0.003	-0.0375	-41.2
0.0007	0.0105	0	-0.0346	-41.4
0.0015	0.0322	0.003	0.0067	-41.6
0.003	0.0607	0.0067	0.0705	-41.9
0.0007	0.0787	0.0082	0.1162	-42.1
-0.003	0.027	0.0082	0.0592	-42.3
-0.0053	-0.0383	0.006	-0.0323	-42.5
-0.0046	-0.0218	0.0045	-0.0465	-42.7
-0.0008	-0.0165	0.0045	-0.0346	-43
-0.0015	-0.0128	0.0037	-0.0195	-43.2
-0.0008	0.0015	0.0045	-0.0075	-43.4
0	-0.0046	0.0037	-0.0218	-43.6
0.0015	0.0015	0.0045	-0.0315	-43.8
0.003	0.0015	0.0052	-0.033	-44.1
0.0015	-0.003	0.0015	-0.0511	-44.3
0	-0.0046	0.0007	-0.0735	-44.5
0.0022	0.0067	0.0015	-0.0803	-44.7
0.0052	0.0225	0.0015	-0.0615	-45
0.0045	0.03	0.0007	-0.0105	-45.2
0.003	0.0382	0.0007	0.0427	-45.4
0.003	0.0405	0.0022	0.0847	-45.6
0.0007	0.036	0.0022	0.0885	-45.8
0.0015	0.0157	0.0022	0.0862	-46
-0.0015	0.003	-0.0008	0.096	-46.3
-0.003	-0.0053	-0.0008	0.0382	-46.5
-0.003	-0.0308	-0.0008	-0.024	-46.7
-0.0038	-0.0465	0	-0.0263	-46.9
-0.0038	-0.0488	0.0015	-0.0181	-47.2
-0.003	-0.0518	-0.0023	-0.0293	-47.4
-0.003	-0.0593	-0.0038	-0.0361	-47.6
-0.0038	-0.0593	-0.003	-0.0353	-47.8
-0.0008	-0.0458	-0.0015	-0.0308	-48.1
0.003	-0.0293	-0.0008	-0.0465	-48.3
0.003	-0.0165	0.0007	-0.0578	-48.5
0.0015	-0.0046	0	-0.048	-48.7
0.0015	0.006	-0.0008	-0.0458	-49
0.0022	0.0202	0.0007	0.0045	-49.2
0.0015	0.0382	0.0022	0.0667	-49.4
0.003	0.0427	0.0045	0.099	-49.7
0.0015	0.0307	0.0045	0.1065	-49.9
0.0007	0.0142	0.0037	0.093	-50.1
-0.0008	0.009	0.0052	0.0592	-50.4
0	0.0082	0.0052	0.0277	-50.6
0.0007	0.0075	0.0045	0.0105	-50.8
-0.0008	0.0052	0.0067	-0.0128	-51
0.0007	0.003	0.003	-0.0233	-51.3
0	-0.0015	-0.0008	-0.0405	-51.5
-0.0008	-0.0046	0.0022	-0.0578	-51.7
0.0007	-0.006	0.003	-0.078	-52
-0.003	-0.0128	0.0007	-0.093	-52.2
-0.0008	-0.0158	0.0015	-0.1043	-52.4
0.0015	-0.0105	0.0015	-0.075	-52.6
-0.0015	0.0007	0	0.0082	-52.8
-0.0008	0.0045	0.0007	0.081	-53.1
-0.0008	0.0142	0.0007	0.105	-53.3
-0.0008	0.0262	0	0.0555	-53.5
0.0007	0.0217	0.0022	0.0427	-53.7
0.0015	0.012	0.0015	0.051	-54
-0.0015	-0.0008	0.0022	0.0187	-54.2
-0.0038	-0.015	0.003	-0.021	-54.4
-0.0038	-0.0218	0.0015	-0.0428	-54.6
-0.0038	-0.0233	0.003	-0.0315	-54.8
-0.0023	-0.0256	-0.0008	-0.0443	-55
-0.0008	-0.0248	-0.003	-0.0608	-55.3
-0.0008	-0.021	-0.003	-0.0653	-55.5
0	-0.0158	-0.0053	-0.0533	-55.7
0.0015	-0.0046	-0.0053	-0.0165	-55.9
0.0022	0.0165	-0.003	0.018	-56.2
0.0015	0.0277	-0.0008	0.0375	-56.4
0.0037	0.0367	0.0015	0.0652	-56.6
0.003	0.0577	0.0037	0.0802	-56.8
0	0.0525	0.0045	0.0532	-57
0	0.024	0.0045	0.024	-57.2
-0.003	0.0015	0.0015	-0.0053	-57.5
-0.0046	-0.0046	0.0007	-0.0353	-57.7
-0.0015	0	0.003	-0.039	-57.9
0.0007	0.003	0.003	-0.0353	-58.1
0.0045	0.0105	0	-0.0683	-58.3
0.0037	0.0247	0	-0.0758	-58.5
0.0045	0.039	0.0007	-0.0278	-58.7
0.0045	0.033	-0.0008	0.012	-59
0.0022	0.0067	0.0007	0.0487	-59.2
0.0015	-0.0173	0.0015	0.0675	-59.4
-0.0008	-0.0398	0.0007	0.078	-59.6
-0.003	-0.0533	0.0015	0.0967	-59.8
-0.0053	-0.0638	0.003	0.0577	-60
-0.0053	-0.0683	0.003	-0.027	-60.3
-0.003	-0.066	0.0015	-0.0495	-60.4
-0.003	-0.0593	0.0007	-0.0053	-60.7
-0.003	-0.0473	-0.003	0.003	-60.9
-0.0053	-0.042	-0.0053	0.006	-61.1
-0.0083	-0.033	-0.0083	0.015	-61.3
-0.0068	-0.0181	-0.0083	-0.0038	-61.5
-0.003	-0.0023	-0.0038	-0.039	-61.7
-0.0008	0.0082	-0.0008	-0.0691	-61.9
-0.0008	0.0172	0.003	-0.075	-62.1
0.0007	0.027	0.003	-0.0818	-62.3
0.0022	0.036	0.0052	-0.063	-62.5
0.0037	0.0412	0.0067	-0.0181	-62.7
0.0037	0.0465	0.0067	0.0757	-62.9
0.0052	0.057	0.009	0.1245	-63.1
0.003	0.042	0.0045	0.0735	-63.3
-0.0023	0.0232	0.0045	0.0427	-63.5
-0.003	0.018	0.0045	0.0217	-63.7
-0.0015	0.0232	0.0045	0.018	-63.9
-0.0015	0.0262	0.0045	-0.0195	-64.1
0	0.006	0.006	-0.0563	-64.4
0.0045	-0.0053	0.0052	-0.0405	-64.5
0.003	-0.0068	0.0045	-0.0691	-64.8
0.0015	-0.0188	0.0015	-0.1245	-64.9
0	-0.0233	-0.0023	-0.1365	-65.2
0	-0.0068	-0.0023	-0.0938	-65.3
0.0022	0.0127	-0.0008	-0.0495	-65.6
0.0015	0.0337	-0.0008	0.0157	-65.7
0.0007	0.042	-0.0008	0.09	-66
-0.0015	0.0277	-0.0008	0.1365	-66.2
-0.003	0.0082	-0.0015	0.1702	-66.4
-0.0023	-0.0068	0.003	0.129	-66.6
-0.003	-0.0158	0.003	0.0652	-66.8
-0.0015	-0.0203	0.0015	-0.0128	-67
-0.0008	-0.0181	0.0022	-0.0608	-67.1
0.0022	-0.0181	0.003	-0.0278	-67.4
0.0045	-0.0293	0.0015	-0.0653	-67.5
0.0022	-0.0383	-0.0008	-0.1268	-67.8
0	-0.0443	-0.003	-0.1185	-68
-0.003	-0.039	-0.0046	-0.033	-68.2
-0.0008	-0.012	-0.0015	0.0517	-68.4
0.003	0.0067	-0.0015	0.0892	-68.6
0.003	0.018	-0.0008	0.0622	-68.8
0.0015	0.0337	-0.0015	0.006	-68.9
-0.0023	0.024	-0.0038	0.0022	-69.2
-0.006	0.015	-0.0046	-0.0053	-69.3
-0.003	0.0277	0.0037	-0.0225	-69.5
0	0.0232	0.0045	-0.0008	-69.8
-0.006	-0.0135	-0.0008	0.0997	-69.9
-0.0113	-0.0443	0.0007	0.18	-70.1
-0.0105	-0.039	0.003	0.12	-70.3
-0.0053	-0.045	0.0067	-0.0368	-70.5
0.0007	-0.0615	0.0045	-0.081	-70.7
0.0015	-0.0465	0.006	-0.054	-70.9
0.003	-0.0293	0.0045	-0.0728	-71.1
0.0045	-0.015	-0.0015	-0.0315	-71.3
0.006	0.003	0.0007	0.0007	-71.5
0.0052	0.0195	0.0022	0.0217	-71.7
0.0037	0.0322	0.0022	0.048	-71.9
0.0015	0.0277	0.0015	0.0165	-72.1
-0.0008	0.024	0.003	-0.03	-72.3
0	0.0127	0.003	-0.0278	-72.5
-0.0015	-0.0053	0.0015	-0.0436	-72.7
-0.0015	-0.0105	0.0037	-0.0721	-72.9
0.0007	-0.0135	0.0015	-0.042	-73
0.0022	-0.0008	0.0015	-0.0353	-73.2
0.0015	0.0105	0.003	-0.0293	-73.4
0.0015	0.012	0.0022	0.0067	-73.6
0.0037	0.027	0.003	0.0022	-73.8
0.0022	0.018	0.0007	-0.039	-73.9
0.0007	-0.0165	-0.0015	-0.0503	-74.1
-0.0008	-0.0428	-0.0046	-0.0375	-74.3
-0.0038	-0.0465	-0.0068	-0.0308	-74.5
-0.0038	-0.0256	-0.0008	-0.0046	-74.7
-0.0023	0.0202	0.0015	0.0315	-74.9
-0.003	0.048	0.0007	0.0052	-75.1
-0.0015	0.0457	-0.0008	-0.0158	-75.2
0.0007	0.0495	0.0015	0.0202	-75.4
0.0015	0.0322	0.0015	0.0127	-75.6
0.0007	0	0.0007	0.0232	-75.8
-0.0008	-0.0135	-0.0008	0.0442	-76
-0.0015	-0.0203	-0.0015	0.0157	-76.1
-0.0023	0.0007	-0.0008	-0.048	-76.4
0.0015	0.0345	0.0007	-0.1088	-76.5
0.0045	0.0337	0.0052	-0.0593	-76.7
0.0067	0.0405	0.006	0.0517	-76.9
0.0052	0.0352	0.0037	0.1342	-77
0.0015	0.0292	0.0015	0.1762	-77.2
-0.003	0.0292	0	0.1245	-77.4
-0.0053	0.0037	0.0015	0.1012	-77.5
-0.006	-0.0053	0.0022	0.0765	-77.7
-0.0053	-0.0315	0.0022	-0.0248	-77.9
-0.003	-0.0398	0.003	-0.0788	-78.1
-0.0008	-0.0368	0.0015	-0.0863	-78.2
-0.0008	-0.045	-0.0023	-0.042	-78.4
-0.0008	-0.012	-0.003	-0.0046	-78.6
0.0015	0.0007	-0.0008	0.0052	-78.8
0.0045	0.0052	0.0007	0.0157	-78.9
0.003	0.0075	0.0022	0.0277	-79.1
-0.0008	-0.0181	0.003	0.0735	-79.2
-0.0015	-0.039	0.003	0.036	-79.4
-0.0038	-0.0428	0.0052	-0.1006	-79.6
-0.003	-0.0315	0.0052	-0.1815	-79.8
-0.0008	-0.0218	0.0045	-0.168	-80
0.0007	-0.0278	0.0022	-0.12	-80.1
0.0045	-0.0195	0.0007	-0.0495	-80.3
0.0007	0.0127	-0.0008	0.0682	-80.5
-0.003	0.0292	-0.0023	0.1177	-80.6
-0.0046	-0.003	-0.003	0.0367	-80.8
-0.0053	-0.0428	0	-0.0368	-81
-0.0023	-0.0233	0.0022	-0.0533	-81.2
0.0015	0.0097	0.003	-0.048	-81.4
0.003	0.024	0.0022	0.0345	-81.5
0.003	0.0442	0.0007	0.075	-81.7
0.0022	0.0427	-0.0015	0.078	-81.9
-0.0015	0.0195	-0.0046	0.114	-82
-0.0038	-0.0113	-0.0053	0.0577	-82.2
-0.0068	-0.042	-0.0053	-0.0195	-82.4
-0.0053	-0.0173	0.003	-0.0428	-82.6
0.0007	0.027	0.0052	-0.045	-82.7
0.003	0.0367	0.0015	-0.0563	-82.9
0.0045	0.0367	0.0045	-0.0465	-83.1
0.0052	0.03	0.0022	-0.0315	-83.3
0.0067	0.0157	0.0007	-0.039	-83.4
0.006	-0.0105	-0.0008	-0.042	-83.6
0.003	-0.0368	-0.003	-0.0593	-83.8
0.003	-0.0473	-0.0046	-0.0578	-83.9
0.0045	-0.0293	-0.0008	-0.0315	-84.1
0.0075	0.0105	0.003	0.0262	-84.3
0.0037	0.0532	0.0015	0.0555	-84.5
-0.003	0.042	0.0007	0.0472	-84.6
-0.0075	-0.0135	0.0015	0.1672	-84.8
-0.0083	-0.0233	0.006	0.2872	-85
-0.0113	-0.0315	0.0045	0.2115	-85.1
-0.0091	-0.0091	0.009	0.0757	-85.3
-0.0008	0.0165	0.009	-0.0458	-85.5
-0.003	-0.0195	0.0022	-0.1125	-85.7
-0.0046	-0.0143	0.0007	-0.1148	-85.9
-0.0008	0.0015	-0.0015	-0.1103	-86
-0.0008	0.0007	-0.0075	-0.0721	-86.2
-0.0053	-0.0195	-0.0143	-0.0735	-86.4
-0.0083	-0.0383	-0.0165	-0.0653	-86.5
-0.0053	-0.0436	-0.0143	-0.0053	-86.8
-0.0046	-0.0263	-0.0091	0.003	-86.9
-0.0015	0.0255	-0.0046	-0.003	-87.1
0.0007	0.027	0.0007	-0.0346	-87.2
0.0037	0.0037	0.0037	-0.0863	-87.4
0.0052	0.003	0.0045	-0.1028	-87.6
0.0082	0.0165	0.0082	-0.1148	-87.8
0.009	0.0007	0.0105	-0.0788	-87.9
0.0052	-0.0113	0.0127	-0.0248	-88.1
0.0067	-0.0098	0.0135	0.0202	-88.2
0.006	0.015	0.0127	0.1597	-88.4
0.0022	0.063	0.0127	0.249	-88.6
0.0007	0.0495	0.012	0.1905	-88.8
-0.0008	-0.0008	0.0105	0.093	-88.9
0.0007	-0.0113	0.0082	-0.03	-89.1
0.0015	0.0015	0.006	-0.084	-89.3
0.0022	-0.0188	0.003	-0.0788	-89.5
0.003	-0.0143	0.003	-0.1133	-89.6
0.0037	-0.003	0.0015	-0.1268	-89.8
0.0015	-0.003	-0.0008	-0.0863	-90
0.003	0.0165	-0.0015	-0.039	-90.2
0.003	0.0202	0.0007	0.0337	-90.3
0.0007	0.0315	0.0007	0.114	-90.5
-0.0015	0.0232	-0.0015	0.0862	-90.6
-0.0046	-0.0353	-0.003	0.0795	-90.8
-0.006	-0.0548	0	0.0382	-91
-0.003	-0.0413	0.0045	-0.042	-91.2
0	-0.0353	0.006	-0.0046	-91.3
0.0007	-0.0143	0.0075	0.018	-91.5
0.0015	0.009	0.0052	0.0472	-91.7
-0.0023	0.033	0	0.057	-91.8
-0.0023	0.0165	-0.0023	-0.0015	-92
-0.003	-0.0015	-0.0023	-0.0443	-92.2
-0.003	-0.0075	-0.006	-0.0698	-92.3
-0.003	-0.0143	-0.0053	-0.06	-92.5
-0.003	0.0195	-0.0053	0.0112	-92.7
-0.0015	0.0217	-0.0023	0.0397	-92.8
-0.0015	0.0082	-0.0008	-0.0091	-93
0.0007	0.0105	-0.0023	-0.06	-93.2
0.0015	0.0127	0.0007	-0.1065	-93.3
0.0015	0.0142	0.003	-0.0878	-93.6
0.0037	0.0052	0.0082	-0.0218	-93.6
0.0067	0.0045	0.0105	0.0487	-93.8
