File Name: 3Nsen.log
Channel 1: 'RF', 16860 values, engineering units: mV, no filters.
Channel 2: 'BF', 16860 values, engineering units: mV, no filters.
Channel 3: 'VM', 16860 values, engineering units: mV, no filters.
Channel 4: 'ST', 16860 values, engineering units: mV, no filters.
Channel 5: 'FX', 843 values, engineering units: deg, no filters, extrapolated from 50 to 1000 samples per second.

0	-0.0008	0.0007	0	-80.6
-0.0008	0.0007	0.0007	0	-80.6
0.0007	-0.0008	0.0007	0.0007	-80.6
0	-0.0008	0.0007	-0.0008	-80.6
-0.0015	-0.0023	0.0015	-0.0023	-80.6
0	-0.0015	0.0015	-0.0015	-80.6
0.0007	-0.0015	0.0015	-0.0023	-80.6
0.0015	-0.0023	0.0007	-0.0046	-80.6
0.0007	-0.0023	0.0007	-0.0038	-80.6
-0.0008	-0.0023	0	-0.0008	-80.6
0.0007	-0.0008	-0.0008	-0.0008	-80.6
-0.0008	-0.0008	0.0007	-0.0008	-80.6
-0.0015	-0.0015	0.0015	-0.0015	-80.6
0.0007	-0.003	0.0022	-0.0015	-80.6
-0.0008	-0.0008	0.0007	-0.0008	-80.6
-0.0008	0.0007	0.0015	-0.0015	-80.6
0.0015	0.0015	0.0007	-0.0015	-80.6
0.0007	0.0015	0.0015	0	-80.6
0.0007	0.0015	0.0015	0	-80.6
0.0007	0	0.0007	0.0007	-80.6
0.0007	-0.0008	0.0015	-0.0008	-80.6
-0.0008	-0.0008	0.0022	-0.0015	-80.6
-0.0015	0.0007	0.0037	-0.0008	-80.6
0.0007	0.0007	0.003	0	-80.6
0.0007	0	0.0015	0.0007	-80.6
-0.0008	-0.0008	0.0015	-0.0008	-80.6
-0.0008	-0.0008	0	-0.003	-80.6
-0.0015	0	0.003	-0.0008	-80.6
-0.0008	-0.0008	0.003	-0.0008	-80.6
0	0	0.003	-0.0015	-80.6
-0.0008	0.0007	0.003	-0.0015	-80.6
0.0007	-0.0008	0.0007	-0.003	-80.6
0.0007	0.0007	0.0015	-0.0015	-80.6
0	-0.0008	0.003	-0.0015	-80.6
-0.0015	0.0007	0.0015	-0.003	-80.6
-0.0015	-0.0008	0.0007	-0.0015	-80.6
-0.0015	-0.0015	0.0007	-0.0015	-80.6
-0.0015	-0.0008	0.0007	-0.0015	-80.6
0	-0.0015	0.0015	-0.0015	-80.6
-0.0008	-0.0015	0.0022	-0.0008	-80.6
0.0007	-0.0008	0.0015	-0.0008	-80.6
0.0015	0.0007	0.0022	-0.0015	-80.6
0.0007	-0.0008	0.0015	-0.0015	-80.6
0.0007	-0.0015	0.0015	-0.0023	-80.6
0	-0.0008	0.003	-0.0008	-80.6
0.0007	-0.0008	0.0015	-0.0008	-80.6
0.0007	-0.0008	0	-0.0008	-80.6
0	-0.0008	-0.0015	-0.0023	-80.6
0	-0.0008	-0.0008	-0.003	-80.6
-0.0008	-0.003	0	-0.003	-80.6
0.0007	-0.0023	0.003	-0.003	-80.6
0.0015	-0.0015	0.0015	-0.0023	-80.6
0.0015	-0.0008	0.0007	-0.0008	-80.6
0.0007	-0.0015	-0.0008	-0.0008	-80.6
-0.0008	-0.0046	-0.0015	-0.0015	-80.6
-0.0015	-0.0015	0	-0.0023	-80.6
-0.0015	-0.0015	0.0007	-0.0015	-80.6
0.0007	-0.0023	0	-0.0015	-80.6
0.0007	-0.0015	-0.0008	-0.003	-80.6
0.0007	-0.003	-0.0008	-0.0023	-80.6
0	-0.0008	-0.0008	-0.0023	-80.7
-0.0008	0	0.0015	-0.0023	-80.7
-0.0008	-0.0015	0.0022	-0.0008	-80.7
-0.0008	-0.0008	0.0007	0.0007	-80.7
0.0007	-0.0008	0.0007	0.0007	-80.7
0.0022	-0.003	0.0015	-0.0008	-80.7
0.003	-0.0023	0.0015	0	-80.7
0.0015	-0.0008	0.0022	-0.0023	-80.7
0.0007	-0.0015	0.0045	-0.0015	-80.7
-0.0008	-0.0008	0.0037	-0.0015	-80.7
-0.0008	-0.0015	0.003	-0.0015	-80.7
0.0015	-0.0008	0.003	0.0007	-80.7
0.0007	-0.0008	0	-0.0008	-80.7
0.0007	-0.0008	0.0015	0	-80.7
-0.0008	0	0.0015	0.0007	-80.7
-0.0008	-0.0015	0.0007	0.0007	-80.7
-0.0015	-0.0008	0	0.0007	-80.7
-0.003	0.0007	0.0007	0	-80.7
-0.003	0.0007	0.0037	0.0007	-80.7
-0.0053	0.0015	0.003	0	-80.7
-0.0046	0.0015	0.003	-0.0008	-80.7
-0.003	0.0015	0.0015	-0.0015	-80.7
-0.003	0.003	0.0007	-0.0008	-80.7
-0.003	0.0007	-0.0015	-0.0015	-80.7
-0.0015	0.0007	-0.0015	-0.0015	-80.7
-0.0008	0.0007	-0.0015	-0.0008	-80.7
0.0007	0.0007	-0.003	-0.0008	-80.7
0.0015	0.0007	-0.0023	-0.0008	-80.7
0.0007	-0.0015	-0.0008	-0.0015	-80.7
0.0007	0.0007	0.0007	-0.0023	-80.7
0.0007	-0.0008	-0.0008	-0.003	-80.7
0.0007	-0.0015	0.0007	-0.0008	-80.7
0.0015	-0.0015	0.0015	-0.0008	-80.7
0.0007	-0.0008	0.0015	-0.0008	-80.7
0.0007	-0.0008	0.0015	-0.0008	-80.7
0.0007	-0.0008	0.0007	-0.0023	-80.7
0.0007	-0.0008	0	-0.003	-80.7
0.0007	-0.0023	-0.0008	-0.0015	-80.7
0	-0.0008	0.0015	-0.0008	-80.7
0.0007	0	0.0015	-0.0008	-80.7
-0.0008	0	0.003	-0.0023	-80.8
-0.0015	-0.0008	0.003	-0.0015	-80.8
0	-0.0015	0.0015	0.0007	-80.8
-0.0008	-0.0008	0.0007	0.0007	-80.8
-0.0008	-0.0008	0	-0.0015	-80.8
0.0015	-0.0023	0.0007	0	-80.8
-0.0008	-0.0046	0.0022	-0.0008	-80.8
0.0007	-0.003	0.003	-0.003	-80.8
0.003	-0.0038	0.0022	-0.003	-80.8
0.003	-0.0023	0.003	-0.0015	-80.8
0.0007	-0.0008	0.0022	-0.0008	-80.8
0.0015	-0.0015	0.0015	0	-80.8
-0.0008	-0.0015	0.0015	0.0007	-80.8
-0.0008	-0.0008	0.0007	-0.0008	-80.8
0.0015	0.0007	0.0007	-0.0008	-80.8
0.0007	-0.0015	0	0	-80.8
0	-0.0015	0.0015	-0.0015	-80.8
-0.0015	-0.0008	0.0007	-0.0023	-80.8
-0.0015	-0.0015	0.0007	-0.0015	-80.8
-0.0023	-0.0008	0.0007	-0.0015	-80.8
-0.0023	-0.0015	0.0007	-0.0023	-80.8
0.0007	-0.0008	0.0015	-0.0015	-80.8
-0.0008	0	0.0022	-0.0008	-80.8
0	-0.0008	0.003	-0.0015	-80.8
-0.0015	-0.0015	0.0022	-0.0008	-80.8
-0.0008	-0.0008	0.003	-0.0008	-80.8
-0.0008	-0.0008	0.003	-0.0008	-80.8
-0.0008	-0.0015	0.0022	-0.0015	-80.8
0	-0.0015	0.0045	-0.0038	-80.8
-0.0015	-0.0008	0.0015	-0.003	-80.8
-0.0023	-0.0023	0.0007	-0.0015	-80.7
-0.0008	-0.003	0.0015	-0.0008	-80.7
0.0015	0	0.003	-0.0008	-80.7
0.0007	0	0.0022	-0.0008	-80.7
0.0007	0.0007	0.0015	-0.0023	-80.7
-0.0015	-0.0008	-0.0008	-0.003	-80.7
-0.0015	-0.0008	-0.003	-0.0015	-80.7
-0.0008	-0.0015	-0.0008	-0.0015	-80.7
-0.0015	-0.0015	-0.0008	-0.003	-80.7
-0.0008	-0.0008	0.0015	-0.003	-80.7
-0.0015	-0.0008	0.0015	-0.0015	-80.7
0.0007	0.0007	0.0007	-0.0038	-80.7
0.0007	-0.0008	0.0022	-0.0046	-80.7
0.0007	-0.0008	0.0022	-0.0038	-80.7
0.0007	0.0007	0.0015	-0.003	-80.7
-0.0008	0.0007	0	-0.0008	-80.7
0.0015	0.0015	0.0015	-0.0008	-80.7
0.0007	0.0007	0.003	-0.0008	-80.7
0.0007	0	0	-0.0015	-80.7
0.0007	-0.0015	0.0007	-0.0015	-80.7
0	0.0007	0.0007	-0.0015	-80.7
0.0015	0.0007	0.0007	-0.0015	-80.7
0.0015	0	0.0007	-0.0008	-80.7
0.0007	0	0.0007	-0.0023	-80.7
-0.0008	0	0.0015	-0.0023	-80.7
-0.0023	-0.0008	0.0007	-0.0008	-80.7
-0.0015	-0.0015	0.0022	-0.0008	-80.7
-0.0008	-0.0015	0.0037	-0.0015	-80.7
-0.0008	-0.003	0.0007	-0.0008	-80.7
-0.0008	-0.003	0.0007	-0.0008	-80.7
-0.0015	-0.003	0.0015	0.0007	-80.7
-0.0008	-0.003	0.0015	0.0007	-80.7
-0.0008	-0.0008	0.003	0	-80.7
-0.0008	0.0007	0.003	0.0007	-80.7
-0.0015	-0.0008	0.0007	-0.0008	-80.7
-0.0008	-0.0008	0.0007	-0.0008	-80.7
-0.0008	0.0007	0.0015	-0.0023	-80.7
-0.0015	0.0007	-0.0008	-0.0015	-80.7
-0.0015	-0.0008	0	-0.0023	-80.7
-0.0015	-0.0008	0.0022	-0.0038	-80.7
-0.0008	0	0.0022	-0.0015	-80.7
0.0007	-0.0008	0.003	-0.0015	-80.7
0.0007	-0.0008	0.0015	-0.0015	-80.7
0	0	0.0015	-0.0015	-80.7
-0.0015	-0.0015	0.0022	-0.0015	-80.7
-0.0015	0	0.0015	-0.0015	-80.7
-0.0008	0.0007	0.0022	-0.0038	-80.7
-0.0015	-0.0015	0.0015	-0.0015	-80.7
-0.0015	-0.0015	0.0007	-0.0023	-80.7
0.0007	-0.0008	0.0007	-0.0023	-80.7
0	0	0	-0.0023	-80.7
0	-0.0008	-0.0008	-0.0008	-80.7
0	-0.0015	-0.0008	-0.0015	-80.7
0.0007	-0.003	0.0015	-0.0008	-80.7
0	-0.0015	0	-0.0015	-80.7
-0.0008	-0.0015	0.0007	-0.003	-80.7
0.0007	-0.0015	0.0007	-0.0008	-80.7
0.0007	-0.0008	0.0015	-0.0023	-80.7
0.0015	-0.0015	0.0015	0.0007	-80.7
0.0015	0.0007	0.0007	-0.0008	-80.7
0.0015	0.0007	0.003	-0.0008	-80.7
0.0007	0	0.003	-0.003	-80.7
0.0007	-0.0008	0.0007	-0.0046	-80.7
0.0015	0.0007	0.0015	-0.0008	-80.7
0.0007	-0.0008	0.0015	-0.003	-80.7
0	-0.0008	-0.0008	-0.0023	-80.7
-0.0008	-0.0008	-0.0008	-0.0023	-80.7
-0.0015	-0.0023	-0.0008	-0.003	-80.7
0	-0.0015	-0.003	-0.003	-80.7
0.0007	-0.0015	-0.0046	-0.0015	-80.7
0.0007	-0.0015	-0.003	-0.0015	-80.7
0.0015	-0.0008	-0.0008	0	-80.7
0.0015	-0.0015	0.0007	0.0007	-80.7
0.0007	-0.0008	0.0007	0.0007	-80.7
-0.0008	0.0015	0.0015	0.0007	-80.7
-0.0008	0.003	0.0022	0.0007	-80.7
-0.0015	0.0007	0.0045	0.0007	-80.7
0	0.0007	0.0037	-0.0008	-80.7
0.0007	0.0007	0.003	0	-80.7
0.0015	-0.0015	0.0015	0.0007	-80.7
0.0007	-0.0015	0.0015	-0.0015	-80.7
0.0015	-0.0023	0.0015	-0.0015	-80.7
0.0007	-0.0015	0.0007	-0.0008	-80.7
-0.0008	-0.0015	0.0015	0	-80.7
0.0007	-0.0008	-0.0008	0	-80.7
0.0007	-0.0015	-0.0008	-0.0008	-80.7
-0.0008	-0.0023	0.0007	-0.0008	-80.7
-0.0008	0	0	0.0007	-80.7
0	0	0.0007	0	-80.7
-0.0008	-0.0008	0.0007	-0.0015	-80.7
-0.0008	0.0007	0.0015	-0.0008	-80.7
-0.0008	0.0007	0.0022	-0.0008	-80.7
0	0	0.0015	-0.0015	-80.7
-0.0008	-0.0015	0.0007	-0.0023	-80.7
-0.0015	-0.003	-0.0008	-0.0015	-80.7
-0.0008	-0.003	0	-0.0008	-80.7
0.0007	-0.0023	0.0015	-0.0008	-80.7
-0.0008	-0.0008	0.003	-0.0008	-80.7
0.0007	-0.0015	0.0037	-0.0015	-80.7
0.0007	-0.0015	0.0052	-0.0015	-80.7
0	-0.0008	0.0067	-0.0015	-80.7
0	0	0.0045	-0.0008	-80.7
0.0007	0	0.0015	0.0007	-80.7
0.0015	-0.0008	0.0007	-0.0023	-80.7
0.003	-0.0008	-0.0008	-0.0015	-80.7
0.003	-0.0015	0.0007	-0.0008	-80.7
0	-0.0008	0.0007	-0.0015	-80.7
-0.0015	-0.0008	-0.0008	-0.0015	-80.7
-0.0015	0	-0.0015	-0.0008	-80.7
-0.0008	-0.0008	0	-0.0015	-80.7
0.0015	-0.0008	0.0007	-0.003	-80.8
0.0007	-0.0015	0	-0.003	-80.8
-0.0023	-0.0015	0.0015	0	-80.8
-0.003	-0.0008	0.0007	0.0007	-80.8
-0.003	-0.0008	0.0015	-0.0008	-80.8
-0.0015	-0.0008	0.0007	-0.0015	-80.8
-0.0023	-0.0008	0	-0.0023	-80.8
-0.0015	-0.0008	0.0007	-0.0008	-80.8
-0.0008	0	0.0007	-0.0008	-80.8
-0.0008	0	0.0037	0.0007	-80.8
0	0.0007	0.0007	0	-80.8
0.0015	0.0007	0.0015	-0.0015	-80.8
0.0007	0.0007	0.0015	-0.0015	-80.8
0	0.0015	-0.0008	-0.0023	-80.8
0.0015	-0.0008	0.0007	-0.0023	-80.8
0.0007	-0.0023	-0.0015	-0.0023	-80.8
0	-0.0015	0	-0.0008	-80.8
0.0007	-0.0015	-0.0008	-0.0008	-80.8
-0.0008	-0.0008	-0.0008	-0.0015	-80.8
0.0015	-0.0008	0.003	-0.0008	-80.8
0	-0.0015	0.003	-0.003	-80.8
-0.0008	-0.0023	0.0015	-0.003	-80.8
0	-0.0008	0.0015	-0.0015	-80.8
-0.0015	-0.0008	0.0007	-0.0008	-80.8
-0.0015	-0.0008	0.0007	-0.0015	-80.8
-0.0008	0	0.0022	-0.003	-80.8
0	-0.0015	0.0037	-0.0015	-80.8
0.0015	0.0007	0.0037	-0.0015	-80.8
0.0015	0	0.0015	-0.0015	-80.8
0	0	0.0007	-0.0015	-80.8
-0.0015	-0.0008	0.0015	-0.0023	-80.8
-0.0015	-0.0015	0.0022	-0.0015	-80.8
-0.0008	-0.0008	0.003	-0.003	-80.8
0	-0.0008	0.0037	-0.0015	-80.8
-0.0008	-0.0008	0.003	-0.0023	-80.8
-0.0015	-0.0008	0.0045	-0.0015	-80.8
-0.0008	0.0015	0.0052	-0.0008	-80.8
-0.0008	0	0.0045	-0.0015	-80.8
-0.0008	-0.0008	0.003	-0.0015	-80.8
-0.0008	-0.0015	0.0015	-0.0015	-80.8
-0.0008	-0.0015	-0.0008	-0.0008	-80.8
-0.0008	0.0007	-0.0008	-0.0008	-80.8
-0.0015	-0.0023	0.0007	-0.0023	-80.8
-0.0008	-0.0023	0.0007	-0.0023	-80.8
0	-0.0023	0.0007	-0.0015	-80.8
-0.0008	-0.003	0.0015	-0.0023	-80.8
0	-0.003	0.0015	-0.0015	-80.8
-0.0008	-0.0015	-0.0015	-0.0015	-80.8
0.0007	-0.0008	0	-0.0008	-80.8
0.0015	-0.0008	0.0007	-0.0008	-80.8
0.0007	-0.0008	-0.0008	-0.0023	-80.8
0.0007	-0.0008	0.0007	-0.0023	-80.8
0.0007	-0.0008	-0.0008	-0.0015	-80.8
-0.0008	-0.0008	0.0007	0	-80.8
-0.0008	0.0007	0.0015	-0.0008	-80.8
0	0	0.0007	-0.0008	-80.8
0.0007	-0.0008	0	0	-80.8
-0.0008	-0.0015	-0.0008	-0.0008	-80.8
-0.0023	-0.0015	0.0007	-0.0008	-80.8
0	-0.0015	-0.0008	-0.0008	-80.8
0.0015	-0.0015	0	-0.0015	-80.9
0.003	-0.0008	0.0015	-0.003	-80.9
0.003	-0.0015	0	-0.003	-80.9
0	-0.0015	0.0007	-0.003	-80.9
0	-0.0023	0.0015	-0.003	-80.9
-0.0008	-0.0023	0.003	-0.0008	-80.9
-0.0015	-0.0008	0.0015	-0.0015	-80.9
-0.0008	-0.0015	0.0007	-0.0008	-80.9
-0.0008	0	0.0007	-0.0008	-80.9
-0.0023	0.0007	0.0007	-0.0008	-80.9
-0.0015	-0.0008	0	0.0007	-80.9
-0.0008	-0.003	0.0007	0.0015	-80.9
-0.0015	-0.0023	0.0007	-0.0008	-80.9
-0.0015	-0.0008	0.0007	-0.0015	-80.9
-0.0023	-0.0023	0.0007	-0.0008	-80.9
-0.0015	-0.0008	0.0015	-0.0008	-80.9
-0.0015	-0.0008	0.0045	0	-80.9
0.0007	0	0.0045	-0.0015	-80.9
0.0015	-0.0008	0.006	0	-80.9
0.0007	0.0015	0.0045	0.0007	-80.9
0.0007	0.0022	0.0007	-0.0008	-80.9
0.0007	-0.0008	0.0015	0.0007	-80.9
-0.0008	0.0007	0.0007	-0.0008	-80.9
0.0007	-0.0008	0	-0.0008	-80.9
0.0015	-0.0015	0.0015	-0.0008	-80.9
0	-0.0008	0.0015	-0.0008	-80.9
-0.0008	-0.0015	0.0015	-0.0015	-80.9
-0.0015	-0.0008	0.0007	-0.0038	-80.9
-0.0008	0	0.0015	-0.003	-80.9
0	-0.0008	0	-0.003	-80.9
0	-0.0008	-0.0008	-0.003	-80.9
-0.0008	-0.0008	0.0022	-0.0015	-80.9
0.0007	0.0007	0.003	-0.0023	-80.9
0.0015	0	0.0015	-0.0023	-80.9
-0.0015	-0.0008	0.0007	-0.0023	-80.9
-0.0008	0.0007	0	-0.0015	-80.9
-0.0008	0.0015	-0.0015	-0.0023	-80.9
-0.0008	-0.0008	0.0015	-0.0015	-80.9
0	0.0007	0.0022	-0.0008	-80.9
-0.0008	0.0007	0.0015	-0.0023	-80.9
-0.0008	-0.0015	0.0022	-0.003	-80.9
0.0007	-0.0015	0.0022	-0.0015	-80.9
0.0007	-0.0023	0.0022	-0.0015	-80.9
0.0007	-0.0023	0.0015	-0.0015	-80.9
-0.0008	-0.0038	0.0007	-0.0008	-80.9
-0.0008	-0.0046	0	-0.0015	-80.9
0.0007	-0.0023	0.0007	-0.0008	-80.9
-0.0008	-0.0023	0.0007	0.0007	-80.9
-0.0008	-0.003	-0.0008	-0.0008	-80.9
-0.0008	-0.0008	-0.0008	-0.0008	-80.9
-0.0008	-0.0015	-0.0023	-0.0008	-80.9
-0.0008	-0.0015	-0.0015	-0.0008	-80.9
-0.0008	0.0007	0	-0.0008	-80.9
0	-0.0008	0.0007	-0.0008	-80.9
0	-0.0008	0.0007	-0.0015	-80.9
-0.0008	-0.0015	0.0015	-0.0008	-80.9
0.0015	-0.003	0.0015	-0.0008	-80.9
0.0015	-0.0008	0.003	-0.003	-80.9
0.0007	-0.0015	0.003	-0.003	-80.9
0.0007	0	0.003	-0.0008	-80.9
0	-0.0008	0.0022	-0.0015	-80.9
-0.0008	-0.0015	0.003	-0.0008	-80.9
0	-0.0008	0.003	-0.0015	-80.9
0.0007	0.0007	0.0022	-0.003	-80.9
-0.0008	0.0007	0.0015	-0.0015	-80.9
-0.0008	0.0007	0.0007	-0.003	-80.9
-0.0008	0.0015	-0.0015	-0.003	-80.9
-0.0008	0.0007	-0.0015	-0.0023	-80.9
-0.0008	0	-0.0015	-0.003	-80.9
-0.0008	-0.0008	-0.0008	-0.0015	-80.9
0.0015	-0.0023	0.0015	-0.0015	-80.9
0.0007	-0.0015	0.0015	-0.0015	-80.9
-0.0008	-0.0008	0.003	-0.0008	-80.9
0	-0.0008	0.003	0.0007	-80.9
0.0007	-0.0008	0.0015	0.0007	-80.9
0.0007	0.0007	0.003	0.0007	-80.9
0	0.0007	0.0015	0.0007	-80.9
0	0.0007	0.0022	0.0007	-80.9
-0.0008	0.0015	0.0015	0	-80.9
-0.0008	-0.0008	0.0015	0	-80.9
-0.0023	-0.0015	0.0015	-0.0008	-80.9
-0.0015	-0.0015	0.0007	-0.0023	-80.9
-0.0008	-0.0008	0.003	-0.0015	-80.9
-0.0015	-0.0008	0	0.0007	-80.9
0.0007	-0.0015	0	0.0007	-80.9
0.0007	-0.0008	0.0015	0	-80.9
0.0007	-0.0008	0	-0.0008	-80.9
-0.0008	0	0	-0.0015	-80.9
0.0007	-0.0008	-0.0008	-0.0008	-80.9
0.0007	-0.0008	-0.0015	-0.0015	-80.9
0.0015	-0.0015	0.0015	-0.0015	-80.9
0.0015	-0.003	0.0007	-0.0008	-80.9
0.0007	-0.0015	0.0007	-0.0015	-80.9
0	-0.0015	0.003	-0.0008	-80.9
-0.0008	-0.0008	0.0015	0	-80.9
0	-0.0008	0.0007	-0.0008	-80.9
-0.0008	-0.0015	0.0015	0.0007	-80.9
-0.0008	-0.0023	0.0015	-0.0015	-80.9
-0.0008	-0.0015	0.0007	-0.0015	-80.9
-0.0008	-0.0008	0	-0.0008	-80.9
0	-0.0015	0	-0.0015	-80.9
-0.0008	-0.0015	-0.0023	-0.0008	-80.9
-0.0008	0	-0.003	-0.0008	-80.9
-0.0008	0	0.0007	-0.0008	-80.9
-0.0008	-0.0008	0.0022	-0.0015	-80.9
0.0015	-0.0008	0.0045	-0.0015	-80.9
0.0022	0	0.0037	-0.0023	-80.9
0.0007	0.0007	0.0015	-0.003	-80.9
-0.0008	0.0007	0.0022	-0.0038	-80.9
-0.0015	0.0007	0.0015	-0.0023	-80.9
-0.0008	0.0007	0.0007	-0.0023	-80.9
0	0.0007	-0.0008	-0.003	-80.9
-0.0008	0.0007	-0.0008	-0.0015	-80.9
-0.0015	-0.0008	0.0015	-0.0038	-80.9
-0.0023	-0.0008	0.0015	-0.0008	-80.9
0.0007	0	0.0022	-0.0008	-80.9
0.0007	0.0015	0.003	-0.0015	-80.9
-0.0015	0.0007	0.0022	-0.0008	-80.9
-0.0015	0	0.0037	-0.0023	-80.9
-0.003	-0.0015	0.0045	-0.0015	-80.9
-0.0015	-0.0008	0.0007	-0.0015	-80.9
-0.0008	-0.0008	0.0015	-0.0008	-80.9
-0.0015	-0.0008	0.0022	0	-80.9
-0.0008	0	0.0022	-0.003	-80.9
-0.0008	-0.0008	0	-0.0023	-80.9
-0.0008	-0.0008	0.0015	-0.003	-80.9
-0.0008	-0.003	0.0015	-0.0038	-80.9
-0.0008	-0.003	0.0007	-0.003	-80.9
0.0007	-0.0008	0.0007	-0.003	-80.9
0	-0.003	-0.0008	-0.0015	-80.9
0.0007	-0.0023	0.0007	-0.0015	-80.9
0	-0.0023	0.0015	-0.0008	-80.9
-0.0015	-0.0015	0.003	-0.0015	-80.9
-0.0008	0.0007	0.003	-0.0015	-80.9
0	0.0007	0.0015	-0.0008	-80.9
0.0007	0	0.0007	-0.0008	-80.9
0.0022	-0.0015	0.0007	-0.0015	-80.9
0.003	0.0007	-0.0008	-0.0008	-80.9
0.0015	0.0007	0.0007	-0.0015	-80.9
0	-0.0008	0.0022	-0.0015	-80.9
0.0022	0.0015	0.0015	-0.0023	-80.9
0.0007	0.0007	0.003	-0.0023	-80.9
-0.0008	0	0.0007	-0.0015	-80.9
0.0015	-0.0008	0.0022	-0.0015	-80.9
0.0015	0	0.0015	-0.0008	-80.9
0.0007	0.0007	-0.0008	-0.0008	-80.9
0.0007	-0.0008	0.0007	-0.0023	-80.9
-0.0023	-0.0015	0.0007	-0.003	-80.9
-0.0015	-0.0015	0.0015	-0.0023	-80.9
0.0015	0.0015	0.0022	-0.0015	-80.9
0.0015	0.0015	0.003	-0.0015	-80.9
0	-0.0015	0.003	-0.0015	-80.9
-0.0023	-0.0008	0.0007	-0.0023	-80.9
-0.0015	-0.0015	0	-0.0023	-80.9
-0.0015	-0.0008	0.0015	-0.0015	-80.9
-0.0008	0.0007	0.0015	-0.0015	-81
0.0007	-0.0008	0	-0.003	-81
-0.0015	-0.0008	0.0007	-0.003	-81
-0.0015	-0.0008	0.0022	-0.0008	-81
-0.0023	0	0.0015	0	-81
0	0	0.0015	-0.0015	-81
0	-0.0008	0.0007	0.0007	-81
-0.0015	-0.0015	0.0007	-0.0008	-81
-0.0015	-0.0015	0.0015	0	-81
-0.003	-0.0015	-0.0008	0.0007	-81
-0.0008	-0.0008	0.0015	0	-81
-0.0015	-0.0015	0.0007	-0.0008	-81
-0.0015	-0.0023	0	-0.0015	-81
0.0007	-0.0015	0	-0.0008	-81
0.0007	-0.0008	0	-0.003	-81
0.0022	0	0.0007	-0.003	-81
0	-0.0008	-0.0023	-0.0015	-81
0.0007	-0.0015	0	-0.0023	-81
0	-0.003	0.0007	-0.003	-81
-0.003	-0.003	0.0015	-0.0008	-81
-0.0008	-0.0023	0.0022	0.0007	-81
0.0007	-0.0023	0.0022	0.0015	-81
0.003	-0.0008	0.0045	0.0007	-81
0.0007	0.0007	0.0015	-0.0008	-81
0	0.0007	0.003	-0.0008	-81
0.0007	-0.0008	0.0015	-0.0023	-81
0.0015	-0.0015	0.0007	-0.0015	-81
0.0015	-0.0015	0.0015	-0.0015	-81
-0.0008	-0.0015	0.0015	-0.0015	-81
0	-0.0015	0.0037	-0.0015	-81
-0.0015	-0.0015	0.0007	-0.0008	-81
-0.0015	-0.0008	0.0007	-0.0008	-81
-0.0008	-0.0008	0.0015	-0.0023	-81
-0.0008	-0.003	-0.0008	-0.0023	-81
-0.0008	-0.0023	0.0007	-0.0008	-81
-0.0008	-0.0008	0.0015	-0.0008	-81
-0.0008	-0.0015	0.0022	-0.0008	-81
-0.0008	-0.0015	0.0015	-0.0008	-81
-0.0015	0	0.003	-0.0008	-81
-0.0023	-0.0008	0.0052	-0.0008	-81
-0.0008	0.0007	0.003	0.0007	-81
-0.0015	0.0007	0.0045	-0.0008	-81
-0.0008	-0.0008	0.0015	-0.0008	-81
0.0007	-0.0008	0	-0.0008	-81
-0.0008	0	-0.0008	-0.0008	-81
0.0007	0.0007	-0.0008	-0.0015	-81
0.0007	0.0007	0.0007	-0.0008	-81
0.0015	-0.0015	0	-0.0008	-81
0.0007	-0.0023	0.0015	-0.0008	-81
0.0007	-0.0023	0.0007	-0.0015	-81
0.0007	-0.003	0.003	-0.0023	-81
0.0007	-0.0015	0.003	-0.0015	-81
0.0007	-0.0023	0.0015	-0.003	-81
-0.0023	-0.0015	0.003	-0.0015	-81
-0.0015	0	0.0007	-0.0008	-81
-0.0008	0.0007	0.0015	-0.0015	-81
0.0007	-0.0008	0.0022	-0.0015	-81
0	-0.0008	0.0015	-0.0015	-81
-0.0008	-0.0008	-0.0015	-0.0015	-81
-0.0015	-0.0008	0.0007	-0.0023	-81
-0.0023	-0.0015	0.0007	-0.0023	-81
-0.0015	-0.0015	-0.0015	-0.0023	-81
0.0007	-0.0008	0	-0.0008	-81
0.0007	0	-0.0015	-0.0015	-81
-0.0015	-0.0023	-0.0015	-0.0008	-81
-0.0008	-0.0015	0	0.0007	-81
0.0007	-0.0008	0.003	-0.0008	-81
0.003	0	0.0007	-0.0008	-81
0.0007	0.0015	0.0007	0	-81
0	0	0.0015	-0.0015	-81
-0.0015	0.0007	0.0015	-0.0008	-81
-0.0015	-0.0015	0.0015	0.0007	-81
-0.0015	0	0	-0.0008	-81
-0.0008	0	0.0007	0	-81
0.0007	-0.0008	0	-0.0008	-81
-0.0008	0.0007	-0.0015	-0.0015	-81
-0.0015	0	-0.0008	-0.0008	-81
-0.0015	-0.0008	0.0007	-0.0015	-81
-0.0008	0	0.0007	-0.0015	-81
0.0007	-0.0008	-0.0008	-0.003	-81
0	-0.0015	0.0007	-0.0015	-81
0.0007	-0.0015	0.0022	-0.0015	-81
0.0007	-0.0008	0.0052	0.0007	-81
0.0007	-0.0008	0.0045	0.0007	-81
0.0007	-0.003	0.0015	-0.0023	-81
0.0007	-0.003	0.0015	-0.0015	-81
0.0015	-0.003	-0.0008	-0.0015	-81
0.0022	-0.003	0.0007	-0.0015	-81
0.0015	-0.0008	0.0022	-0.0023	-81
0.0015	-0.0008	0.0007	-0.0015	-81
0.0015	-0.0015	0.0007	-0.0015	-81
0.0007	-0.0015	-0.0015	-0.0015	-81
0.003	-0.0015	0	-0.0008	-81
0.0007	0.0007	0	-0.0008	-81
-0.0008	0.0015	0.0007	-0.0008	-81
0	0	0.003	-0.0015	-81
0	0.0015	0.0007	-0.0008	-81
0	0.0007	0.0015	0	-81
-0.0008	-0.0008	0	-0.0008	-81
-0.0008	0	0.0022	-0.0015	-81
-0.0015	0.0015	0.003	-0.0015	-81
-0.0015	0.0007	0.0007	-0.0015	-81
-0.0015	0.0007	0.0007	-0.0015	-81
0.0007	0.0007	0.0015	-0.0015	-81
0.0015	-0.0008	0.0037	-0.0015	-81
0.0022	-0.0015	0.003	-0.0008	-81.1
0.0015	-0.0008	0.0015	-0.0023	-81.1
0.0007	-0.0008	0.003	-0.0023	-81.1
0.0007	-0.0015	0.003	-0.0015	-81.1
-0.0008	-0.0008	0.0022	-0.0023	-81.1
0.0007	0	0.0015	-0.0023	-81.1
0.0007	0.0007	0.0007	-0.0015	-81.1
0.0007	-0.0015	0.0007	-0.0015	-81.1
0	-0.0008	0.0007	-0.003	-81.1
-0.0015	-0.0008	-0.0008	-0.0023	-81.1
-0.0008	-0.0015	0	-0.003	-81.1
-0.0008	-0.0008	0.0015	-0.0015	-81.1
0.0007	-0.0008	0.0007	-0.0015	-81.1
-0.0008	0.0007	0.0007	-0.003	-81.1
-0.0008	0	0.0015	-0.0015	-81.1
0.0007	0.0015	0.0015	-0.0015	-81.1
0	0	0.0015	-0.0023	-81.1
0.0007	-0.0008	0.0015	-0.0023	-81.1
0.0007	-0.0008	0.0007	-0.0015	-81.1
-0.0008	-0.0008	0	-0.0015	-81.1
-0.0015	-0.0008	0	-0.0008	-81.1
-0.0015	-0.003	0	-0.0023	-81.1
-0.0015	-0.0038	0.0015	-0.0015	-81.1
-0.0008	-0.0046	0	-0.0015	-81.1
0.0007	-0.003	0	-0.003	-81.1
-0.0008	-0.0015	0.003	-0.0015	-81.1
-0.0015	-0.0015	0.003	0	-81.1
-0.0015	0.0007	0.003	0.0015	-81.1
-0.0008	0	0.0015	-0.0008	-81.1
-0.0015	0.0007	0.0007	-0.0015	-81.1
-0.0015	0.0007	0.0007	-0.0015	-81.1
-0.0008	-0.0008	0	-0.0008	-81.1
0	-0.0008	0	-0.0008	-81.1
0.0007	-0.0008	0.0015	-0.0015	-81.1
-0.0015	-0.0008	-0.0008	-0.0015	-81.1
-0.0008	0	-0.0008	-0.003	-81.1
0.0015	0	0	-0.0023	-81.1
0.0007	-0.0008	-0.0015	-0.0023	-81.1
-0.0008	-0.0023	-0.0008	-0.003	-81.1
-0.0008	-0.0015	-0.0008	-0.0015	-81.1
0	-0.0008	0	-0.0008	-81.1
0	0	0.0015	-0.0008	-81.1
0.0007	0.0007	0.0022	-0.0015	-81.1
0.0007	-0.0015	0.0015	-0.003	-81.1
0.0007	-0.0008	0.003	-0.0015	-81.1
0.0007	0	0.003	-0.0015	-81.1
0.0015	-0.0015	0.0007	-0.0015	-81.1
0.0007	-0.0008	0.0007	-0.003	-81.1
0.0007	-0.0008	0.0015	-0.0008	-81.1
0.0007	0.0007	0.0015	0.0007	-81.1
-0.0008	0.0007	0.0007	-0.0008	-81.1
-0.0015	-0.0008	0.0007	-0.0015	-81.1
-0.0008	-0.0015	0.0015	-0.003	-81.1
-0.0015	-0.003	0.0022	-0.003	-81.1
-0.0008	-0.0008	0.0022	-0.0008	-81.1
-0.0015	-0.0008	0.0037	0	-81.1
-0.003	-0.0008	0.003	-0.0008	-81.1
-0.0015	-0.0008	0.003	0.0007	-81.1
-0.0015	-0.0008	0.003	0	-81.1
-0.0015	0.0015	0.0015	-0.0008	-81.1
0	-0.0008	0.0007	0	-81.1
0	-0.0015	-0.0008	-0.0008	-81.1
0.0007	-0.0015	-0.0008	-0.0008	-81.1
0.0015	-0.0023	0.0015	-0.0008	-81.1
0.0007	-0.0008	0.0022	0.0007	-81.1
0	-0.0015	0.003	0	-81.1
-0.0008	-0.0023	0.0007	-0.0008	-81.1
0	-0.003	-0.0008	-0.0008	-81.1
-0.0008	-0.0038	0.0007	0.0007	-81.1
0	-0.0023	-0.0008	-0.0008	-81.1
0.0007	-0.0023	0.0007	-0.0015	-81.1
-0.0015	-0.0015	0.0007	-0.0023	-81.1
-0.0023	0	0.0007	-0.003	-81.1
-0.0015	-0.0008	0.0015	-0.003	-81.1
-0.0008	0.0007	0.0007	-0.0015	-81.1
-0.0008	0.0015	0.0015	-0.0015	-81.1
0.0007	-0.0008	0	-0.003	-81.1
0	0.0007	0	-0.0015	-81.1
0	0.0007	0.0015	-0.0015	-81.1
0.0015	0.0007	0.0015	-0.0015	-81.1
0.0015	0.0007	0.0007	-0.003	-81.1
0.0007	-0.0008	0.0007	-0.0015	-81.1
0.0007	-0.0008	0.0015	-0.0023	-81.1
0.0007	-0.0015	0.0007	-0.003	-81.1
0.0007	-0.0015	0.0015	-0.0015	-81.1
0.0007	0.0007	0.003	-0.0015	-81.1
0.0007	0.0007	0.0045	-0.0015	-81.1
0.0007	0	0.003	0.0007	-81.1
-0.0015	-0.0015	0.0007	-0.0008	-81.1
0	-0.0015	0.0015	-0.0015	-81.1
-0.0008	-0.0015	0.0015	-0.0015	-81.1
-0.0015	-0.0015	0.0015	-0.0015	-81.1
0.0007	0	0.0022	-0.0008	-81.1
0.0007	-0.0008	0.0007	-0.0015	-81.1
-0.0008	-0.0015	0.0007	-0.0008	-81.1
-0.0008	-0.0008	0.0022	-0.0015	-81.1
0.0007	-0.0015	0.0022	-0.003	-81.1
-0.0008	-0.0015	0	-0.0015	-81.1
0	-0.0015	0	-0.0015	-81.1
0.0015	-0.0015	0.0007	-0.0015	-81.1
-0.0008	-0.0008	0.0007	-0.0008	-81.1
0.0015	0	0.0007	0.0007	-81.1
0	0.0015	0.003	0.0015	-81.1
0	0.0022	0.0052	-0.0008	-81.1
0.0007	0.0015	0.0045	-0.0015	-81.1
0	-0.0008	0.0045	-0.0023	-81.1
0.0007	0	0.0037	-0.0015	-81.1
-0.0015	0.0007	0.0015	-0.0008	-81.1
-0.0008	0	0.0007	-0.0008	-81.1
-0.0008	0	0.0007	-0.0008	-81.1
-0.0015	-0.0015	0.0015	-0.0008	-81.1
-0.0008	-0.003	0.0022	-0.0015	-81.1
0	-0.003	0.003	-0.0008	-81.1
0.0022	-0.0008	0.0015	-0.0008	-81.1
0.0022	-0.0008	0	-0.0008	-81.1
0.0007	-0.0008	0.0007	-0.0023	-81.1
-0.0008	0	0	-0.0023	-81.1
-0.0008	-0.0015	-0.0008	-0.0023	-81.1
0.0007	-0.0015	-0.0015	-0.0008	-81.1
0.0007	-0.0008	-0.0023	-0.0015	-81.1
0	0	-0.003	-0.0038	-81.1
0.0007	-0.0008	-0.0023	-0.0015	-81.1
-0.0015	-0.0023	0.0015	0	-81.1
-0.0008	-0.003	0.0022	-0.0015	-81.1
0.0015	-0.0015	0.0015	-0.0015	-81.1
0.0007	-0.0008	0.0022	-0.0015	-81.1
0.0015	0	0.0022	-0.0015	-81.1
0.0007	-0.0023	0.0015	-0.0015	-81.1
0.0007	-0.0008	0.0015	-0.0023	-81.1
0	-0.0008	0.0007	-0.003	-81.1
-0.0015	-0.0015	0.0007	-0.0023	-81.1
-0.0015	-0.0015	0.0007	-0.003	-81.1
-0.0008	0	0.0007	-0.0038	-81.1
-0.0015	-0.0015	-0.0015	-0.003	-81.1
-0.0015	-0.0023	-0.0008	-0.0015	-81.1
-0.0015	-0.0023	0.0015	-0.003	-81.1
-0.0015	-0.003	0.0015	-0.0015	-81.1
0	-0.0015	0.0037	-0.0015	-81.1
-0.003	-0.003	0.0015	0	-81.1
-0.0038	-0.003	-0.0008	-0.0008	-81.1
-0.0023	-0.0015	-0.0015	-0.003	-81.1
-0.0015	-0.0023	-0.0015	-0.0023	-81.1
-0.0015	-0.0015	0.0015	-0.0023	-81.1
-0.0008	-0.0008	0.0015	-0.0015	-81.1
0.0007	-0.0015	0.0015	-0.003	-81.1
0.0007	-0.0023	0.0022	-0.0008	-81.1
0.0007	-0.0023	0.003	-0.0015	-81.1
-0.0015	-0.0023	0.0045	-0.0008	-81.1
-0.0008	-0.0015	0.006	0.003	-81.1
0.0007	0.0015	0.0045	0.003	-81.1
0.0015	0.0015	0	0.003	-81.1
0	0	-0.0008	0.0015	-81.1
-0.0008	-0.0015	0.0015	0.0007	-81.1
0	-0.0015	0.0007	0.0007	-81.1
0.0007	-0.0008	-0.0015	0.0007	-81.1
0.0007	-0.0008	-0.0015	0.0007	-81.1
0	-0.0015	0.0007	-0.0015	-81.1
-0.0008	-0.0008	-0.0008	-0.0008	-81.1
0.0007	0	-0.0008	-0.0008	-81.1
0	-0.0008	0.0007	-0.0008	-81.1
0	0.0007	0.0007	-0.0015	-81.1
0.0015	-0.0008	0.0022	-0.0015	-81.1
0	-0.0015	0.003	-0.0015	-81.1
-0.0008	-0.0023	0.003	-0.0008	-81.1
0	-0.003	0.003	0	-81.1
-0.0008	-0.0008	0.0015	0.0007	-81.1
0.0007	-0.0008	0.0007	-0.0008	-81.1
0.0015	-0.0008	0.0007	-0.0023	-81.1
0.0007	-0.0008	0.0015	-0.0015	-81.1
0.0015	-0.0008	0.003	0	-81.1
0.0022	0.0015	0.0022	0.0022	-81.1
-0.0008	0	0.003	0	-81.1
0	0.0015	0.0015	0	-81.1
0	0.0007	0	-0.0015	-81.1
0.0015	-0.0023	0.0015	-0.0015	-81.1
0.0007	-0.0023	0.0007	-0.0015	-81.1
-0.0008	-0.0015	0.0007	-0.0008	-81.1
0.0015	0	0.0022	-0.0008	-81.1
0	-0.0008	0.0015	-0.0015	-81.1
0.0007	0	0.0007	-0.0008	-81.1
-0.0015	0	0.0015	-0.0015	-81.1
-0.0015	-0.0015	0.0022	-0.0008	-81.1
0	0.0007	0.0015	-0.0015	-81.1
-0.0015	0.0015	0.0007	-0.0015	-81.1
0.0007	0.0015	0	-0.0008	-81.1
0.0007	0	-0.0008	-0.0015	-81.1
0.0007	0	0.0007	0	-81.1
0.0007	0	0.0007	-0.0015	-81.1
0	0.0007	-0.0008	-0.0008	-81.1
0.0007	-0.0008	-0.0008	-0.0015	-81.1
0	-0.0015	0.0007	-0.0015	-81.1
-0.0008	-0.0015	0.0007	-0.0008	-81.1
-0.0008	-0.0015	0.0007	-0.0015	-81.1
-0.0008	-0.0008	0.003	-0.0015	-81.1
-0.0015	-0.0008	0.0015	-0.0023	-81.1
-0.0023	0.0007	0.0045	-0.0023	-81.1
-0.0008	0.0007	0.0022	-0.0015	-81.1
0	0.0007	0.0022	-0.0015	-81.1
-0.0008	-0.0008	0.0015	-0.0023	-81.1
-0.0015	-0.0008	-0.0008	-0.0015	-81.1
-0.0008	-0.0008	-0.0008	-0.003	-81.1
0.0007	-0.0008	-0.0015	-0.003	-81.1
0.0007	-0.0008	-0.0008	-0.0038	-81.1
0.0007	-0.0008	-0.0008	-0.003	-81.1
-0.0008	0.0007	-0.0023	-0.0023	-81.1
-0.0023	-0.0008	-0.0008	-0.003	-81.1
-0.0008	-0.0008	-0.0015	-0.0038	-81.1
-0.0008	0.0007	-0.0008	-0.003	-81.1
0	-0.0015	0.0015	-0.003	-81.1
0	-0.0015	0.0022	-0.003	-81.1
-0.0015	-0.003	0.0037	-0.0015	-81.1
-0.0008	-0.0023	0.0022	-0.0015	-81.1
-0.0015	-0.0015	0.0022	-0.0015	-81.1
-0.0015	-0.0015	0.0007	-0.0015	-81.1
-0.0015	-0.0008	0.0015	-0.0008	-81.1
-0.003	-0.0023	-0.0008	-0.0008	-81.2
-0.0023	-0.0015	0	-0.0015	-81.2
0	-0.0008	0.0007	-0.0015	-81.2
0.0007	-0.0008	-0.0008	-0.0023	-81.2
0.0007	-0.0008	0.0022	-0.0015	-81.2
0.0007	-0.0023	0.0015	-0.0015	-81.2
0.0007	-0.0015	0.0022	-0.0015	-81.2
0.0015	-0.0015	0.0015	-0.0015	-81.2
0.0007	-0.0008	0.0007	-0.003	-81.2
0.0022	-0.0015	0.0015	-0.0015	-81.2
0.0022	-0.0015	0.003	-0.0008	-81.2
0.003	-0.0008	0.003	-0.0015	-81.2
0.0022	0.0007	0.0037	-0.0008	-81.2
0.0015	0.0015	0.0045	0.0007	-81.2
0.0007	0.0015	0.003	-0.0008	-81.2
0.0007	0.0015	0.0037	-0.0015	-81.2
0.0007	0.0007	0.003	-0.0008	-81.2
-0.0008	0.0007	0.003	-0.0008	-81.2
-0.0008	0	0.0037	-0.0023	-81.2
-0.0008	-0.0008	0.003	-0.0015	-81.2
0.0007	0	0.0037	-0.0008	-81.1
-0.0015	-0.0008	0.0015	-0.0015	-81.1
-0.003	0.0015	0.0015	-0.0008	-81.1
-0.0008	0	0.0015	-0.0008	-81.1
-0.0015	-0.0008	0	0.0015	-81.1
0	0	0.0007	-0.0008	-81.1
0.0007	-0.0008	0	-0.003	-81.1
0.003	-0.0008	0	-0.0023	-81.1
0.0022	-0.0008	0	-0.0038	-81.1
0	-0.0008	-0.0015	-0.0023	-81.1
0.0007	-0.0008	0.0007	-0.0015	-81.1
0.0007	0	0.0022	-0.0008	-81.1
0.0007	0	0.0015	-0.0008	-81.1
-0.0008	0	0.0037	0	-81.1
-0.0008	-0.0008	0.003	-0.0008	-81.1
-0.0023	-0.0008	0.003	-0.0015	-81.1
-0.003	0.0007	0.0007	-0.0008	-81.1
-0.003	0.0007	-0.0008	0.0007	-81.1
-0.003	0.0015	0.0007	0.0015	-81.1
-0.0015	0.0007	-0.0015	-0.0015	-81.1
0.0007	-0.0015	-0.0008	-0.0023	-81.1
-0.0008	-0.0015	0	-0.0015	-81.1
-0.0023	-0.0015	-0.0008	-0.0023	-81.1
-0.0008	-0.0015	-0.0023	-0.0015	-81.1
0.0015	-0.0023	-0.0008	-0.0008	-81.1
0	-0.003	0.0007	-0.0008	-81.2
-0.0008	-0.003	0	-0.003	-81.2
0.0007	-0.0008	-0.0008	-0.0023	-81.2
0.0007	0	-0.0015	-0.003	-81.2
0.0022	-0.0008	-0.0008	-0.0008	-81.2
0.0015	-0.003	-0.0008	-0.0008	-81.2
0.0007	-0.0015	0	-0.0008	-81.2
0.0015	0.0007	-0.0008	-0.0015	-81.2
-0.0008	-0.0015	-0.0008	-0.0046	-81.2
0.0007	-0.0008	-0.0008	-0.0023	-81.2
0.0007	-0.0015	-0.0015	-0.0008	-81.2
0	-0.003	0.0007	-0.0008	-81.2
-0.0015	-0.0015	0.0015	-0.0008	-81.2
-0.0015	0	0.0037	-0.0008	-81.2
-0.0008	-0.0023	0.0022	0	-81.2
0	-0.0038	0.0015	-0.0015	-81.2
-0.0015	-0.0015	0.0015	-0.0008	-81.2
-0.0008	-0.0015	0.0022	-0.0008	-81.2
0	-0.0008	0.0045	-0.0008	-81.2
0.0007	0.0007	0.0045	-0.0008	-81.2
0.0022	-0.0008	0.0045	-0.0015	-81.2
0.0007	-0.0008	0.0022	0	-81.2
0.0007	0	0.0015	0	-81.2
-0.0008	-0.0008	0.003	-0.0008	-81.2
-0.0008	-0.0023	0.0015	-0.0008	-81.2
-0.0015	-0.0015	0.0015	-0.0015	-81.2
-0.0023	0	0.0015	-0.0008	-81.2
-0.0015	-0.0008	-0.0008	-0.0008	-81.2
-0.0015	-0.0008	-0.0015	-0.0008	-81.2
-0.003	0	0.0007	-0.0008	-81.2
-0.0015	-0.0008	0.0007	-0.0008	-81.2
-0.0008	0	0.0022	-0.0008	-81.2
-0.0008	0	0.0015	-0.0008	-81.2
-0.0008	-0.0008	0.0015	-0.0015	-81.2
0	-0.0015	0.0007	-0.0023	-81.2
-0.0008	0	0.0022	-0.0015	-81.2
-0.0015	0	0.0045	-0.0008	-81.2
-0.0015	0.0007	0.0022	-0.0008	-81.2
-0.0023	0.0007	0.003	-0.0015	-81.2
-0.0015	0.0007	0.003	-0.0008	-81.2
-0.0008	-0.0008	0.0015	-0.0008	-81.2
-0.0015	-0.0015	0.003	-0.0023	-81.2
-0.0015	-0.0008	0.003	-0.003	-81.2
-0.0015	-0.0015	0.003	-0.0015	-81.2
-0.0023	-0.0008	0	-0.003	-81.2
-0.0008	-0.0015	0.0007	-0.0038	-81.2
0.0015	-0.0015	-0.0008	-0.0015	-81.2
0.0007	0	-0.0023	-0.0015	-81.2
0.0015	-0.0015	0.0015	-0.0015	-81.2
-0.0008	-0.0008	0.0007	0.0007	-81.2
-0.0008	0.0007	0.0015	-0.0008	-81.2
0.0007	-0.0008	0.0015	-0.0015	-81.2
0	0	0.0022	-0.0008	-81.2
0.0015	0	0.0007	-0.0008	-81.2
0.003	-0.0008	0.0007	-0.0008	-81.2
0.0022	-0.0008	0.003	0.0007	-81.2
0.0007	-0.0015	0.0007	0	-81.2
-0.0008	-0.0023	0.003	-0.0008	-81.2
-0.0008	0.0007	-0.0008	-0.0008	-81.2
0	0.0015	-0.0008	-0.0015	-81.2
0	-0.0008	-0.0008	-0.0015	-81.2
0.0007	-0.0008	-0.0015	-0.003	-81.2
0.0007	-0.0008	0.0007	-0.0023	-81.2
0.0022	-0.0008	0	-0.003	-81.2
0.0015	-0.0008	0.0007	-0.0015	-81.2
0	-0.0008	0.0007	-0.0015	-81.2
0.0007	-0.0015	0	-0.0008	-81.2
0.0015	0.0007	0.0007	-0.0008	-81.2
0.003	0.0015	0.003	-0.0008	-81.2
0.0007	0	0.003	-0.0008	-81.2
0.0007	0.0015	0.003	-0.0008	-81.2
0.0007	0.0007	0.0037	0	-81.2
0.0007	0.0007	0.0015	-0.0015	-81.2
0.0007	-0.0008	0	-0.0008	-81.2
-0.0015	-0.0008	0.0015	-0.0008	-81.2
0	0	0.0015	-0.0015	-81.2
0	-0.0023	0.0015	-0.003	-81.2
-0.0008	-0.0008	-0.0008	-0.0046	-81.2
-0.0008	-0.0015	-0.0023	-0.0046	-81.2
-0.0023	-0.0038	0.0015	-0.0038	-81.2
-0.0015	-0.003	0.0015	-0.003	-81.2
-0.0015	-0.0046	0.003	-0.003	-81.2
0	-0.0046	0.0015	-0.0015	-81.2
0.0007	-0.0023	0.0022	-0.003	-81.2
0.0007	-0.0015	0.0045	-0.0023	-81.2
0.0007	-0.0008	-0.0008	-0.0015	-81.2
-0.0015	-0.0015	0.0015	-0.0008	-81.2
-0.0008	-0.0015	0.0015	-0.0008	-81.2
0	-0.0015	0.003	-0.0015	-81.2
-0.0023	0	0.0045	-0.0015	-81.2
-0.0008	-0.0015	0.0007	-0.0015	-81.2
-0.0008	-0.0023	0.003	-0.0008	-81.2
0	-0.0015	0.0022	0.0007	-81.2
0.0007	-0.0015	0.0015	0.0007	-81.2
0.0007	0.0007	0.0007	0.0015	-81.2
0.0007	0	-0.0008	0.0015	-81.2
0.0007	-0.0015	0	0.0015	-81.2
0.0015	-0.0015	-0.0015	0.0007	-81.2
0.0007	-0.0015	-0.0015	0	-81.2
0.0007	0	-0.0008	-0.0008	-81.2
-0.0015	-0.0008	-0.0008	0.0007	-81.2
-0.0023	-0.0008	0.0007	0.0015	-81.2
-0.0008	-0.0008	0	-0.0008	-81.2
0.0007	-0.0008	-0.0023	-0.0015	-81.2
0.0007	0.0007	-0.0015	-0.0015	-81.2
-0.0008	0.0007	-0.0008	-0.0023	-81.2
-0.0015	0	0	-0.003	-81.2
-0.0008	0	0.0015	0	-81.2
-0.0008	0.0015	0.0022	0	-81.2
-0.0008	0.0022	0.0037	0	-81.2
-0.0008	0	0.0045	-0.0008	-81.2
-0.0008	-0.0008	0.003	-0.0023	-81.2
-0.0015	0.0007	0.003	0	-81.2
-0.0015	0.0007	0.0022	-0.0015	-81.2
-0.0015	-0.0008	0.0007	0	-81.2
-0.0008	-0.0008	0.0015	0.0007	-81.2
0.0007	0	0.0015	-0.0008	-81.2
0.0007	0.0007	0.0007	-0.0008	-81.2
0.0015	0	0.0007	-0.0015	-81.2
0.0007	0	0.0015	-0.003	-81.2
0.0007	-0.0008	0.003	-0.0023	-81.2
-0.0008	-0.0008	0.003	-0.0023	-81.2
-0.0023	0	0.0037	-0.0015	-81.2
-0.0015	0.0007	0.003	-0.0015	-81.2
-0.003	-0.0015	0.003	-0.0008	-81.2
-0.0015	-0.0015	0.003	-0.0015	-81.2
-0.0015	-0.0023	0.0022	-0.0023	-81.2
-0.0015	-0.0015	0.0007	-0.0015	-81.2
0.0007	-0.0015	-0.0015	-0.0023	-81.2
0.0007	-0.0015	-0.0015	0	-81.2
0	-0.0008	-0.0015	-0.0015	-81.2
0.0007	-0.003	-0.0008	-0.0015	-81.2
0	-0.0023	-0.0015	-0.0015	-81.2
0.0007	-0.003	0.0007	-0.003	-81.2
0.0015	-0.0038	0.0015	-0.0015	-81.2
0.0015	-0.003	0.0015	-0.0015	-81.2
0.0022	-0.0015	0.003	-0.0023	-81.2
0.0015	-0.0008	0.0015	-0.0023	-81.2
0.0007	-0.0008	0.0022	-0.0015	-81.2
0.0015	0	0.0015	-0.0023	-81.2
0	-0.0015	0.0015	-0.0015	-81.2
-0.0008	-0.0015	0.0007	-0.0015	-81.2
0	-0.0008	0.0007	-0.0023	-81.2
-0.0008	-0.0023	0.0022	-0.0023	-81.2
0	-0.0023	0.0015	-0.0023	-81.2
-0.0008	-0.0038	0.003	-0.0008	-81.2
0	-0.0015	0.0022	-0.0015	-81.2
0	0.0007	0.0015	-0.0008	-81.2
-0.0015	-0.0015	0.0015	-0.0008	-81.2
-0.0008	-0.003	-0.0008	-0.0008	-81.2
0	-0.0008	0.0015	-0.0008	-81.2
0.0007	-0.0008	0.0015	-0.0015	-81.2
0.0015	0.0007	0.0037	-0.0015	-81.2
0.0007	0	0.0037	-0.003	-81.2
0	0.0007	0.0015	-0.0023	-81.2
0	-0.0008	0.0015	-0.0015	-81.2
-0.0015	-0.0015	0.0007	-0.003	-81.2
-0.0015	0.0007	0.0007	-0.003	-81.2
-0.0008	0.0015	0.0015	-0.0015	-81.2
0	0.0007	0.0015	-0.0015	-81.2
0.0007	0	0.0007	-0.0023	-81.2
0.0007	-0.0008	-0.0008	-0.0015	-81.2
0.0007	-0.0008	-0.0008	0	-81.2
-0.0008	-0.0015	-0.0015	-0.0008	-81.2
0.0007	-0.0015	-0.0008	-0.003	-81.2
0.0007	-0.0015	0.0007	-0.0038	-81.2
0	-0.0008	0.0007	-0.003	-81.2
0.0007	-0.0015	0.0007	-0.0015	-81.2
0	-0.003	0.0015	-0.0023	-81.2
0.0007	-0.0015	0.0007	-0.0023	-81.2
-0.0008	-0.0008	0	-0.0015	-81.2
-0.0015	-0.0015	0	-0.0015	-81.2
-0.0015	0	0.0007	-0.0008	-81.2
-0.0008	0	0	-0.0015	-81.2
-0.0015	-0.0015	0.0015	-0.0008	-81.2
-0.0008	0	0.0045	0.0015	-81.2
0	0.0015	0.0037	0	-81.2
0.0007	-0.0008	0.003	-0.0008	-81.2
0	-0.0008	0.0045	0	-81.2
0.0007	-0.0008	0.0052	0.0007	-81.2
0.0015	0.0007	0.0045	-0.0008	-81.2
0.0007	0	0.003	-0.0023	-81.2
0.0015	-0.0008	0.003	-0.0008	-81.2
0.0015	0.0007	0.0045	-0.0008	-81.2
0.0007	0.0007	0.003	0.0007	-81.2
0.0007	0	0.0007	-0.0008	-81.2
0.0007	-0.0008	0	-0.0008	-81.2
0	0	0.0015	-0.0008	-81.2
-0.0008	-0.0015	-0.0008	-0.0015	-81.2
-0.0008	0	0	-0.0008	-81.2
-0.0015	-0.0008	0.0022	-0.0008	-81.2
-0.003	-0.0023	-0.0008	-0.0008	-81.2
-0.003	-0.0008	-0.0008	-0.0015	-81.2
-0.003	-0.0008	-0.0008	-0.0023	-81.2
-0.003	0.0007	-0.0008	-0.0015	-81.2
-0.0008	-0.0008	-0.0015	-0.0015	-81.2
-0.0008	-0.0008	-0.0008	-0.0015	-81.2
-0.0015	0.0007	0.0007	-0.0038	-81.2
-0.0015	0	-0.0008	-0.003	-81.2
-0.0023	0.0015	0.0007	-0.003	-81.2
-0.0015	0.0007	0	-0.0015	-81.2
-0.0008	-0.0015	0.0007	0.0007	-81.2
-0.0015	-0.0008	0.003	-0.0008	-81.2
-0.0008	-0.0023	0.0015	0	-81.2
0.0007	-0.0015	0.0022	0.0007	-81.2
0.0007	-0.0015	0	-0.0015	-81.2
0.0007	-0.0023	0.0015	-0.0015	-81.2
0.0007	-0.0015	0.0022	-0.003	-81.2
0.0007	-0.0023	0	-0.0015	-81.2
0.003	-0.003	0.0007	-0.0008	-81.2
0.0015	-0.003	0.0007	-0.0015	-81.2
0.0007	-0.0038	0.0007	-0.0008	-81.2
0	-0.0038	-0.0008	-0.0008	-81.2
-0.0008	-0.0046	-0.0015	-0.0008	-81.2
-0.0008	-0.0023	0	-0.0008	-81.2
-0.003	-0.0008	0.0007	-0.0008	-81.2
-0.003	-0.0008	0.0007	0	-81.2
-0.0023	-0.0008	0.0015	-0.0008	-81.2
-0.0008	-0.0008	0.0015	-0.0015	-81.2
0.0007	-0.0008	0.0015	-0.0023	-81.2
0.0007	-0.0008	0.0015	-0.0015	-81.2
0.0022	-0.0015	0.0022	-0.0023	-81.2
0.0015	-0.0015	0.0037	-0.0015	-81.2
-0.0008	0	0.0007	-0.0015	-81.2
0	-0.0008	0.0015	-0.0015	-81.2
0	-0.0015	0.0022	-0.0023	-81.2
0.0007	0.0007	0.003	0.0007	-81.2
0	0.0022	0.0037	0.0007	-81.2
0.0007	0.0007	0.0007	-0.0008	-81.2
0.0015	-0.0008	0.0007	-0.0008	-81.2
0.0015	-0.0008	0	-0.0023	-81.2
0.0007	-0.0008	0.0007	-0.003	-81.2
0.0015	-0.0023	0	-0.003	-81.2
0.0015	-0.0023	0	-0.0015	-81.2
0.0007	-0.0015	0.003	-0.0015	-81.2
0	-0.0023	0.003	0	-81.2
0	-0.003	0.003	-0.0008	-81.2
-0.0008	-0.0015	0.0022	-0.0015	-81.2
-0.0015	-0.0015	0.003	-0.0015	-81.2
-0.0023	-0.0015	0.0007	-0.0015	-81.2
-0.0015	-0.0015	-0.0015	-0.0015	-81.2
0	0.0015	-0.0038	-0.003	-81.2
0	0.0007	-0.0038	-0.0015	-81.2
-0.0008	0	-0.0008	-0.0008	-81.2
-0.0008	0.0007	-0.0015	-0.0015	-81.2
-0.0008	0.0015	-0.0008	-0.003	-81.2
-0.0008	0.0015	0.0007	-0.0023	-81.2
0.0007	0	-0.0008	-0.0008	-81.2
0.0007	0.0015	0.0007	-0.0008	-81.2
0.0015	0.003	0.0015	-0.0015	-81.2
0.003	0.0022	0.0037	-0.0015	-81.2
0.0022	0.0007	0.0045	0	-81.2
0.0022	0.0015	0.0052	-0.0008	-81.2
0.0007	0.0007	0.0022	-0.0008	-81.2
0.0007	0.0007	0.0007	0	-81.2
0.0007	0.0007	0.0015	-0.0008	-81.2
0	0	0.0022	-0.0008	-81.2
-0.0008	0.0015	0.003	-0.0008	-81.2
-0.0008	0.0015	0.0015	-0.0015	-81.2
0.0007	0.0007	0.0007	-0.0023	-81.2
-0.0015	0.0007	0.0015	-0.003	-81.2
0	0	0	-0.003	-81.2
-0.0015	-0.0008	-0.0008	-0.0015	-81.2
-0.0008	-0.0008	0.0015	-0.0015	-81.2
-0.0008	-0.0008	0.0007	-0.0023	-81.2
-0.003	-0.0015	0.0007	-0.0015	-81.2
-0.0008	-0.0015	0.0007	-0.0008	-81.2
-0.0008	-0.0023	0.0007	-0.0015	-81.2
0	-0.003	0.0007	-0.003	-81.2
-0.0008	-0.0023	0.0045	-0.0015	-81.2
-0.0008	-0.0015	0.0045	-0.0008	-81.2
0.0007	-0.0008	0.0037	-0.0015	-81.2
0	-0.0008	0.003	-0.0023	-81.2
0.0007	-0.0008	0.003	-0.0023	-81.2
-0.0008	-0.0008	0.0015	-0.0015	-81.2
-0.0023	0	0.0007	-0.0015	-81.2
-0.0023	0	0.0007	-0.0015	-81.2
-0.0015	0.0007	-0.0015	-0.0023	-81.2
-0.0015	0	-0.0008	-0.0015	-81.2
-0.0008	-0.0015	0	-0.0008	-81.2
-0.0008	-0.0008	0.003	-0.0008	-81.2
-0.0008	-0.0008	0.0037	0.0007	-81.2
-0.0008	0	0.0015	0.0007	-81.2
-0.0008	-0.0015	0.0007	-0.0008	-81.2
-0.0008	-0.0023	0.0007	0	-81.2
0.0007	-0.0015	0.0015	-0.0008	-81.2
0	-0.0015	0.0022	-0.0008	-81.2
-0.0008	0.0015	0.003	-0.0008	-81.2
0.0007	0.0007	0.0022	0	-81.2
0.0015	-0.0015	0.0007	-0.0015	-81.2
0.0015	-0.0008	0.0007	-0.0015	-81.2
0.0037	-0.0015	0.0015	-0.0015	-81.2
0.0022	-0.0015	0.0007	-0.0015	-81.2
0.0015	-0.0008	-0.0015	-0.0015	-81.2
0.0007	-0.0015	-0.003	-0.0015	-81.2
0.0015	-0.0046	-0.0015	-0.0015	-81.2
0.0007	-0.0038	-0.0008	-0.0015	-81.2
-0.0008	-0.0015	0.0015	-0.0008	-81.2
-0.0015	-0.0008	0.003	-0.0015	-81.2
-0.0015	-0.0023	0.0015	-0.0015	-81.2
0	-0.003	0.003	-0.0015	-81.2
-0.0008	-0.0023	0.0015	0	-81.2
-0.0008	-0.0015	0.0007	0	-81.2
-0.0008	-0.0015	0.0007	-0.0008	-81.2
-0.0015	-0.0023	-0.0008	-0.0008	-81.2
-0.0015	-0.0015	-0.0015	-0.0008	-81.2
-0.003	-0.0015	-0.0008	0.0007	-81.2
-0.0008	-0.0015	0	-0.0015	-81.2
-0.0008	0	0	-0.0015	-81.2
-0.0008	0	0.0015	0.0007	-81.2
-0.0008	0.0007	0.003	0.0007	-81.2
-0.0015	0.0007	0.003	0.0007	-81.2
0.0007	0	0.0015	-0.0008	-81.2
0	0	0.0007	-0.0015	-81.2
-0.0008	0.0007	0.0007	-0.003	-81.2
-0.0008	-0.0015	0.0015	-0.0008	-81.2
0	-0.0008	0.0015	-0.003	-81.2
0.0007	-0.0015	0.0037	-0.0015	-81.2
0	-0.0015	0.0045	0	-81.2
-0.0008	-0.0008	0.0015	-0.0008	-81.2
0	-0.0023	0.0007	-0.0015	-81.2
-0.0008	0	0.0007	-0.003	-81.2
0.0015	-0.0008	0.0022	-0.0015	-81.2
-0.0008	-0.0008	0.0007	-0.003	-81.2
0	0.0007	-0.0008	-0.0015	-81.2
0.0007	0	-0.0023	-0.0023	-81.2
-0.0008	-0.0008	-0.0015	-0.0015	-81.2
-0.0008	-0.0008	-0.0008	-0.0015	-81.2
-0.0008	-0.0008	0.0007	-0.0015	-81.2
0	0	0.0007	-0.0015	-81.2
-0.0008	-0.0008	-0.0015	-0.003	-81.2
-0.0008	-0.0023	0	-0.0015	-81.2
0.0015	-0.0015	-0.0008	-0.0023	-81.2
0.0015	-0.0015	0.0015	-0.0023	-81.2
0.0007	-0.0015	0.0045	-0.0008	-81.2
0.0007	-0.0008	0.003	-0.0015	-81.2
0	-0.0015	0.0007	-0.0023	-81.2
0.0007	-0.0015	0	-0.0015	-81.2
-0.0008	-0.003	0.0007	-0.003	-81.2
0.0015	-0.0015	0.003	-0.0015	-81.2
0.0022	-0.0008	0.003	-0.0008	-81.2
0.0015	-0.0008	0.003	-0.003	-81.2
0	-0.0008	0.0022	-0.0038	-81.2
-0.003	-0.0023	0	-0.003	-81.2
0	-0.0008	0.0007	-0.0008	-81.2
0.0007	-0.0008	0.0007	-0.0008	-81.2
-0.0008	-0.0015	0.0037	0.0007	-81.2
0.0007	0	0.0037	0.0007	-81.2
0.0007	0.0015	0.0022	-0.0015	-81.2
0.0007	0.0007	0.003	-0.0015	-81.2
0	-0.0023	0.0015	-0.0008	-81.2
0.0007	-0.0008	0.003	-0.0008	-81.2
0.0015	0.0007	0.0022	-0.0008	-81.2
-0.0008	0	0.0015	-0.0008	-81.2
-0.0008	0.0007	0.0015	0	-81.2
0	0	0.003	-0.0008	-81.2
-0.0008	0.0007	0.003	0.0015	-81.2
-0.0008	-0.0008	0.003	0.0015	-81.2
-0.0008	-0.0015	0.0015	-0.0015	-81.2
0.0007	0.0007	0.0007	-0.0015	-81.2
0.0015	0.0015	0	-0.0023	-81.2
-0.0015	0.0007	-0.0015	-0.0015	-81.2
-0.003	0	-0.0008	-0.0015	-81.2
-0.0015	0	0	-0.0023	-81.2
-0.0008	-0.0015	0	-0.0023	-81.2
-0.0008	-0.0008	0	-0.003	-81.2
-0.0008	-0.0015	0.0015	-0.0023	-81.2
0.0007	-0.0015	0.0022	-0.0023	-81.2
0.0015	-0.0015	0.0007	-0.0015	-81.2
0	-0.0015	0.0007	-0.0015	-81.2
-0.0008	-0.0015	-0.0008	-0.0023	-81.2
-0.0008	-0.0015	-0.0015	-0.0008	-81.2
0.0007	0.0007	-0.0015	-0.0015	-81.2
0	0.0007	0.0007	-0.003	-81.2
-0.0015	0.0007	0.0015	-0.0015	-81.2
-0.003	0	0.0007	-0.0008	-81.2
-0.0015	0.0015	0.0015	0	-81.2
-0.0008	0.0015	0.0007	-0.0015	-81.2
-0.0015	0.0007	0.0015	-0.003	-81.2
-0.003	-0.0008	0.0015	-0.0023	-81.2
-0.0015	-0.0015	0.0007	-0.003	-81.2
-0.0015	-0.0008	0.0007	-0.0015	-81.2
-0.0023	-0.0015	-0.0008	0.0007	-81.2
-0.0015	0	0.0007	-0.0008	-81.2
-0.0015	-0.0015	0.0015	-0.003	-81.2
0.0007	-0.0015	0.0007	-0.0015	-81.2
0.0007	-0.0015	0.0015	-0.0008	-81.2
0	-0.0023	0.003	-0.003	-81.2
0	-0.0023	0.0022	-0.0023	-81.2
-0.0015	-0.0008	0.003	-0.003	-81.2
-0.0008	-0.0023	0.0007	-0.003	-81.2
-0.0008	-0.0023	0.0015	-0.0008	-81.2
0	0.0007	0.003	-0.0008	-81.2
0.0007	0.0007	0.003	-0.0008	-81.2
0.0007	0.0007	0.0045	-0.0008	-81.2
0.0015	0.0007	0.0045	0.0007	-81.2
0	0.0015	0.0015	0.0007	-81.2
0.0007	0	-0.0015	0.0007	-81.2
-0.0008	-0.0008	0.0007	-0.0008	-81.2
-0.0015	0	-0.0008	-0.0008	-81.2
-0.0015	-0.0008	-0.0008	-0.0008	-81.2
-0.0015	-0.0015	0.003	-0.0008	-81.2
0	-0.003	0.0015	0	-81.2
0.0015	-0.0015	0.003	0.0007	-81.2
0.0007	-0.003	0.003	0	-81.2
-0.0008	-0.0015	0.0015	-0.0015	-81.2
-0.0015	-0.0046	0	-0.0015	-81.2
-0.0008	-0.003	0.0007	-0.0015	-81.2
0.0007	-0.0015	0.0022	-0.0015	-81.2
0.0007	-0.0015	0	0	-81.2
0.0015	-0.0008	-0.0008	0	-81.2
0	-0.0008	-0.0008	-0.0008	-81.2
0.0007	-0.0015	-0.0008	0	-81.2
-0.0008	-0.0008	0.0007	0	-81.2
-0.0008	0.0007	0.0007	-0.0008	-81.2
0.0007	-0.0008	0	-0.0008	-81.2
-0.0008	0.0007	0.0007	0	-81.2
-0.0008	0	0.003	-0.0015	-81.2
-0.0008	-0.0008	0.0015	-0.0015	-81.2
-0.0008	0.0007	0.0007	-0.0046	-81.2
-0.0008	-0.0015	0.0007	-0.0053	-81.2
-0.0008	0.0007	0.0037	-0.003	-81.2
0	-0.0008	0.003	-0.0038	-81.2
-0.0008	0.0007	0.003	-0.003	-81.2
-0.0008	0.0015	0.003	-0.0015	-81.2
0.0007	0.0007	0.0015	-0.0008	-81.2
0.0015	0.0007	0.0015	-0.0015	-81.2
0.0007	-0.0015	0	-0.003	-81.2
0.0015	-0.0008	0.003	-0.0023	-81.2
0.0007	-0.0008	0.003	-0.0008	-81.2
0.0007	-0.003	0.0037	-0.0008	-81.1
0.0007	-0.003	0.003	-0.0015	-81.1
0.0007	-0.003	0.0015	-0.0008	-81.1
0	-0.0008	0.0022	-0.0008	-81.1
-0.0008	-0.0015	0.0015	0	-81.1
-0.0015	-0.0023	0.0022	0	-81.1
-0.0015	-0.003	0.0022	-0.0015	-81.1
0.0015	-0.003	0.0007	-0.0015	-81.1
0.0007	-0.0015	-0.0008	-0.0008	-81.1
0.0022	-0.0015	-0.0015	-0.0015	-81.1
0.0015	-0.0008	-0.003	-0.0015	-81.1
0.0007	0	-0.0015	-0.0023	-81.1
0.0015	0	0.0007	-0.003	-81.1
0.0015	0.0007	0	-0.0008	-81.1
0.0007	0.0007	-0.0008	-0.0008	-81.1
-0.0015	-0.0008	-0.0023	-0.0008	-81.1
-0.0008	-0.0008	-0.0008	-0.0008	-81.1
0	-0.0015	0.0007	0	-81.1
-0.0008	-0.0015	0	0.0015	-81.1
-0.0008	0	0	0	-81.1
-0.0008	0.0007	0.0007	-0.0008	-81.1
0	-0.0008	0.0015	-0.0008	-81.1
-0.0008	-0.003	0.0015	-0.003	-81.1
0	-0.0008	0.0022	-0.0023	-81.1
0	-0.0008	0.0015	-0.003	-81.1
-0.0008	0.0007	0.0015	-0.003	-81.1
-0.0008	0	0.003	-0.0023	-81.1
-0.0008	-0.003	0.0015	-0.0015	-81.1
-0.0015	-0.0008	-0.0008	0	-81.1
-0.0008	-0.0015	0.0007	-0.0023	-81.1
0.0007	-0.0023	0.0015	-0.0023	-81.2
-0.0008	0	0.003	-0.0015	-81.2
-0.0008	0	0.0015	-0.0015	-81.2
0	-0.0015	0.0007	-0.0008	-81.2
0.0015	-0.0015	0	-0.0015	-81.2
0.0007	-0.0008	-0.0008	-0.0008	-81.2
0.0015	-0.0008	0.0015	-0.0008	-81.2
0.0007	-0.0015	0.0022	-0.0023	-81.2
0	-0.0015	0.003	-0.0015	-81.2
-0.0008	-0.0008	0.0022	-0.0015	-81.2
-0.0015	-0.0015	0.0022	-0.003	-81.2
-0.0015	-0.0008	0.0045	-0.0008	-81.2
-0.0015	-0.0008	0.0015	-0.0008	-81.2
-0.0008	-0.0008	-0.0015	-0.0008	-81.2
-0.003	-0.0008	0.0007	-0.0008	-81.2
-0.003	-0.0008	0.003	0	-81.2
-0.0008	0.0015	0.0015	0.0015	-81.2
-0.0008	0.0007	0.0015	0	-81.2
0.0007	0.0007	0.0007	0	-81.2
-0.0015	0.0007	-0.0015	0.0007	-81.2
0.0007	-0.0008	-0.0008	0.0007	-81.2
0.0007	0	0.0015	0.0015	-81.2
-0.003	-0.0015	0.0022	0	-81.2
-0.0015	-0.0023	0.0015	-0.0023	-81.2
0.0015	-0.0015	0.0022	-0.0008	-81.2
0.0007	-0.0015	0.0045	0	-81.2
-0.0008	-0.0015	0.006	-0.0015	-81.2
0	-0.0023	0.0052	-0.0008	-81.2
0	-0.0008	0.0045	-0.0015	-81.2
-0.0008	0.0007	0.0015	-0.0015	-81.2
-0.0008	0.0007	0.0007	-0.0015	-81.1
0.0015	0.0007	0.0007	-0.0015	-81.1
-0.0008	0.0007	-0.0008	-0.0015	-81.1
-0.0008	0	0	-0.0015	-81.1
0	0	0.0015	-0.003	-81.1
-0.0008	0	0.0007	-0.0015	-81.1
0	0.0007	0.0007	-0.0008	-81.1
0.0007	0.0015	0	-0.0015	-81.1
0.0007	-0.0008	0.0015	-0.0008	-81.1
0.0007	0.0007	0.0067	-0.0008	-81.1
0.0015	0.0015	0.0052	-0.0015	-81.1
0.0007	0.0007	0.0045	-0.0008	-81.1
-0.0008	0.0007	0.0015	-0.003	-81.1
0	0	-0.0008	-0.003	-81.1
-0.0008	-0.0008	-0.0008	-0.003	-81.1
-0.003	-0.0015	-0.0015	-0.003	-81.1
-0.0015	-0.0023	-0.0008	-0.003	-81.1
-0.0008	-0.003	-0.0008	-0.0038	-81.1
-0.0015	-0.003	-0.0015	-0.0023	-81.1
-0.0008	-0.0038	-0.0023	-0.0015	-81.1
-0.0015	-0.003	-0.0008	-0.0015	-81.1
0	-0.0008	0.0007	-0.0015	-81.1
0.003	-0.0015	-0.0015	-0.003	-81.1
0.0015	-0.0015	-0.0008	-0.0023	-81.1
0.0022	-0.0023	0.0015	-0.0023	-81.1
0.0022	-0.0008	0	-0.0015	-81.1
0.0007	-0.0015	-0.0008	0.0007	-81.1
0.0022	-0.0008	0.0007	0	-81.1
0.0015	0	0.0015	-0.0008	-81.1
0.0007	-0.0008	0.0022	0	-81.1
0.0007	-0.0008	0.0015	0.0007	-81.1
-0.0008	0.0007	0.0022	0.0007	-81.1
0.0007	0.0007	0.003	0	-81.1
0.0037	0.0015	0.0022	-0.0008	-81.1
0.0022	0.0022	0.003	-0.0008	-81.1
0.0007	0.0007	0.0015	-0.0008	-81.1
-0.0008	0	0.0015	-0.0015	-81.1
-0.0008	-0.0008	0.0007	-0.003	-81.1
-0.0008	-0.0008	0.0007	-0.003	-81.1
-0.0023	0	0.0007	-0.003	-81.1
-0.0008	-0.0008	0.0022	-0.0015	-81.1
0	-0.0015	0.003	-0.0015	-81.1
-0.0023	-0.0008	0.0015	-0.003	-81.1
0	-0.0008	0.003	-0.0023	-81.1
0.0015	-0.0008	0.0007	-0.0015	-81.1
-0.0008	-0.003	-0.0023	-0.0015	-81.1
-0.0008	-0.0023	0	-0.0015	-81.1
-0.0015	-0.0023	-0.0008	-0.0023	-81.1
-0.0008	-0.003	0.0007	-0.0015	-81.1
-0.0008	-0.003	0.0015	0	-81.1
-0.0008	-0.0015	0.0007	-0.0015	-81.2
0.0007	-0.0015	0.0015	-0.0015	-81.2
-0.0008	-0.0008	0.003	-0.0008	-81.2
-0.0008	0	0.003	-0.0015	-81.2
-0.0008	-0.0008	0.0022	-0.0008	-81.2
-0.0008	-0.0015	0.003	0.0007	-81.2
0.0007	-0.0015	0.0022	0.0007	-81.2
-0.0008	-0.0008	0.0015	0.0007	-81.2
-0.0015	-0.0008	0	0.0007	-81.2
-0.0008	-0.0015	0.0015	-0.0008	-81.2
-0.0015	-0.0008	0.0007	-0.0023	-81.1
-0.0008	-0.0015	-0.0008	-0.0023	-81.1
-0.0008	-0.0015	-0.0008	-0.0015	-81.1
-0.0008	0.0007	-0.0008	-0.0008	-81.1
-0.0015	0.0007	0.0015	-0.0015	-81.1
-0.0008	0.0007	0.0007	-0.0008	-81.1
0	0.0007	0.003	-0.0023	-81.1
-0.0008	-0.0015	0.0007	-0.0023	-81.1
-0.0008	-0.0008	-0.0015	-0.0015	-81.1
0.0007	0	0.0007	-0.0008	-81.1
-0.0008	-0.0008	0.0007	0.0007	-81.1
-0.0008	0.0015	0.003	0.0007	-81.1
-0.0008	0	0.0022	0.0007	-81.1
-0.0008	-0.0015	0.0015	-0.0015	-81.1
-0.0008	-0.0015	0.0015	-0.0038	-81.1
-0.0015	-0.0015	0	-0.0023	-81.1
-0.0015	-0.003	0	-0.0023	-81.1
0	-0.003	0.0015	-0.0015	-81.1
0.0015	0.0007	0.0015	-0.0015	-81.1
0.0007	0	0.0015	-0.0023	-81.1
-0.0008	-0.0023	0.003	-0.003	-81.1
0	-0.0015	0.0022	-0.0015	-81.1
0.0015	-0.0023	0.0037	-0.0008	-81.1
0.0015	-0.0023	0.0022	-0.0008	-81.1
0.0015	-0.003	0.0007	-0.0008	-81.1
-0.0008	-0.0023	0	-0.0008	-81.1
-0.0008	-0.0008	0.0007	0	-81.1
0.0007	-0.0008	0.0015	-0.0008	-81.1
0	-0.0008	0.0022	-0.0015	-81.1
0.0015	-0.0008	0.0037	-0.0008	-81.1
0.0007	-0.0008	0.0045	0.0007	-81.1
0.0007	0	0.0045	0	-81.1
0.0007	0.0007	0.0037	-0.0008	-81.1
0	0	0.0015	-0.0008	-81.1
0.0007	0	0.0007	-0.0015	-81.1
0.0022	0.0007	0.0015	-0.0015	-81.1
0.0007	0	0.0015	-0.0015	-81.1
0.0007	0.0015	0	-0.0015	-81.1
0.0007	0.0007	-0.0008	-0.0015	-81.1
-0.0015	0	-0.0008	-0.0015	-81.1
0.0007	-0.0015	0.0015	-0.0008	-81.1
0.0007	-0.0008	0.0022	-0.0008	-81.1
0.0007	0.0007	0.0022	-0.0008	-81.1
0.0015	-0.0008	0.0022	-0.0015	-81.1
-0.0015	-0.0008	0.0007	-0.003	-81.1
-0.0008	-0.0008	0.0015	-0.0015	-81.1
-0.0015	-0.0008	-0.0008	-0.0008	-81.1
-0.0008	-0.0008	0.0007	-0.0015	-81.1
-0.0008	-0.0008	0.0015	-0.0015	-81.1
-0.0015	0.0007	0.0007	-0.0015	-81.1
0.0007	0	0	-0.0023	-81.1
-0.0008	-0.0008	-0.003	-0.003	-81.1
-0.0015	0.0007	-0.0008	-0.0046	-81.1
-0.0015	0.0007	0.0007	-0.003	-81.1
-0.0015	0.0007	0	-0.003	-81.1
-0.0008	-0.0008	0.0015	-0.0015	-81.1
0	-0.0015	0.0007	-0.0008	-81.1
-0.0008	-0.0008	0.0022	-0.0008	-81.1
-0.0008	0	0.0022	0	-81.1
-0.0008	0.0007	0.0007	-0.0008	-81.1
-0.0008	-0.0008	0.0007	-0.0008	-81.1
0.0007	-0.0008	-0.0008	-0.0015	-81.1
0.0007	-0.0015	-0.0008	-0.0008	-81.1
0.0007	-0.0008	-0.0008	-0.0015	-81.1
-0.0008	0.0007	-0.0008	-0.0008	-81.1
-0.0015	-0.0015	0.0015	-0.0008	-81.1
0	-0.0008	0.003	-0.0015	-81.1
0.0015	0.0007	0.0045	-0.0008	-81.1
0.0015	-0.0015	0.0052	-0.0015	-81.1
0.0007	0	0.0052	0	-81.1
0.0007	-0.0008	0.003	-0.0015	-81.1
0.0007	-0.0008	0.0015	-0.0015	-81.1
0.0007	-0.0015	0.0007	-0.0008	-81.1
0.0007	-0.0023	0.0007	-0.0015	-81.1
0	-0.0008	0.0007	-0.0008	-81.1
-0.0015	-0.003	0.0022	-0.0015	-81.1
-0.0015	-0.003	0.0015	-0.0008	-81.1
0	-0.0038	0.0015	-0.0008	-81.1
0.0007	-0.003	0.0022	-0.0015	-81.1
0.0015	-0.0008	0.0015	-0.0023	-81.1
0.0015	0.0007	0.0015	-0.0015	-81.1
0.0007	0.0007	0.0007	-0.0008	-81.1
0.0015	0.0015	0.0015	-0.0015	-81.1
0.0007	0.0007	0.0007	-0.0015	-81.1
-0.0008	-0.0008	0.0007	-0.0008	-81.1
-0.0008	-0.0008	0.003	-0.0008	-81.1
-0.003	-0.0015	0.003	-0.0015	-81.1
-0.003	-0.0015	0.003	-0.0008	-81.1
-0.0038	0.0007	0.0037	-0.0008	-81.1
-0.0023	0.0015	0.0015	-0.0015	-81.1
-0.0015	-0.0015	0.0015	-0.0023	-81.1
-0.0008	-0.0015	0.0007	-0.0023	-81.1
-0.0008	-0.0008	0	-0.0015	-81.1
-0.0008	-0.0015	0	-0.0015	-81.1
0.0022	-0.0015	0	-0.0015	-81.1
0.0022	-0.003	-0.0008	0.0007	-81.1
0.0007	-0.0023	-0.0023	-0.0008	-81.1
0.0007	-0.0015	-0.0015	0.0007	-81.1
0.0022	-0.0008	0.0007	-0.0008	-81.1
0.003	-0.0008	0.0022	-0.0015	-81.1
0	0	0.0015	-0.0008	-81.1
0	-0.0015	0.0022	-0.0008	-81.1
-0.0008	-0.0015	0.003	0.0015	-81.1
-0.0008	0.0007	0.0015	0	-81.1
-0.0008	-0.0008	0.0007	-0.0015	-81.1
-0.0015	-0.0015	-0.0008	-0.0015	-81.1
0	-0.0015	-0.0008	-0.0023	-81.1
0.0007	-0.0015	-0.0015	-0.0008	-81.1
0.0007	-0.003	-0.0015	0	-81.1
-0.0008	-0.0008	0.0007	-0.0015	-81.1
0	0.0007	0.0022	-0.0008	-81.1
0.0007	0.0007	0.0015	-0.0008	-81.1
0	-0.0008	0.0037	-0.0015	-81.1
-0.0008	-0.0015	0.0022	-0.0008	-81.1
-0.0015	0.0007	0.0007	-0.0015	-81.1
0	-0.0008	0.0007	-0.0008	-81.1
-0.0015	-0.0008	0	-0.0015	-81.1
-0.0015	-0.0015	0.0007	-0.003	-81.1
-0.0008	-0.0008	0.0007	-0.0015	-81.1
-0.0008	0.0007	0.0015	-0.0023	-81.1
0.0007	0	0.0022	-0.0015	-81.1
-0.0015	0.0007	0.0015	-0.0015	-81.1
-0.0015	0.0007	0.0022	0	-81.1
-0.0008	0.003	0.003	-0.0008	-81.1
-0.0008	0.003	0.003	-0.0015	-81.1
0.0007	0.0007	0.0022	-0.0015	-81.1
-0.0008	0.0007	0.0015	-0.0015	-81.1
-0.0015	-0.0015	0.0007	-0.0015	-81.1
-0.0008	-0.0008	0.0007	-0.0008	-81.1
-0.0015	-0.0008	0.0007	-0.0008	-81.1
0.0007	-0.0015	0.0015	-0.0008	-81.1
0.0022	-0.0008	0.0007	0.0007	-81.1
-0.0008	-0.0015	0.0007	0.0007	-81.1
-0.0015	-0.0008	0.0037	-0.0015	-81.1
-0.0008	0	0.003	-0.0015	-81.1
-0.0008	0	0.003	-0.0015	-81.1
-0.0008	-0.0008	0.0007	-0.003	-81.1
0.0007	-0.0008	0.0007	-0.0015	-81.1
0.0007	-0.0008	0.0007	-0.0015	-81.1
0.0007	-0.0023	-0.0015	-0.0015	-81.1
0.0007	-0.0015	0.0007	-0.0015	-81.1
0.0007	-0.0015	-0.0008	-0.0008	-81.1
0	-0.0015	-0.0023	-0.0015	-81.1
-0.0008	-0.0015	-0.003	-0.003	-81.1
-0.0015	-0.0038	-0.003	-0.0015	-81.1
-0.0015	-0.0038	-0.0023	-0.0015	-81.1
-0.0015	-0.003	-0.0008	0	-81.1
-0.0015	-0.0015	-0.0008	-0.0008	-81.1
-0.0015	-0.0023	0.0007	-0.003	-81.1
-0.0015	-0.0023	0.0015	-0.003	-81.1
-0.0015	-0.0015	0.0007	-0.003	-81.1
-0.0008	-0.003	0.0015	-0.0015	-81.1
0	-0.0015	0.003	-0.0015	-81.1
0.0007	-0.0008	0.0045	-0.0008	-81.1
0.0015	-0.0008	0.0052	-0.0008	-81.1
0.0015	-0.0008	0.006	-0.0008	-81.1
0.0015	-0.0008	0.0045	0	-81.1
-0.0008	0.0007	0.0015	0	-81.1
0.0007	-0.0008	0.0015	0.0007	-81.1
0.0022	-0.0008	0.0007	-0.0008	-81.1
0.0007	-0.0008	0.0007	-0.0015	-81.1
0.0007	0	0.003	-0.0008	-81.1
0.0007	-0.0015	0.0015	0.0007	-81.1
-0.0008	-0.0015	0.0007	0.0007	-81.1
-0.0015	-0.0015	-0.0008	-0.0008	-81.1
-0.0008	-0.0015	0.0015	-0.0008	-81.1
0.0007	-0.0015	0.0015	-0.0008	-81.1
-0.0008	-0.003	0.0037	-0.0015	-81.1
-0.0015	-0.0015	0.006	-0.0008	-81.1
-0.0015	-0.0008	0.0082	0	-81.1
0.0007	-0.0008	0.006	-0.0015	-81.1
0.0007	0	0.0022	-0.0015	-81.1
0.0015	-0.0015	0.003	-0.0008	-81.1
0	-0.0008	0.0007	-0.0015	-81.1
-0.0008	-0.0008	0	-0.0008	-81.1
-0.0015	-0.0008	-0.0008	-0.0008	-81.1
-0.0015	-0.0008	-0.0008	-0.0023	-81.1
0.0007	-0.0008	0.0007	-0.0015	-81.1
0	-0.0015	-0.0015	-0.0015	-81.1
0.0007	0.0007	-0.0008	-0.0015	-81.1
0.0015	-0.0008	0	-0.0008	-81.1
0	-0.0023	0.0007	-0.0015	-81.1
-0.0008	-0.0008	0.0007	0	-81.1
-0.0015	0	0.0007	0	-81.1
0.0022	0.0007	0.0022	0	-81.1
0.003	0.0015	0.0015	0.0007	-81.1
0.003	0.0015	0.0015	-0.0015	-81.1
0.003	0.0015	0.0007	-0.0015	-81.1
0	0	0.0007	-0.0015	-81.1
0	0	0.0015	0	-81.1
0.0007	0.0022	0.0007	-0.0008	-81.1
0	0.0007	0.0007	-0.0008	-81.1
-0.0008	-0.0008	0	-0.0008	-81.1
-0.0008	-0.0015	0	-0.0015	-81.1
-0.0008	-0.0015	0	-0.0008	-81.1
-0.0008	-0.0008	0.0015	-0.0015	-81.1
-0.003	-0.0008	0.0007	-0.0015	-81.1
-0.003	-0.0008	-0.0008	-0.003	-81.1
-0.0023	-0.0015	0	-0.0046	-81.1
-0.0023	-0.0015	0.0007	-0.003	-81.1
-0.0015	-0.0015	0.0007	-0.0015	-81.1
0	-0.0015	-0.0008	-0.0015	-81.1
-0.0015	-0.0008	0.0007	-0.003	-81.1
-0.0008	-0.0008	0.0007	-0.0023	-81.1
-0.0008	-0.0008	0.0015	-0.0023	-81.1
-0.0015	-0.0008	0.003	-0.0015	-81.1
-0.0008	0	0.0015	-0.0015	-81.1
0.0015	-0.0008	0.0007	-0.0023	-81.1
0.0015	-0.0008	0.0015	-0.0008	-81.1
0.0007	-0.0015	0.0007	-0.0015	-81.1
0.0015	-0.0023	-0.0008	-0.0008	-81.1
0.0007	-0.0015	0	-0.0015	-81.1
-0.0008	0.0007	0.0007	-0.0015	-81.1
0.0007	0.0007	0.0007	-0.003	-81.1
-0.0008	0.0007	-0.0015	-0.003	-81.1
-0.0008	-0.0008	-0.0015	-0.0015	-81.1
0	-0.0015	-0.0008	-0.0015	-81.1
0	-0.0008	0.0015	-0.003	-81.1
0.0007	-0.0008	0.0007	-0.0023	-81.1
0.0007	-0.0023	0.0007	-0.0008	-81.1
0.0007	-0.0008	0.0022	-0.0008	-81.1
0.0015	0.0007	0.0045	-0.0015	-81.1
0.0015	0.0022	0.0045	-0.0008	-81.1
0.0015	0.0022	0.0045	-0.0008	-81.1
0.0007	0.0015	0.003	-0.0008	-81.1
0	0.0007	-0.0008	-0.0015	-81.1
0.0007	-0.0008	0.0007	-0.0015	-81.1
0	-0.0008	0.0022	-0.0015	-81.1
-0.0008	-0.0015	-0.0008	-0.0008	-81.1
0.0007	-0.0015	-0.0008	-0.0008	-81.1
0	-0.0008	0	-0.0015	-81.1
-0.0008	-0.0008	0	-0.0023	-81.1
-0.003	0	0.0007	-0.0008	-81.1
-0.0015	-0.003	0.0015	-0.0023	-81.1
-0.0008	-0.0046	0.0015	-0.0046	-81.1
0	-0.0015	0.0015	-0.0023	-81.1
0.0015	-0.0015	0.0007	-0.0015	-81.1
0.0007	-0.0015	0.0015	-0.0015	-81.1
0.0015	-0.0008	0.003	-0.0008	-81.1
0.0022	-0.0015	0.0037	0	-81.1
0.0007	-0.0023	0.0045	-0.0008	-81.1
0.0007	-0.0015	0.0015	-0.0015	-81.1
0	-0.0023	0.0015	-0.0015	-81.1
0.0007	-0.0008	0.0022	-0.0015	-81.1
-0.0008	-0.0008	0.0015	-0.0015	-81.1
-0.0008	-0.0015	0.0015	-0.0008	-81
-0.0008	0.0007	0.0007	0	-81
-0.0008	-0.0008	0	-0.0008	-81
-0.0008	-0.0023	0	-0.0015	-81
-0.0008	-0.0015	0	-0.0008	-81
0.0007	-0.0008	0.0007	0	-81
-0.0008	-0.0015	0.0015	-0.0015	-81
0	0	0.0015	-0.003	-81
-0.0008	-0.0008	0.0022	-0.0038	-81
-0.0015	-0.003	0.0015	-0.003	-81
-0.0023	-0.0015	0.0022	-0.0008	-81
-0.0023	-0.0008	0.0015	0	-81
-0.0023	-0.0015	0.0007	0.0007	-81
-0.0023	-0.0015	0.003	0	-81
-0.0008	-0.0008	0.0007	0	-81
-0.0015	-0.0023	0.0022	-0.0015	-81
-0.0008	-0.0015	0.0015	-0.0015	-81
-0.0008	-0.0008	0.0015	-0.0015	-81
0.0007	-0.0008	0.003	-0.0008	-81
0.0015	-0.0008	0.0015	-0.0008	-81
0	-0.0015	0.0015	-0.0008	-81
0.0007	-0.0008	0.0015	-0.0015	-81
0.003	-0.0008	0.0015	-0.0015	-81
0.0022	-0.0015	-0.0008	-0.003	-81
0.0022	0	0	-0.0023	-81
0.0022	-0.0015	0	-0.0008	-81.1
0.0007	-0.0023	-0.0023	-0.0015	-81.1
0.0007	-0.0008	-0.0015	-0.0008	-81.1
-0.0015	0.0007	-0.0008	0.0007	-81.1
0.0007	0	-0.0015	-0.0008	-81.1
0.0022	0.0007	0.0007	-0.0008	-81.1
0.0007	0	0.0007	0	-81.1
0	-0.0008	-0.0008	0.0007	-81.1
-0.0015	-0.0008	0.0015	0.0007	-81.1
-0.0008	-0.0008	-0.0015	-0.0008	-81.1
-0.0008	-0.0015	0.0015	-0.0008	-81.1
0.0007	-0.0008	0.003	-0.0015	-81.1
0.0015	-0.0008	0.0015	-0.0008	-81.1
0.0007	-0.0015	0.0015	-0.0015	-81.1
0.0007	0	-0.0008	-0.0008	-81.1
-0.0015	0	-0.0008	-0.0008	-81.1
-0.0015	0.0007	0	-0.0008	-81.1
0.0007	0	-0.0008	0.0007	-81.1
0.0007	0	0	-0.0015	-81.1
0.0007	0.0007	0.0007	-0.003	-81.1
-0.0015	-0.0015	0.0007	-0.003	-81.1
-0.0023	0	0.0007	-0.0008	-81.1
-0.003	0.0007	0.0015	0	-81.1
-0.0046	-0.0008	0.003	-0.0008	-81.1
-0.003	-0.0015	0.0022	-0.0015	-81.1
-0.003	-0.0015	0.0015	-0.0038	-81.1
-0.003	-0.0008	0.003	-0.003	-81.1
-0.0008	-0.0008	0.0015	-0.0015	-81.1
0	-0.0015	0.0015	-0.0023	-81.1
-0.0008	-0.0015	0.003	-0.003	-81.1
-0.0015	-0.0023	0.0045	-0.003	-81.1
0	-0.0023	0.0045	-0.0015	-81.1
0.0007	-0.0015	0.0045	0.0007	-81.1
0.0007	-0.0015	0.0045	0.0007	-81.1
0.0015	-0.0023	0.0045	-0.0008	-81.1
0	-0.0023	0.0015	-0.0008	-81.1
0.0007	-0.0015	0.0007	0	-81.1
0.0015	-0.0015	0.0015	0.0007	-81.1
0.0007	0	0.0007	0.0007	-81.1
-0.0015	0.0015	0.0007	-0.0015	-81.1
0	0	-0.0008	-0.0023	-81.1
-0.0008	-0.0008	-0.0008	-0.0023	-81.1
-0.0015	-0.0008	0	-0.003	-81.1
-0.0008	0	-0.0008	-0.0023	-81.1
0	-0.0015	0.0007	-0.0015	-81.1
0.0007	-0.0015	0.0007	-0.0023	-81.1
0	0	0.0015	-0.0015	-81.1
0.0015	0	0.0015	-0.0023	-81.1
0.0015	-0.0008	0.0007	-0.0015	-81.1
0.0007	-0.0015	0.0022	0	-81.1
-0.0008	-0.0023	0.0022	-0.0023	-81.1
-0.0008	-0.0015	0.0015	-0.0023	-81.1
0.0007	-0.0008	0.0022	-0.003	-81.1
-0.0008	0	0.0007	-0.0008	-81.1
-0.0008	0.0007	0.0022	-0.0008	-81.1
-0.0008	0.0007	0.0015	-0.0015	-81.1
-0.0008	-0.0008	0.0015	-0.0015	-81.1
0.0007	-0.0015	0.0015	-0.0023	-81.1
-0.0015	-0.0008	0.0015	-0.0015	-81.1
-0.0023	-0.0008	0.003	-0.0008	-81.1
-0.0023	-0.0008	0.003	0.0007	-81.1
-0.0015	0.0007	0.0015	0.0007	-81.1
0.0007	0.0007	0	0.0007	-81.1
0.0007	-0.0008	0.0015	-0.0008	-81.1
0.0007	-0.0023	0.0015	-0.0015	-81.1
0.0007	-0.0008	0.0007	-0.0008	-81.1
0	-0.0008	0.0007	-0.0008	-81.1
0.0015	-0.0023	0.0007	-0.0008	-81.1
0.0015	-0.0015	0	0.0007	-81.1
0.0007	-0.0008	-0.0015	-0.0008	-81.1
0.0007	-0.0008	-0.0008	-0.0023	-81.1
-0.0008	-0.0008	0	-0.003	-81.1
-0.0023	-0.0015	0.0007	-0.0015	-81.1
-0.0015	-0.0015	0.003	0.0007	-81.1
-0.0015	-0.0008	0.003	-0.0015	-81.1
0	0.0007	0.0037	-0.0008	-81.1
-0.0015	0.0007	0.0015	-0.0015	-81.1
-0.0008	-0.0015	0.0007	-0.0015	-81.1
0.0015	-0.0015	0.0015	-0.003	-81.1
0.0007	-0.0023	0.0007	-0.0023	-81.1
0.0022	-0.0008	0.0015	-0.0015	-81.1
0.0007	0	0.0015	-0.0023	-81.1
0	-0.0008	0.0022	-0.0015	-81.1
0	0	0	-0.003	-81.1
0.0007	-0.0008	0	-0.0015	-81.1
0.0015	-0.0008	-0.0015	-0.0015	-81.1
-0.0015	-0.0008	-0.0008	-0.0015	-81.1
-0.0008	-0.0008	0.0007	-0.0023	-81.1
-0.0008	0.0015	0.0015	-0.0023	-81.1
-0.0008	0.0007	0.0007	-0.0015	-81.1
-0.0008	0	0.0007	-0.0038	-81.1
0.0007	-0.0008	0.0007	-0.0038	-81.1
-0.0008	-0.003	-0.0015	-0.0038	-81.1
-0.0008	-0.0023	-0.0015	-0.0015	-81.1
0.0007	-0.0023	-0.0008	0	-81.1
0.0007	-0.0008	0.0007	0	-81.1
0.0007	-0.0015	0.0015	-0.0008	-81.1
0	-0.0015	0.0015	-0.0015	-81.1
0	-0.0015	0.0015	-0.0008	-81.1
-0.0008	-0.003	0.0015	-0.0008	-81.1
-0.0008	-0.0008	0.003	-0.0015	-81.1
0.0022	0	0.0022	0.0007	-81.1
0.0022	0.0007	0.0045	-0.0008	-81.1
-0.0008	0.0007	0.003	-0.0015	-81.1
0	0.0007	0.0007	-0.0023	-81.1
-0.0008	0	0	-0.0015	-81.1
-0.0008	0.0007	-0.0008	-0.0015	-81.1
0.0015	0.0007	0	-0.003	-81.1
0.0007	0.0007	-0.0008	-0.003	-81.1
0.0007	0.0007	0	-0.003	-81.1
0.0007	-0.0008	0.0015	-0.0015	-81.1
-0.0008	0	0.0015	0	-81.1
-0.0015	0.0007	0.0015	-0.0008	-81.1
-0.0015	0.0007	0.003	0.0007	-81.1
-0.0015	0.0007	0.003	-0.0008	-81.1
-0.0015	0	0	-0.0008	-81.1
-0.0015	-0.0008	0.0015	0.0007	-81.1
-0.0008	-0.0008	0.0007	0.0007	-81.1
0	-0.0015	0.0015	-0.0015	-81.1
-0.0015	-0.0023	0.003	-0.0008	-81.1
0.0007	-0.0008	0.0022	0	-81.2
0.0007	0.0007	0.0045	-0.0008	-81.2
-0.0008	0.0007	0.0045	-0.0008	-81.2
0.0007	-0.0008	0.0015	-0.0008	-81.2
-0.0008	-0.0015	0.0007	-0.0008	-81.2
0.0007	-0.0015	0.0015	-0.0023	-81.2
0.0007	-0.0015	0.0015	-0.0023	-81.2
-0.0015	-0.0015	0.0007	-0.0015	-81.2
0	-0.003	0.0007	-0.0008	-81.2
-0.0008	-0.0023	0.0007	-0.0015	-81.2
0.0007	-0.0015	0.0007	-0.0023	-81.1
0	-0.0015	-0.0008	-0.003	-81.1
0.0007	-0.0023	0.0007	-0.0008	-81.1
0.0007	-0.0015	0.0015	0.0015	-81.1
0.0007	-0.0008	0.0015	-0.0008	-81.1
0.0007	-0.0008	0.0007	-0.0008	-81.1
-0.0008	-0.0015	0.0022	-0.0008	-81.1
0	-0.0015	0.003	-0.0015	-81.1
-0.0008	-0.0008	0	0	-81.1
0	-0.0008	0.0015	0.0007	-81.1
-0.0015	-0.0023	-0.0008	-0.0008	-81.1
-0.0008	-0.0015	0	-0.0015	-81.1
-0.0008	-0.0008	0.0007	-0.0008	-81.1
-0.0008	-0.0023	-0.0008	-0.0015	-81.1
-0.0008	0	-0.0015	-0.0015	-81.1
-0.0015	-0.0008	-0.0015	-0.0015	-81.1
-0.0008	0.0007	0.0007	-0.003	-81.1
-0.0008	0.0015	0.0007	-0.0008	-81.1
-0.0008	0	0.0007	-0.0008	-81.1
0.0007	-0.0015	0.0022	-0.0008	-81.1
0.0007	-0.0023	0.0007	0	-81.1
0.0022	0.0007	0.0015	0	-81.1
0.003	0	0.0015	0	-81.1
0.003	0.0007	0.0007	-0.0008	-81.1
0.0015	0.0015	0.0007	0	-81.1
0.0007	0.0007	0.0007	-0.0015	-81.2
0	0	0.003	-0.0023	-81.2
-0.0008	0.0015	0.0045	-0.0023	-81.2
-0.0008	0.0015	0.003	-0.0023	-81.2
0	0.0015	0.003	-0.0008	-81.2
-0.0008	0.0007	0.003	-0.0015	-81.2
0.0007	0.0007	0.003	-0.003	-81.2
-0.0008	-0.0008	0.0015	-0.0023	-81.2
0	-0.0008	0	-0.0015	-81.2
0.0007	-0.0015	0.0007	-0.0015	-81.2
0	-0.0015	0.0015	-0.0023	-81.2
-0.0008	-0.0008	0.0007	-0.0023	-81.2
-0.003	-0.0015	0.0007	-0.0008	-81.2
-0.0015	-0.0008	0.0007	-0.0008	-81.2
-0.0015	-0.0015	0.0015	-0.0015	-81.2
-0.0023	-0.0015	0.0015	-0.0008	-81.2
-0.0015	-0.0008	0.0015	-0.0015	-81.2
-0.0008	-0.003	0.003	-0.0023	-81.2
-0.0015	-0.0023	0.0022	-0.0015	-81.2
-0.0015	-0.0015	0.0015	-0.0015	-81.2
0.0007	-0.0008	0.0007	-0.0015	-81.2
0.0015	-0.0008	-0.0008	-0.003	-81.2
-0.003	-0.0023	0.0007	-0.0015	-81.2
-0.0023	-0.003	0	-0.0015	-81.2
-0.0015	-0.0015	0.0015	-0.003	-81.2
0	0	0.0007	-0.0023	-81.2
0.0015	-0.0015	0.0007	-0.0015	-81.2
0.0007	-0.0008	0.0007	0	-81.2
0.0015	0.0007	0.0015	-0.0008	-81.2
-0.0008	-0.0008	0.0015	-0.0008	-81.2
0	0	0	-0.0015	-81.2
0.0007	0	0.0022	-0.0023	-81.2
0.0007	0.0007	0.0007	-0.0015	-81.2
0.0007	-0.0008	-0.0008	-0.003	-81.2
-0.0008	-0.0015	-0.0008	-0.0008	-81.2
-0.0015	-0.0023	0.0015	-0.0023	-81.2
-0.0008	-0.0023	0.003	-0.0015	-81.2
-0.0008	-0.003	0.0022	-0.0008	-81.2
-0.0015	-0.003	0.0015	0.0007	-81.2
0	-0.0046	0.0007	0	-81.2
-0.0008	-0.003	0.0015	-0.0015	-81.3
-0.0008	-0.0008	0.0015	-0.0015	-81.3
-0.0008	-0.0008	0.003	-0.0015	-81.3
-0.0008	-0.0008	0.0015	0	-81.3
-0.0008	-0.0008	0.0015	-0.0015	-81.3
0.0007	0	0.0022	0.0007	-81.3
0.0015	-0.0015	0.0007	-0.0008	-81.3
0.0015	-0.0015	0.0015	-0.0015	-81.3
0.0015	-0.0008	0.0007	-0.003	-81.3
0.0007	0.0007	0	-0.003	-81.3
0.0007	0.0007	0.0007	0.0007	-81.3
-0.0008	-0.0008	-0.0008	-0.0008	-81.3
0	-0.0015	-0.0008	-0.0015	-81.3
-0.0008	-0.0008	-0.0008	0	-81.3
-0.0008	-0.0008	0	-0.0008	-81.3
0	-0.0015	0	-0.0008	-81.3
0	-0.0015	-0.0008	-0.0008	-81.3
0	-0.0008	0.0015	-0.0015	-81.3
-0.0023	-0.0008	0.0015	-0.0008	-81.3
-0.0015	-0.0008	0.0015	-0.0008	-81.3
-0.0015	-0.0008	0.0015	-0.0015	-81.3
-0.0008	-0.0015	0.003	0.0007	-81.3
0	-0.0015	0.0052	0	-81.3
-0.0008	0	0.0045	0.0007	-81.3
0.0015	0	0	-0.0008	-81.3
0.0015	0.0007	-0.0008	-0.0015	-81.3
-0.0008	0.0015	-0.0015	-0.0008	-81.3
-0.0015	0.0007	-0.0008	-0.003	-81.3
0.0007	0.0007	0.0015	-0.0015	-81.3
0.0015	-0.0008	0.0022	-0.0015	-81.3
0.0015	-0.0008	0.0007	-0.0015	-81.3
0.003	-0.0008	-0.0008	-0.003	-81.3
0.003	0	0.0007	-0.003	-81.3
0.0022	-0.0015	0.0007	-0.0023	-81.3
0.0015	-0.0038	0.0007	-0.0038	-81.3
0.0007	-0.003	0.0015	-0.0046	-81.3
-0.0008	-0.0046	0.0022	-0.0046	-81.3
-0.0008	-0.0023	0.003	-0.0015	-81.3
0.0007	-0.0008	0.0015	-0.0023	-81.3
0	-0.0015	-0.0015	-0.0008	-81.3
0	0.0007	-0.0008	-0.0008	-81.4
-0.0008	-0.0015	0.0015	-0.0008	-81.4
-0.0015	-0.0015	0.0015	0.0015	-81.4
-0.0015	0	0.0015	0.0007	-81.4
-0.0015	-0.0023	0.0015	0.0007	-81.4
-0.0008	-0.0015	0.0007	0.0007	-81.4
-0.0023	0.0015	0.0007	0.0007	-81.4
-0.0008	0.0007	0	-0.0008	-81.4
-0.0008	0	-0.0008	-0.0008	-81.4
-0.0015	0.0015	-0.0008	-0.0008	-81.4
-0.0015	-0.0008	-0.0008	-0.0015	-81.4
0.0007	-0.0008	0.0007	0.0007	-81.4
0.0015	0.0007	-0.0008	0	-81.4
0.0015	0.0007	0.0015	-0.0015	-81.4
0.0007	0.0007	0.0015	-0.0023	-81.4
0.0007	-0.0015	0.0007	-0.0015	-81.4
-0.0015	-0.0015	0.003	-0.0008	-81.4
-0.0023	-0.0015	0.0022	-0.0008	-81.4
-0.0008	0.0007	0.0045	-0.0008	-81.4
0.0015	0	0.003	-0.0008	-81.4
0	-0.0008	0.003	-0.0023	-81.4
0.0007	-0.0015	0.0037	-0.0046	-81.4
0.0022	-0.0008	0.003	-0.0015	-81.4
0.0015	-0.0015	0.003	-0.0023	-81.4
0.0015	-0.0023	0.003	-0.003	-81.4
0.0007	-0.0015	0.0045	-0.0038	-81.5
0	-0.0023	0.0015	-0.0053	-81.5
0	-0.0015	-0.0008	-0.003	-81.5
0.0007	-0.0008	-0.0015	-0.003	-81.5
0.0007	-0.0008	-0.0015	-0.0023	-81.5
0	0	0.0007	-0.0023	-81.5
0	-0.0008	0.003	-0.0023	-81.5
0.0015	-0.0008	0.003	-0.0015	-81.5
0.0015	-0.0008	0.003	-0.003	-81.5
-0.0008	-0.0015	0.0015	-0.0008	-81.5
-0.0015	-0.0015	0.0015	-0.0008	-81.5
-0.003	-0.003	0.0015	-0.0015	-81.5
-0.0046	-0.0015	0.0007	-0.0008	-81.5
-0.003	0.0007	0.0015	-0.0008	-81.5
-0.0023	0	0.0007	-0.0015	-81.5
-0.0008	-0.0008	-0.0008	-0.0015	-81.5
-0.0008	-0.0015	-0.0023	-0.0015	-81.5
-0.0023	-0.003	-0.0023	-0.0008	-81.5
-0.0015	-0.003	0	-0.0008	-81.5
-0.0008	-0.0023	0.0007	-0.0023	-81.5
0.0022	-0.0015	0.0015	-0.003	-81.5
0.0037	-0.0015	0.0015	-0.0015	-81.5
0.003	-0.0015	0.0045	0.0007	-81.5
0.0045	0.0007	0.0052	0	-81.5
0.003	0.0007	0.003	-0.0008	-81.5
0.003	0.0007	0.0007	-0.003	-81.5
0.003	0.0015	0.0007	-0.0023	-81.5
0.0007	-0.0015	0.0022	-0.0008	-81.5
-0.0008	-0.0023	0.003	-0.0008	-81.5
-0.0015	-0.0015	0.003	0.0015	-81.5
-0.003	0	0	0.003	-81.6
-0.0015	0.0007	-0.003	0.0015	-81.6
-0.0023	0.0007	-0.0015	0.0007	-81.6
-0.003	-0.0008	-0.003	0.0007	-81.6
-0.0008	0	-0.0015	-0.0008	-81.6
-0.0015	-0.0008	-0.0023	-0.0015	-81.6
0.0015	-0.0008	-0.003	-0.003	-81.6
0.0007	0	0.0007	-0.0046	-81.6
0.0007	-0.0015	0.0007	-0.0053	-81.6
0.0015	-0.0008	0.0022	-0.0046	-81.6
0.0007	0.0007	0.0007	-0.0023	-81.7
0.0015	0.0015	0.003	0	-81.7
-0.0008	0.0007	0.003	0.0007	-81.7
-0.0008	0	0.0015	0.0007	-81.7
0.0007	0.0007	0.003	0.0007	-81.7
-0.0008	-0.0008	0.003	-0.0008	-81.7
-0.0023	-0.0008	0.0037	-0.0008	-81.7
-0.0015	-0.0023	0.0045	-0.0008	-81.7
-0.0015	-0.0008	0.003	-0.0008	-81.7
-0.0023	-0.0008	0.003	-0.0008	-81.7
-0.0038	-0.0008	0.0007	-0.0015	-81.7
-0.0015	-0.0008	0	-0.0008	-81.7
-0.0008	-0.0023	0.003	-0.0008	-81.7
-0.0023	-0.0023	0.0037	-0.0008	-81.7
-0.0015	-0.0023	0.0045	-0.0015	-81.7
-0.0015	-0.003	0.003	-0.0015	-81.7
-0.0023	-0.0038	0.0007	-0.0015	-81.7
-0.0046	-0.0023	0.0007	-0.0023	-81.7
-0.0046	-0.0015	-0.0008	-0.003	-81.7
-0.0038	-0.0008	0.0007	-0.0015	-81.7
-0.0008	0.0007	0.0015	-0.0008	-81.7
-0.0008	0.0007	0.0015	0	-81.7
-0.0015	0.0015	0.0015	0.0007	-81.7
-0.0015	0.003	0.0015	0.003	-81.7
-0.0008	0.0045	0.003	0.0015	-81.7
0.0015	0.0045	0.0022	0.0007	-81.7
0.0015	0.0045	0.0007	0.0022	-81.7
0.003	0.0037	0.0007	0.0015	-81.7
0.0052	0.0007	0.0007	0.0007	-81.7
0.0067	-0.0008	0.0015	-0.0015	-81.7
0.0052	-0.0046	0.003	-0.003	-81.7
0.0052	-0.006	0.0007	-0.0053	-81.7
0.003	-0.0068	0.0015	-0.0053	-81.7
0.0007	-0.0075	0.0007	-0.0053	-81.7
0.0007	-0.0068	0.0022	-0.0075	-81.7
0.0007	-0.0053	0.003	-0.0068	-81.8
0	-0.0046	0.0007	-0.0053	-81.8
0	-0.0038	0	-0.0038	-81.8
-0.0008	-0.0023	0	-0.0038	-81.8
-0.0008	-0.003	-0.0008	-0.0023	-81.8
-0.0008	-0.0015	0.0007	-0.0015	-81.8
0	-0.0015	0.0007	-0.0015	-81.8
0.0007	-0.0008	0.0007	-0.0015	-81.8
-0.0015	0.0007	0.0007	-0.0008	-81.8
-0.003	0.0007	0.0007	-0.0008	-81.8
-0.0046	0.0037	0.003	-0.0008	-81.8
-0.0015	0.0015	0.0007	0	-81.8
-0.0008	0	0	0	-81.8
-0.003	0.0015	0	0.0007	-81.8
-0.003	0.0015	0.0015	0.0007	-81.8
-0.0015	0.0015	0.0015	0.0007	-81.8
-0.003	0.0015	-0.0015	0	-81.8
-0.003	0.0015	-0.0008	-0.0008	-81.8
-0.0008	0.0015	-0.0015	-0.0015	-81.8
-0.0008	0.0007	-0.003	-0.0008	-81.8
0	0.0007	-0.0015	-0.0008	-81.9
0.0007	0	-0.0023	-0.0008	-81.9
-0.0008	-0.0015	-0.0008	0.0007	-81.9
-0.0008	-0.0008	-0.0015	0.0007	-81.9
0.0007	-0.0015	0	-0.0015	-81.9
0.0015	-0.003	0.0007	-0.0015	-81.9
-0.0008	-0.0015	0.0015	-0.0008	-81.9
0	0	0.003	-0.0008	-81.9
0.0007	-0.0008	0.003	-0.0008	-81.9
0	-0.0008	0.0037	-0.0008	-81.9
-0.0008	-0.0008	0.0045	0	-81.9
-0.0015	-0.0015	0.0037	-0.0015	-81.9
0	-0.003	0.0015	-0.0023	-81.9
0.0007	-0.003	0.0022	0.0007	-81.9
0.0007	0	0.0045	-0.0008	-81.9
0.003	-0.0015	0.006	-0.003	-81.9
0.003	-0.0008	0.006	-0.0023	-81.9
0.0015	0	0.0045	-0.0015	-81.9
0.0007	0	0.0045	-0.0015	-81.9
-0.0008	0.0007	0.0022	-0.0008	-81.9
0	-0.0023	0	-0.003	-81.9
-0.0023	-0.0015	-0.0015	-0.0038	-81.9
-0.003	-0.0023	-0.0023	-0.0023	-82
-0.0015	-0.003	-0.0015	-0.0015	-82
0	-0.0008	-0.0008	-0.0008	-82
0	0	0.0015	-0.0015	-82
0.0007	-0.0008	0.003	-0.003	-82
0.0007	-0.0008	0.0052	-0.0023	-82
-0.0008	0	0.0045	-0.003	-82
0.0007	0.0007	0.0015	-0.0053	-82
0.003	0	0.0007	-0.0023	-82
0.003	-0.0008	-0.0008	-0.0023	-82
0.003	-0.0023	0.0007	-0.0015	-82.1
0.0015	-0.0008	0.0007	0.0007	-82.1
0.0015	0.0007	0.0007	0.0007	-82.1
0.0015	-0.0008	-0.0015	0.0007	-82.1
0.0015	-0.0015	-0.0008	0.0007	-82.1
0.0022	-0.0008	0.0045	-0.0015	-82.1
0.0015	-0.0015	0.0037	-0.0023	-82.1
-0.0015	-0.003	0.0037	-0.0023	-82.2
-0.0038	-0.0015	0.003	-0.0023	-82.2
-0.0038	-0.0015	0.0022	-0.003	-82.2
0.0007	-0.0015	0.003	-0.003	-82.2
0.0007	-0.0015	0.0007	-0.0023	-82.2
0	0	0.0015	-0.0023	-82.2
0.0007	-0.0008	-0.0008	-0.0015	-82.3
-0.0008	-0.0015	0.0007	-0.0015	-82.3
0	-0.003	0.0015	-0.0023	-82.3
0	-0.003	0	-0.003	-82.3
0.0022	-0.0015	0.0007	-0.0038	-82.3
0.0045	-0.003	-0.0008	-0.003	-82.3
0.003	-0.003	0	-0.0015	-82.3
0.0007	-0.0008	0.0022	-0.0015	-82.3
-0.0038	0.0007	0.0037	-0.0015	-82.3
-0.0038	-0.0008	0.0052	-0.0008	-82.3
-0.0023	-0.0008	0.0037	-0.0008	-82.3
0.0037	-0.0008	0.0022	-0.0008	-82.3
0.012	-0.0023	-0.0023	-0.0008	-82.3
0.012	-0.0038	-0.003	-0.0008	-82.3
0.0045	-0.0023	-0.003	0.0015	-82.3
-0.0053	-0.003	-0.003	0	-82.3
-0.0091	-0.0023	-0.0023	0	-82.3
-0.0068	-0.0015	-0.0038	0.0007	-82.4
-0.0008	-0.0008	-0.0038	-0.003	-82.4
0.0015	-0.0015	-0.003	-0.003	-82.4
0.0022	-0.0015	-0.0015	-0.003	-82.4
0.0022	-0.0015	-0.0008	-0.0008	-82.4
-0.0046	-0.0008	0.003	0.0007	-82.4
-0.0083	0.0007	0.0052	0.0007	-82.4
-0.0105	0.0022	0.0052	0.0007	-82.4
-0.0068	0.0022	0.0082	0.0007	-82.4
-0.0008	0	0.0052	0.0007	-82.4
0.0075	0.0007	0.003	0	-82.4
0.009	0.0015	0.006	0	-82.4
0.0052	0.0007	0.0045	-0.0008	-82.4
-0.0008	0	0.003	-0.0008	-82.4
-0.0091	0.0007	0.003	-0.0008	-82.4
-0.0068	0.0015	0.0015	0.0007	-82.4
-0.0053	0.0015	0.0007	0.0007	-82.4
-0.0053	0.0007	0.0007	-0.0008	-82.4
-0.0023	-0.0015	0.0007	-0.0015	-82.4
-0.0046	-0.0008	0	-0.0046	-82.4
-0.0046	-0.0008	0.0007	-0.003	-82.4
-0.0038	-0.0023	0.0007	-0.003	-82.4
-0.0015	-0.0015	0.0007	-0.0015	-82.4
-0.0008	-0.0015	0.0007	-0.0023	-82.4
0	-0.0008	0.0007	-0.0038	-82.4
0.0037	-0.0008	0.0015	-0.003	-82.4
0.0022	-0.0015	0.0015	-0.0008	-82.4
0.0007	-0.0015	-0.0008	-0.0008	-82.4
0	-0.0008	-0.0023	-0.0008	-82.4
0	0	-0.003	0.0015	-82.4
0.003	0.0007	-0.003	0.0007	-82.4
0.003	0.0015	-0.0008	0.0007	-82.4
0.0037	0	-0.0008	0.0007	-82.4
0.0067	-0.0008	0.0007	0	-82.4
0.0045	-0.0008	0.0015	-0.0008	-82.4
0.006	0.0007	-0.0008	-0.0015	-82.4
0.0067	0.0015	-0.0008	-0.0015	-82.4
0.0045	0.0007	0.0015	-0.003	-82.4
0.0045	0.0015	0.0015	-0.0015	-82.4
0.003	0	0.003	-0.0023	-82.4
-0.0008	0.0007	0.0037	-0.0015	-82.4
-0.0015	0.0015	0.0015	-0.0015	-82.4
-0.0015	-0.0008	0.0022	-0.0008	-82.4
0.0015	0.0007	0.0015	0	-82.4
0	0.0007	0.0037	-0.0015	-82.4
-0.0023	0	0.0052	-0.0015	-82.4
-0.0008	0	0.0052	-0.0046	-82.4
-0.0008	-0.0008	0.0052	-0.0046	-82.4
-0.0038	-0.0008	0.0007	-0.0008	-82.4
-0.0046	-0.0008	-0.003	-0.0015	-82.4
-0.0015	-0.0015	-0.003	-0.0023	-82.4
-0.0015	-0.003	-0.0015	-0.0008	-82.4
-0.0015	-0.0015	0.0007	-0.0015	-82.4
-0.003	-0.0015	0.0007	-0.0015	-82.4
-0.0053	-0.0015	0.0015	-0.0015	-82.4
-0.0053	-0.0008	0.0015	-0.0008	-82.4
-0.003	0.0007	0.0007	0.0007	-82.4
-0.003	0.0015	0	-0.0015	-82.4
-0.0046	-0.0008	-0.0015	-0.0015	-82.4
-0.006	-0.0008	-0.0008	-0.0015	-82.4
-0.0068	-0.0023	-0.0015	-0.003	-82.3
-0.0083	-0.0008	0.0007	-0.003	-82.3
-0.0038	-0.0008	0.0015	-0.003	-82.3
-0.0015	-0.0015	0.0015	-0.0015	-82.3
-0.0008	-0.0015	0.0015	0	-82.3
0.0022	-0.0038	-0.0008	-0.0008	-82.3
0.0037	-0.0023	0.003	-0.0008	-82.3
0.0067	0	0.0045	-0.0008	-82.3
0.0037	-0.0008	0.0045	0.0015	-82.2
0.003	0	0.0045	-0.0008	-82.2
0.0045	0.0015	0.0067	-0.0008	-82.2
0.0045	0.0007	0.0067	-0.0015	-82.2
0.0037	0.0007	0.003	-0.0015	-82.2
-0.0015	-0.0008	0.003	-0.0008	-82.1
-0.0008	-0.0008	-0.0015	-0.0015	-82.1
0.0007	0.0015	-0.0046	-0.0008	-82.1
0.0007	0.0015	-0.0046	-0.0008	-82.1
0.0037	0	-0.0046	0	-82.1
0.0052	-0.0008	-0.0046	-0.0008	-82.1
0.006	0	-0.0038	-0.0015	-82
0.0052	-0.0008	0.0007	-0.0015	-82
0.0022	-0.0015	0.0022	-0.0008	-82
-0.0008	-0.0008	0.0022	-0.0015	-82
0.0007	0.0007	0.0052	-0.0015	-82
0.0015	-0.0008	0.0097	-0.0015	-81.9
0.0007	-0.0023	0.0067	-0.0038	-81.9
0.0007	-0.0015	0.0045	-0.003	-81.9
-0.0008	-0.0008	0.0007	0	-81.9
-0.0068	-0.0023	-0.0008	0.0022	-81.9
-0.0068	-0.0046	0.003	0.0015	-81.8
-0.0053	-0.003	0.0045	0.0007	-81.8
-0.0068	-0.003	0.006	0.0007	-81.8
-0.0091	-0.0015	0.0075	0.0015	-81.7
-0.0128	-0.0023	0.0097	0.0015	-81.7
-0.012	-0.0023	0.0082	0.0007	-81.7
-0.0075	-0.0008	0.0052	-0.0008	-81.6
-0.0015	-0.0015	0.0045	-0.0015	-81.6
0.0022	-0.0008	0.0022	-0.003	-81.6
0.006	0.0015	0	-0.0038	-81.5
0.0082	0.0007	-0.003	-0.003	-81.5
0.0052	0	-0.0053	-0.0015	-81.5
0.0052	-0.0015	-0.0068	-0.0015	-81.5
0.009	-0.003	-0.0068	-0.0023	-81.5
0.0127	-0.0046	-0.0068	-0.0015	-81.4
0.009	-0.0046	-0.0038	-0.0015	-81.4
0.0045	-0.0015	-0.0038	-0.0015	-81.3
0	0.0007	-0.0046	-0.003	-81.3
-0.0038	-0.0008	-0.0046	-0.003	-81.2
-0.0015	-0.0015	-0.0053	-0.0023	-81.2
0.003	-0.0008	-0.0038	0	-81.2
0.003	-0.0015	-0.0038	0	-81.1
0.0045	-0.0015	-0.0008	-0.0008	-81.1
-0.003	-0.0023	0.006	0.0007	-81
-0.0113	-0.0015	0.0112	0	-81
-0.012	-0.0015	0.0112	-0.0015	-81
-0.012	-0.0015	0.009	-0.0015	-80.9
-0.0075	0	0.0052	-0.003	-80.9
-0.0053	-0.0008	0	-0.003	-80.8
-0.0015	-0.0023	-0.0053	-0.0038	-80.8
0.0082	-0.0015	-0.0113	-0.003	-80.8
0.012	-0.0015	-0.0091	-0.003	-80.7
0.009	-0.0015	-0.006	-0.003	-80.7
0.0015	-0.0015	-0.0008	-0.0015	-80.6
-0.0053	-0.0015	0.0037	0	-80.6
-0.0091	0.0007	0.0037	-0.0008	-80.6
-0.0105	0.0015	0.003	-0.0015	-80.5
-0.0105	0.0015	-0.0015	-0.0015	-80.5
-0.0083	0.0007	0.0007	-0.0015	-80.4
-0.0068	0.0007	0.0037	-0.0008	-80.4
-0.003	-0.0008	0.0075	-0.0023	-80.3
0.003	-0.0008	0.0097	-0.0015	-80.3
0.0022	-0.0015	0.0052	-0.0023	-80.2
0.003	-0.0015	0.003	-0.0038	-80.2
0.0015	-0.0015	0.003	-0.0046	-80.1
0.0037	-0.003	0.006	-0.0046	-80.1
0.0052	-0.0008	0.0067	-0.003	-80
0.0022	0.0007	0.0067	-0.0023	-80
0	0.0007	0.0067	-0.0023	-79.9
-0.0053	0.0015	0.006	-0.003	-79.9
-0.0015	0	0.0067	-0.0015	-79.8
0.003	-0.0015	0.0097	0	-79.8
0.0015	-0.0008	0.0112	0.0007	-79.7
0.0015	0.0007	0.0082	0.0007	-79.7
-0.0015	-0.0008	0.0052	0.0007	-79.7
0	-0.0008	0.003	-0.0008	-79.6
0.003	0.0007	0.0015	-0.0015	-79.6
0.0052	-0.0015	0.0015	0	-79.5
0.0067	-0.0015	-0.0008	-0.0008	-79.4
0.0037	-0.0023	-0.0046	-0.0008	-79.4
0.0015	-0.0015	-0.006	-0.0008	-79.3
-0.0015	-0.0023	-0.0038	-0.0015	-79.2
-0.0038	-0.0015	-0.0046	-0.0015	-79.2
-0.0038	0.0007	-0.0053	0.0007	-79.2
-0.0023	0	-0.0068	0.0007	-79.1
-0.0015	-0.0023	-0.0083	0	-79
-0.0015	-0.003	-0.0083	0.0007	-79
-0.0038	-0.0008	-0.0068	-0.0008	-78.9
-0.003	0.0007	-0.003	0.0007	-78.8
0.0007	-0.0015	-0.003	0	-78.8
0.0045	-0.0015	-0.0023	-0.0008	-78.8
0.0045	0.0007	-0.0008	0.0007	-78.7
0.003	-0.0008	0.0007	0.0015	-78.6
0.003	0	0.0015	0.0007	-78.6
0.0007	0.0007	0.0015	0	-78.5
-0.0008	0	0.003	0.0015	-78.5
0.0015	0.0007	0.003	0.0007	-78.4
0.003	0	0	-0.0008	-78.3
0.0045	-0.003	-0.0023	-0.0015	-78.3
0.003	-0.0008	-0.0038	-0.0015	-78.2
-0.0008	0	-0.0083	-0.0015	-78.1
-0.0046	-0.0015	-0.0105	-0.0015	-78.1
0.0022	-0.0008	-0.0075	-0.0015	-78
0.0105	-0.0008	-0.003	-0.0015	-77.9
0.0097	-0.0015	0.0022	-0.0015	-77.9
0.012	-0.0015	0.0045	-0.003	-77.8
0.0105	-0.0015	0.0082	-0.0023	-77.8
0.006	-0.0008	0.012	-0.003	-77.7
-0.003	-0.0015	0.0165	-0.003	-77.6
-0.0091	-0.0015	0.0195	-0.0015	-77.5
-0.006	-0.0023	0.0195	-0.0038	-77.5
0.0007	-0.0008	0.0142	-0.003	-77.4
0.006	0.0007	0.0037	-0.003	-77.4
0.0022	0.0007	-0.0015	-0.003	-77.3
-0.003	0	-0.0038	-0.0023	-77.2
-0.0046	-0.0008	-0.0075	-0.0023	-77.1
-0.0046	-0.0015	-0.003	-0.0015	-77.1
-0.003	-0.0008	0.0022	-0.0008	-77
0.0007	0.0007	0.003	-0.0015	-77
0.0067	0	0.0007	-0.003	-76.9
0.009	-0.0008	-0.0008	-0.003	-76.8
0.0082	-0.0015	0.0022	-0.0015	-76.7
0.0067	-0.0015	0.0052	-0.0015	-76.7
0.0045	-0.0008	0.0082	-0.0008	-76.6
0.0022	-0.0008	0.0067	0.0007	-76.5
0.0052	0.0007	0.0045	0.0007	-76.5
-0.0008	0.0007	0.0045	-0.0015	-76.4
-0.0105	-0.0008	0.0045	-0.003	-76.3
-0.0143	-0.0015	0.0045	-0.0023	-76.2
-0.0278	-0.0015	-0.0008	-0.003	-76.2
-0.0375	-0.0008	-0.0008	-0.0038	-76.1
-0.0361	0	-0.0023	-0.0023	-76.1
-0.0181	0.0015	-0.0053	0	-76
0.0217	0	-0.0068	-0.0008	-75.9
0.0405	-0.003	-0.0046	-0.0008	-75.8
0.0285	-0.0023	-0.003	-0.0008	-75.7
0.0165	-0.0015	-0.0008	-0.0008	-75.6
0.003	0.0007	-0.0008	-0.0008	-75.6
-0.0158	0.0007	-0.003	-0.0008	-75.5
-0.021	-0.0008	-0.0015	-0.0008	-75.4
-0.0113	0	-0.003	-0.0008	-75.3
-0.0098	-0.0015	-0.0023	0	-75.2
-0.0233	-0.003	0.0007	0	-75.2
-0.0233	-0.0015	0.0067	0.0007	-75.1
-0.027	-0.0015	0.0082	0.0007	-75
-0.0308	-0.0015	0.0037	-0.0023	-74.9
-0.0225	-0.0015	0	-0.0023	-74.8
-0.0105	-0.0008	-0.0046	-0.0015	-74.8
0.0052	0.0007	-0.0098	-0.0023	-74.7
0.0112	-0.0008	-0.015	-0.0008	-74.6
0.018	-0.0008	-0.0135	-0.0015	-74.5
0.021	-0.0008	-0.0075	-0.0023	-74.4
0.018	-0.0015	-0.0015	-0.0023	-74.4
0.0157	-0.0008	0.0052	-0.0008	-74.3
0.0112	0.0007	0.012	-0.0008	-74.2
0.0045	0	0.021	0	-74.1
0.0022	0.0022	0.024	0.0015	-74
0.0045	0.0022	0.021	0	-73.9
0.0015	0.0007	0.0165	0.0007	-73.8
0.003	0.0015	0.0127	-0.0008	-73.8
0.0067	0.0007	0.0097	-0.003	-73.7
0.0105	0	0.0052	-0.003	-73.6
0.0142	0	0.0037	-0.0023	-73.5
0.0202	-0.0008	-0.0008	-0.003	-73.4
0.024	-0.0008	-0.0083	-0.0046	-73.3
0.0217	-0.0008	-0.0083	-0.0046	-73.3
0.018	-0.0023	-0.0091	-0.0046	-73.2
0.0157	-0.003	-0.0105	-0.0015	-73.1
0.009	-0.0008	-0.0105	-0.0008	-73
0.0015	-0.003	-0.0105	-0.003	-72.9
-0.0015	-0.0015	-0.0053	-0.0023	-72.8
-0.0046	-0.0008	-0.0038	-0.0015	-72.7
-0.0053	-0.0008	-0.0008	-0.0015	-72.6
-0.0068	-0.003	0.0007	-0.0023	-72.5
-0.0098	-0.0046	0.003	-0.003	-72.5
-0.0105	-0.003	0.0082	-0.0015	-72.4
-0.0053	-0.0008	0.0112	0	-72.3
-0.0068	-0.0008	0.0135	-0.0008	-72.2
-0.0113	-0.0015	0.012	-0.0015	-72
-0.0128	-0.0015	0.012	-0.0008	-72
-0.0173	-0.0008	0.009	-0.0015	-71.9
-0.0143	0	0.003	-0.0015	-71.8
-0.0053	-0.0008	-0.003	-0.0008	-71.7
-0.0046	-0.0015	-0.006	0.0007	-71.6
-0.0008	-0.0015	-0.006	0.0007	-71.5
0.0015	-0.0015	-0.0053	0.0007	-71.4
-0.0008	0.0015	0	0	-71.3
-0.0015	0.0007	0.0045	-0.0008	-71.2
-0.003	-0.0008	0.0052	-0.0008	-71.1
0.0007	-0.003	0.0045	-0.0008	-71
0.003	-0.0046	0.0022	-0.0015	-70.9
0.0007	-0.0023	0.0007	-0.0008	-70.8
-0.0008	-0.0015	-0.0008	-0.0008	-70.7
0.0045	-0.0008	-0.0015	0	-70.6
0.0045	-0.0015	-0.003	-0.0015	-70.5
0.0015	-0.0015	-0.0068	-0.0015	-70.4
0.0082	-0.0008	-0.0105	-0.0015	-70.3
0.0075	0.0007	-0.0098	-0.0008	-70.2
0.0045	0.0007	-0.0128	-0.0008	-70.1
0.0007	0	-0.015	-0.0015	-70
-0.006	-0.0008	-0.0075	-0.003	-69.9
-0.0083	-0.0015	-0.003	-0.0046	-69.8
-0.0091	-0.0015	0.006	-0.0015	-69.7
-0.003	0	0.0195	-0.0015	-69.6
-0.0038	-0.003	0.0247	-0.0023	-69.5
-0.012	-0.0008	0.027	-0.003	-69.4
-0.015	0	0.0195	-0.0015	-69.3
-0.0083	0.0007	0.0157	-0.0008	-69.2
0.0052	0.0022	0.0112	0	-69.1
0.0105	0.0007	0.0045	0.0015	-69
0.012	0	0.0015	0.0015	-68.9
0.009	-0.0008	-0.0023	0	-68.8
0.0037	-0.0015	-0.0038	0.0007	-68.7
0.0067	0	-0.0075	0.0015	-68.6
0.009	0.0007	-0.0128	0	-68.5
0.0075	0.0007	-0.0165	0	-68.4
0.0045	-0.0008	-0.0181	-0.0015	-68.3
-0.0015	-0.0015	-0.0173	-0.0015	-68.2
-0.0053	-0.0008	-0.0128	-0.0023	-68.1
-0.0068	-0.0008	-0.006	-0.003	-68
-0.0046	0	0.003	-0.0008	-67.9
0.0037	0.0007	0.0105	0	-67.8
0.0052	-0.0008	0.0135	-0.0008	-67.6
0	-0.0008	0.0217	-0.0023	-67.5
-0.0023	0.0007	0.0277	-0.003	-67.4
-0.0091	-0.0015	0.0255	-0.003	-67.3
-0.0128	-0.0015	0.0202	-0.0023	-67.2
-0.012	-0.003	0.0105	-0.0038	-67.1
-0.0128	-0.0038	0.0022	-0.003	-67
-0.0083	-0.0023	-0.0023	-0.0008	-66.9
-0.0053	-0.0015	-0.003	-0.0015	-66.8
-0.0008	-0.0008	-0.003	0	-66.7
-0.0008	-0.0015	-0.0046	-0.0015	-66.6
-0.003	-0.0015	-0.0068	-0.0015	-66.5
0.0007	-0.0015	-0.0053	-0.0015	-66.4
0.003	-0.003	-0.0038	-0.0023	-66.2
0.0045	-0.003	-0.0015	-0.0023	-66.2
0.0052	-0.003	-0.0008	-0.003	-66
0.003	-0.003	-0.0038	-0.0008	-65.9
0.0045	-0.0015	-0.003	-0.0008	-65.8
0.0007	-0.0008	-0.0046	-0.0008	-65.7
-0.0015	-0.0008	-0.0053	-0.0015	-65.6
0.0082	0.0007	-0.0053	0	-65.5
0.0217	0.0015	-0.0068	-0.0008	-65.3
0.0247	0.0015	-0.0083	-0.0008	-65.2
0.015	0.0015	-0.0083	-0.0008	-65.1
0.0052	0	-0.0046	-0.003	-65
-0.0075	0	-0.0053	-0.0015	-64.9
-0.012	0.0015	-0.0083	-0.0008	-64.8
0.0007	0.003	-0.0083	-0.0015	-64.7
0.021	0.0007	-0.0068	-0.003	-64.5
0.0187	0.0007	-0.0023	-0.0008	-64.4
0.0045	0	0	-0.0015	-64.3
0.0007	-0.0008	0.0037	-0.0023	-64.2
-0.0113	0.0007	0.0112	-0.003	-64.1
-0.021	-0.0008	0.0112	-0.0023	-63.9
-0.0195	-0.0015	0.0105	-0.0015	-63.9
-0.0083	-0.0015	0.0075	-0.0023	-63.7
-0.0046	-0.0015	0.0082	-0.0015	-63.6
-0.0105	0	0.0075	-0.0015	-63.5
-0.0143	0.0007	0.003	-0.0008	-63.4
-0.0128	0.0007	0.0015	-0.0008	-63.2
0	-0.0008	-0.0015	-0.0015	-63.1
0.0142	-0.0023	-0.003	-0.0008	-63
0.0127	0.0007	0.0015	0	-62.9
0.009	-0.0015	0.009	-0.0015	-62.8
0.0022	-0.0015	0.012	-0.0015	-62.6
-0.0181	-0.0015	0.0142	-0.0023	-62.6
-0.0203	-0.0008	0.0165	-0.0015	-62.4
-0.0188	0.0007	0.0172	-0.0023	-62.3
-0.0173	-0.0008	0.012	-0.0008	-62.2
-0.0098	0.0007	0.006	-0.0008	-62.1
-0.0083	-0.0008	0.0007	-0.0015	-61.9
-0.0053	-0.0038	-0.0053	-0.0008	-61.8
0	-0.003	-0.0068	-0.0008	-61.7
0.0052	-0.003	-0.0091	-0.0008	-61.6
0.0105	-0.0008	-0.0113	-0.0015	-61.5
0.0142	0.0007	-0.0091	-0.0015	-61.3
0.018	0.0007	-0.0053	-0.0008	-61.2
0.0165	-0.0008	-0.0008	0	-61.1
0.012	0.0007	0.0045	-0.0008	-61
0.0082	0.0007	0.009	0.0007	-60.8
0.006	0.0007	0.0105	-0.0008	-60.7
0.0022	0	0.012	-0.0008	-60.6
-0.0023	-0.0015	0.0105	0.0007	-60.5
-0.006	0	0.0052	-0.0008	-60.3
-0.0083	-0.0008	0.0015	0.0007	-60.3
-0.0083	0	0.0015	0.0015	-60.1
-0.0068	0.0007	0.003	0.0007	-60
-0.0053	0.0007	0.0045	0.0007	-59.9
0.003	0.0015	0.0015	0	-59.8
0.0082	-0.0008	-0.0008	-0.0008	-59.6
0.009	-0.003	-0.0053	-0.0008	-59.5
0.012	-0.0015	-0.0105	-0.0008	-59.4
0.0112	-0.0015	-0.0105	-0.003	-59.3
0.0127	-0.0008	-0.0128	-0.003	-59.1
0.0127	0.0007	-0.0158	-0.003	-59
0.0082	-0.0008	-0.0188	-0.0015	-58.9
0.0052	0	-0.0181	0.0007	-58.8
0.0007	-0.0008	-0.0143	-0.0008	-58.6
-0.0098	-0.0015	-0.0075	-0.0008	-58.5
-0.0015	-0.003	-0.0046	-0.0008	-58.4
0.0097	-0.0046	0.0015	-0.0015	-58.3
0.0052	-0.0046	0.0105	-0.0015	-58.2
0.0037	-0.0046	0.0165	-0.0015	-58.1
-0.0046	-0.0015	0.0217	-0.0015	-57.9
-0.0158	-0.0015	0.0202	0.0007	-57.8
-0.021	0	0.0172	0	-57.7
-0.0225	0.0015	0.0165	-0.0008	-57.6
-0.0181	0.0007	0.0165	0	-57.4
-0.0158	0.0007	0.0157	0.0007	-57.3
-0.0083	0.0007	0.0127	-0.0008	-57.2
-0.0038	0	0.0105	-0.0023	-57.1
-0.0038	0.0007	0.0015	-0.003	-57
0.0007	-0.0008	-0.0068	-0.003	-56.8
0.0052	-0.0008	-0.0143	-0.0023	-56.7
0.0082	0.0007	-0.0203	-0.0008	-56.6
0.006	0.003	-0.0203	-0.0015	-56.5
0.0067	0.003	-0.0195	-0.0015	-56.3
0.0105	0.0037	-0.012	-0.0015	-56.3
0.0157	0.003	-0.0075	-0.003	-56.1
0.018	0.0007	-0.0068	-0.0015	-56
0.0127	-0.0008	-0.0015	-0.003	-55.9
0.0082	-0.0023	0.0007	-0.0053	-55.8
-0.0023	-0.003	0.006	-0.0046	-55.6
-0.0105	-0.0046	0.0112	-0.0046	-55.5
-0.0158	-0.0068	0.0082	-0.003	-55.4
-0.0195	-0.0053	0.0097	-0.003	-55.3
-0.012	-0.0046	0.0135	-0.0008	-55.2
-0.0068	-0.0038	0.0187	-0.0015	-55
-0.0105	-0.003	0.0232	-0.0015	-54.9
-0.0068	-0.0015	0.024	0.0007	-54.8
-0.0015	-0.0008	0.0255	0.0015	-54.7
-0.0015	-0.0023	0.024	0.0015	-54.6
0.0015	0	0.0142	0.0015	-54.5
-0.0008	0.0007	0.0105	0.0007	-54.3
-0.0046	-0.0008	0.003	0	-54.2
0.0007	-0.0008	-0.006	-0.0015	-54.1
0.012	-0.0008	-0.0098	-0.0008	-54
0.0142	0.0007	-0.0173	0	-53.9
0.0172	0.0007	-0.0233	0	-53.7
0.0195	-0.0008	-0.0278	-0.0008	-53.6
0.0082	-0.0008	-0.0278	0	-53.5
0.003	0.0007	-0.0173	0.0007	-53.4
-0.0008	0.003	-0.012	-0.0008	-53.2
0	0.003	-0.0105	0.0007	-53.1
0.0067	0.0007	-0.0053	0.0015	-53
0.0015	-0.0008	-0.0008	-0.0008	-52.9
-0.0083	-0.0015	0.0015	-0.0023	-52.8
-0.0158	-0.003	0.003	-0.003	-52.7
-0.015	-0.0046	0.0037	-0.0038	-52.6
0.0015	-0.0046	0.0067	-0.0046	-52.4
0.0075	-0.003	0.0157	-0.0046	-52.3
0.0007	-0.0046	0.0172	-0.0053	-52.2
-0.0015	-0.0046	0.0135	-0.0046	-52.1
-0.0083	-0.003	0.0105	-0.0023	-51.9
-0.0105	-0.0015	0.0022	-0.0008	-51.8
-0.0128	0	-0.0046	-0.0008	-51.7
-0.0143	0.0007	-0.0091	-0.0008	-51.6
-0.012	0.0007	-0.0083	0.0007	-51.5
-0.0015	0.0015	-0.0038	0	-51.3
0.0165	0.0015	-0.0068	-0.0015	-51.3
0.018	0	-0.0091	-0.0015	-51.1
0.018	0.0007	-0.0091	0.0007	-51
0.0307	0.003	-0.0015	0.0015	-50.9
0.0232	0.003	0.0052	-0.0008	-50.8
0.0067	0.0007	0.009	-0.0023	-50.7
-0.0083	-0.0046	0.0157	-0.0015	-50.5
-0.0195	-0.0046	0.018	-0.0015	-50.4
-0.0248	-0.003	0.021	-0.0015	-50.3
-0.0248	-0.0023	0.0195	-0.0023	-50.2
-0.0218	-0.003	0.0157	-0.0015	-50.1
-0.0165	-0.0015	0.0067	-0.0008	-50
-0.0158	-0.0015	-0.0023	-0.0015	-49.9
-0.0128	-0.0008	-0.0015	-0.0008	-49.7
-0.0053	0	-0.0046	-0.0023	-49.6
0	0.0007	-0.003	-0.003	-49.5
0.0097	0.0007	-0.0015	-0.003	-49.4
0.0255	0	-0.0046	-0.003	-49.3
0.027	0.0007	-0.0008	-0.0015	-49.2
0.0195	0	-0.0008	-0.0023	-49.1
0.0135	-0.0008	-0.0008	-0.0015	-49
0.009	0.0007	0	-0.0015	-48.8
0.0015	0.0015	-0.0046	-0.0008	-48.7
-0.0053	0.0015	-0.0053	-0.0008	-48.6
0	-0.0015	-0.0068	-0.0008	-48.5
0.0052	-0.0015	-0.0098	-0.0015	-48.4
-0.0008	-0.0008	-0.0113	-0.0008	-48.3
-0.0083	-0.0008	-0.0083	-0.0015	-48.2
-0.0098	0	-0.0053	-0.0008	-48.1
0.0015	0.0007	-0.0046	0.0015	-48
0.003	0.0015	0.0015	0.0007	-47.8
-0.0008	-0.0008	0.0105	-0.0008	-47.7
-0.0091	-0.003	0.0172	-0.003	-47.6
-0.027	-0.0023	0.027	-0.003	-47.5
-0.03	-0.0015	0.0262	-0.003	-47.4
-0.0143	-0.0015	0.0195	-0.0008	-47.3
0.0007	-0.0023	0.0112	0.0007	-47.2
0.0067	-0.003	0.0052	-0.0015	-47.1
0.0112	-0.0015	0.0022	-0.0015	-47
0.0165	0	-0.0008	-0.0015	-46.9
0.0202	0.0007	-0.0008	-0.0015	-46.8
0.0217	0.0007	-0.0068	-0.0015	-46.7
0.024	-0.0008	-0.0098	-0.0046	-46.5
0.021	-0.0008	-0.0075	-0.0046	-46.4
0.0135	-0.0015	-0.0053	-0.0046	-46.4
0.0045	-0.0015	0.0007	-0.0015	-46.2
-0.0008	-0.003	0.0045	-0.0008	-46.1
-0.0046	-0.0015	0.0045	-0.0008	-46
-0.0091	-0.0008	0.0015	-0.0023	-45.9
-0.0098	-0.0015	-0.0008	-0.003	-45.8
-0.0128	0.0007	0.0045	0	-45.7
-0.0113	0.003	0.0105	0.0007	-45.6
-0.0098	0.003	0.0075	-0.0008	-45.5
-0.0083	0.0015	0.0007	-0.0008	-45.4
-0.003	-0.0008	-0.0068	-0.0023	-45.3
-0.0015	-0.0015	-0.0098	-0.0015	-45.2
-0.0023	-0.0008	-0.0091	-0.0015	-45
-0.0015	0	-0.0068	-0.003	-45
0.0015	0.0007	0.0007	-0.0015	-44.9
0.003	0.0015	0.0037	-0.0015	-44.8
-0.0008	0.0007	0.0022	-0.0023	-44.6
-0.0053	0	0.0015	-0.0008	-44.6
-0.003	0.0007	0.0007	0.0015	-44.5
-0.0015	0.0007	-0.0015	0.0007	-44.3
0.0015	-0.0015	-0.0046	0	-44.2
0.0022	0.0007	-0.0105	0.0007	-44.1
0.009	0.0007	-0.0158	0	-44.1
0.024	-0.0038	-0.0165	-0.0008	-43.9
0.0165	-0.0046	-0.0181	-0.0015	-43.8
0.0127	-0.0046	-0.0203	-0.0008	-43.7
0.0052	-0.0053	-0.0158	0	-43.7
-0.0083	-0.0038	-0.0053	-0.0008	-43.5
-0.0053	-0.0038	0.0067	-0.0015	-43.4
-0.0083	-0.003	0.0165	-0.003	-43.3
-0.0098	-0.0008	0.018	-0.003	-43.2
-0.0143	0.0007	0.0195	-0.0015	-43.2
-0.0195	0.0015	0.0217	-0.0015	-43
-0.0143	0.0015	0.0255	-0.0015	-42.9
-0.0053	0.0015	0.024	-0.0015	-42.8
0.0007	0	0.018	-0.0008	-42.8
0.0037	-0.0008	0.0105	-0.0015	-42.7
0.0127	-0.003	0.006	-0.0015	-42.5
0.0225	-0.003	0.009	0	-42.4
0.0172	0.0007	0.012	-0.0008	-42.3
0.0007	0.0015	0.0142	0.0007	-42.3
-0.0068	0.0007	0.0067	0.0007	-42.2
-0.012	0.003	-0.003	0.003	-42
-0.0098	0.0015	-0.0083	0.003	-41.9
-0.012	0.0007	-0.012	0.0045	-41.9
-0.0165	0.003	-0.012	0.003	-41.8
-0.012	0.003	-0.0105	0.0015	-41.7
-0.0068	0.0022	-0.0105	0.0015	-41.5
0	-0.0023	-0.0091	0	-41.4
0.0015	-0.0098	-0.0068	-0.0008	-41.4
-0.0023	-0.0128	-0.0023	-0.0023	-41.3
-0.0046	-0.012	0.003	-0.0053	-41.2
0.0052	-0.0105	0.0045	-0.0075	-41.1
0.0172	-0.006	0.003	-0.0068	-41
0.015	-0.003	0.0045	-0.0053	-40.9
0.0067	-0.0008	0.012	-0.0038	-40.8
0.003	0.0015	0.009	-0.003	-40.7
0.0067	0.003	0.0037	-0.0008	-40.6
0.009	0.0052	0.0007	-0.0015	-40.5
0.0037	0.0075	-0.0053	-0.0023	-40.4
-0.0046	0.0045	-0.0083	-0.0046	-40.3
-0.0053	0	-0.0143	-0.006	-40.2
-0.0046	-0.0008	-0.0158	-0.0046	-40.1
-0.0038	-0.0015	-0.0105	-0.0046	-40.1
0.003	-0.0008	-0.0053	-0.0015	-40
0.006	0.0007	0.0022	-0.0008	-39.9
0.0052	0	0.009	-0.0008	-39.8
0.0045	0.0007	0.018	-0.0008	-39.7
-0.003	0.0015	0.0195	0	-39.6
-0.0158	0.0007	0.0172	0.0022	-39.5
-0.024	0.0007	0.0142	0.0007	-39.4
-0.0218	0.0015	0.0105	0.0015	-39.3
-0.015	0.0052	0.0052	0	-39.2
-0.0046	0.0045	-0.0068	-0.0008	-39.2
0.0037	0	-0.0091	0.0007	-39
0.0082	-0.0015	-0.0098	0.0015	-38.9
0.012	-0.0008	-0.0091	0	-38.8
0.0135	-0.0038	-0.003	-0.003	-38.7
0.0112	-0.0083	-0.003	-0.003	-38.7
0.0082	-0.0083	-0.0068	-0.0023	-38.6
0.0052	-0.006	-0.0105	-0.0015	-38.5
-0.0008	-0.003	-0.0113	-0.0015	-38.4
-0.0015	-0.0008	-0.012	-0.0008	-38.3
0.0007	0.0022	-0.0105	-0.0015	-38.2
0.0022	0.0067	0.0022	0	-38.1
0.0015	0.0127	0.0157	0.0007	-38
0.003	0.012	0.0217	-0.0015	-37.9
0.006	0.0067	0.0255	-0.0053	-37.8
0.0007	0.0022	0.0217	-0.0068	-37.7
-0.0091	-0.0008	0.0127	-0.0053	-37.6
-0.0203	-0.0015	0.0105	-0.0053	-37.5
-0.0361	-0.0053	0.0142	-0.003	-37.4
-0.0383	-0.0083	0.0097	-0.003	-37.4
-0.0285	-0.0091	0.0007	-0.0046	-37.2
-0.0165	-0.0128	-0.0046	-0.0046	-37.1
-0.0053	-0.0128	-0.0083	-0.003	-37
0.0097	-0.0053	-0.0113	-0.0008	-36.9
0.0232	-0.0008	-0.0083	0.0007	-36.9
0.027	0.0007	-0.0046	0.0007	-36.8
0.0285	0.0015	-0.003	0.0007	-36.6
0.0232	0.0015	0.0015	0.0007	-36.5
0.0202	0.0015	-0.003	0.0015	-36.5
0.027	-0.0015	-0.0143	0.0022	-36.4
0.0397	-0.0015	-0.0218	0.0015	-36.3
0.0457	0.0015	-0.027	0.0015	-36.2
0.0427	0.0007	-0.0233	0.0007	-36.1
0.0352	-0.0015	-0.012	0.0007	-36
0.0007	0.0007	0.0112	0.0007	-35.9
-0.0218	0.0022	0.024	-0.0008	-35.8
-0.0353	0	0.0217	-0.0015	-35.7
-0.0428	-0.0038	0.0255	-0.003	-35.6
-0.0443	-0.0046	0.0307	-0.003	-35.5
-0.0495	-0.0015	0.0337	-0.003	-35.4
-0.0368	-0.0008	0.0375	-0.0015	-35.3
-0.0346	0.0015	0.0352	-0.0015	-35.2
-0.0195	0	0.0262	-0.0015	-35.1
-0.0068	-0.0023	0.012	-0.0008	-35
0.0022	-0.0038	-0.0008	0	-34.9
0.0142	-0.006	-0.006	-0.0008	-34.8
0.0165	-0.0015	-0.0075	-0.0008	-34.7
0.0195	0.0022	-0.0068	0.0015	-34.6
0.0105	0.003	-0.0068	0.0015	-34.5
0.0082	0.003	-0.006	-0.0008	-34.4
0.0105	0.003	-0.0091	-0.0015	-34.3
0.0112	0.0007	-0.0158	-0.0023	-34.2
0.0127	-0.0008	-0.0218	-0.0023	-34.1
0.0135	0.0007	-0.0218	-0.0008	-34
0.0172	0.0007	-0.0173	-0.0023	-33.8
0.0195	0.0022	-0.0105	-0.0015	-33.8
0.0187	0.003	-0.0053	-0.0015	-33.7
0.0082	0	0.0007	-0.0023	-33.6
0.003	-0.0015	0.0045	-0.0023	-33.5
0.0067	-0.0015	-0.0008	-0.0023	-33.4
0.0127	-0.0023	0.0007	-0.0008	-33.3
0.0127	-0.003	-0.0015	-0.0023	-33.2
-0.003	-0.0038	-0.003	-0.003	-33.1
-0.0113	-0.0023	0.0015	-0.0015	-33
-0.012	-0.0015	0	-0.0008	-32.9
-0.0091	-0.0008	0.0082	-0.0008	-32.8
-0.0105	-0.0023	0.012	-0.0008	-32.7
-0.015	-0.0023	0.0052	-0.0008	-32.6
-0.0165	-0.0008	0.003	-0.0015	-32.5
-0.027	-0.0008	-0.0008	-0.0023	-32.4
-0.0293	-0.0023	-0.0015	-0.0015	-32.4
-0.0218	-0.003	0.0007	-0.0015	-32.2
-0.0165	-0.0008	0.0007	-0.0008	-32.1
-0.0158	-0.0008	-0.0083	0	-32
-0.012	0.0007	-0.0181	0	-32
-0.0053	-0.0008	-0.024	-0.0015	-31.9
0.003	-0.0015	-0.0128	-0.0015	-31.8
0.0127	-0.0008	0.003	-0.0015	-31.7
0.009	0.0007	0.0067	-0.0015	-31.6
0.0112	0.0007	0.018	-0.003	-31.6
0.0165	-0.0015	0.0142	-0.0023	-31.5
0.012	-0.0015	0.003	-0.0023	-31.5
0.0135	-0.003	0.0022	-0.0046	-31.4
0.0195	-0.0038	-0.0038	-0.003	-31.3
0.0165	-0.0053	-0.0053	-0.003	-31.3
0.0097	-0.0053	-0.0083	-0.0023	-31.2
0.0052	-0.003	-0.0091	-0.0008	-31.1
-0.003	-0.0038	-0.0068	-0.0023	-31.1
-0.0046	-0.003	-0.0038	-0.0023	-31
0.0022	-0.0015	0.0045	0.0007	-31
-0.0046	-0.0015	0.015	-0.0008	-30.9
-0.012	-0.003	0.0255	-0.0046	-30.8
-0.0128	-0.0008	0.027	0	-30.8
-0.0158	0.003	0.021	0.0007	-30.7
-0.0143	0.0045	0.0187	-0.0008	-30.6
0	0.0052	0.012	-0.0008	-30.6
0.0082	0.006	0.0075	-0.0015	-30.5
-0.0015	0.0037	0.0052	-0.0008	-30.4
-0.006	0.0022	-0.0053	-0.0008	-30.3
0.003	0.003	-0.0128	-0.0015	-30.2
0.0322	0.0015	-0.0181	0.0007	-30.2
0.054	0.0015	-0.012	0	-30
0.0277	-0.0008	-0.0083	-0.0008	-29.9
0.0015	-0.0038	-0.0091	0	-29.8
-0.0083	-0.0068	-0.0046	0.0007	-29.7
-0.0263	-0.0068	-0.0053	0.0007	-29.7
-0.0315	-0.0068	-0.0008	0	-29.6
-0.0248	-0.0038	-0.0053	-0.0008	-29.5
-0.015	0.0007	-0.0046	-0.0008	-29.4
-0.0195	0.0015	0.0052	-0.0008	-29.3
-0.0165	0.003	0.0142	-0.003	-29.2
-0.0091	0.0007	0.027	-0.003	-29.1
-0.0068	-0.003	0.0285	-0.0038	-29
0.0015	-0.0008	0.027	-0.0046	-28.9
0.009	-0.0015	0.018	-0.0046	-28.8
0.0127	-0.0038	0.0112	-0.0046	-28.7
0.0082	-0.003	0.0082	-0.0023	-28.6
0.0052	-0.0015	0.0007	-0.0015	-28.5
0.0045	-0.0008	-0.003	-0.0015	-28.4
0.0037	0	-0.0083	-0.0015	-28.4
0.0037	0.0007	-0.0128	-0.0008	-28.3
0.0052	0.003	-0.0158	-0.0008	-28.2
0.0015	0.0037	-0.0128	-0.0023	-28.1
-0.006	0.003	-0.0105	-0.0008	-28
-0.003	0.0015	-0.0135	0.0007	-27.9
0.0022	-0.0015	-0.0128	-0.0008	-27.8
0.0037	-0.0008	-0.0053	-0.0008	-27.7
0.0045	0.0015	0.0015	0.0007	-27.6
0.0045	0.003	0.0082	0.0007	-27.5
0.0007	0.0022	0.0067	0.0007	-27.4
0	0.003	0.0037	0	-27.3
0.003	0.0007	0.0007	-0.0015	-27.2
0.0052	-0.0008	-0.0008	-0.0023	-27.1
0.009	-0.003	-0.0015	-0.003	-27
0.0127	-0.003	-0.0038	-0.0023	-27
0.003	-0.0015	-0.0053	-0.0015	-26.9
-0.0083	-0.003	-0.006	-0.0015	-26.8
-0.0158	-0.0023	-0.0038	-0.0023	-26.7
-0.0218	-0.0015	0.0007	-0.0015	-26.6
-0.0181	-0.0046	0.0022	-0.0023	-26.6
-0.0091	-0.0038	-0.0023	-0.003	-26.5
-0.0023	-0.0053	-0.0046	-0.0038	-26.4
0.003	-0.0038	-0.0075	-0.0023	-26.3
0.0082	-0.0023	-0.012	-0.0015	-26.2
0.0097	-0.0015	-0.0113	-0.0008	-26.2
0.009	0	-0.0083	0	-26.1
0.0067	0.0015	0.0007	-0.0008	-26
0.0045	0.0015	0.015	0.0022	-26
0.0067	0.0022	0.024	0.0015	-25.9
0.009	0.003	0.027	-0.0015	-25.8
0.0082	0.0015	0.018	-0.0023	-25.7
0.0052	-0.003	0.012	-0.0046	-25.7
-0.0008	-0.0046	0.015	-0.003	-25.6
-0.0083	-0.006	0.0127	-0.0015	-25.5
-0.0128	-0.0053	0.0097	-0.0008	-25.4
-0.0105	-0.003	0.0105	0.0022	-25.4
-0.0135	-0.0038	0.0105	0.0015	-25.3
-0.0128	-0.0008	0.0195	-0.0008	-25.2
-0.0105	-0.0015	0.0255	0	-25.2
-0.0105	-0.003	0.0127	0	-25.1
-0.0046	0	0.0015	0	-25.1
-0.0023	0.0015	-0.0091	-0.0008	-25
0.0007	0.0037	-0.0173	-0.0008	-25
0.0045	0.0045	-0.0218	-0.0015	-24.9
0.0127	0.003	-0.0308	-0.003	-24.8
0.012	0.0022	-0.0323	-0.0015	-24.8
0.009	0	-0.0263	-0.0015	-24.8
0.0247	-0.0008	-0.0203	-0.0008	-24.7
0.0577	-0.0008	-0.0188	-0.0008	-24.7
0.069	0.0007	-0.0105	-0.0015	-24.6
0.027	0.0007	0.0022	-0.0008	-24.5
-0.0195	0	0.0202	0.0007	-24.5
-0.048	0.0007	0.0322	0	-24.4
-0.0585	0.003	0.0405	0.0007	-24.4
-0.0443	0.0052	0.0532	0.0007	-24.3
-0.0383	0.0037	0.0367	0.0007	-24.3
-0.0315	-0.0008	0.0195	-0.0008	-24.2
-0.024	-0.003	0.0075	-0.0015	-24.2
-0.0091	-0.0053	-0.0083	-0.0023	-24.1
0.0112	-0.0038	-0.0091	-0.003	-24.1
0.0142	-0.0046	-0.0091	-0.0015	-24
0.0165	-0.0068	-0.0083	-0.0023	-24
0.0142	-0.0053	-0.0053	-0.003	-23.9
0.0082	-0.0046	-0.0046	-0.0015	-23.9
0.003	-0.0038	-0.0083	-0.0008	-23.9
-0.0008	0.0007	-0.0128	-0.0008	-23.8
-0.0023	0.0007	-0.0143	-0.0008	-23.7
0.0045	0.0007	-0.0173	0	-23.7
0.0067	0.0007	-0.0225	-0.0015	-23.6
0.0052	-0.0008	-0.027	-0.0023	-23.6
0.012	-0.0015	-0.0248	-0.0015	-23.5
0.0217	-0.0015	-0.0165	-0.003	-23.5
0.018	-0.0008	-0.0068	-0.0038	-23.4
0.0045	-0.003	0.0052	-0.003	-23.4
-0.0046	-0.0038	0.0202	-0.003	-23.4
-0.0128	-0.003	0.0315	-0.0015	-23.3
-0.0143	-0.003	0.036	-0.0038	-23.3
-0.012	-0.0023	0.0255	-0.0046	-23.2
-0.0113	-0.0023	0.0067	-0.003	-23.2
0.0037	0.0015	0.0022	-0.0008	-23.1
0.009	0.0045	0.0037	0	-23.1
0.0007	0.003	0.0105	0.0007	-23
-0.0053	0.0015	0.0105	-0.0008	-23
-0.0053	0.0015	0.0015	-0.0023	-23
-0.003	0.0007	-0.0046	-0.0008	-22.9
-0.0008	-0.0008	-0.0091	-0.0008	-22.9
-0.0015	-0.003	-0.003	-0.0023	-22.8
-0.003	-0.003	0.0045	-0.0015	-22.8
0.0007	-0.003	0.0075	-0.0015	-22.8
0.0157	-0.0046	0.003	-0.0008	-22.7
0.0255	-0.0046	0.003	0	-22.7
0.0255	-0.0068	0.009	-0.0023	-22.6
0.0172	-0.0068	0.006	-0.003	-22.6
0.0052	-0.0075	0.0007	-0.0015	-22.5
-0.0008	-0.0091	-0.006	-0.0015	-22.5
-0.0046	-0.0091	0	0.0007	-22.5
-0.0098	-0.006	0.0097	0.0007	-22.4
-0.0181	-0.003	0.0075	0.0007	-22.4
-0.0218	-0.003	-0.0008	0.0022	-22.3
-0.0188	0	-0.0053	0.0007	-22.3
-0.0158	0.0015	-0.0068	0.0007	-22.2
-0.0128	0.0007	-0.0143	0.0015	-22.2
-0.0053	0	-0.0218	0.0007	-22.2
0.0015	0.0007	-0.0315	0.0015	-22.1
0.0082	-0.0008	-0.0353	0.0007	-22.1
0.018	-0.0015	-0.0308	-0.0008	-22.1
0.0255	0.0007	-0.0233	-0.0015	-22
0.0255	0.0007	-0.012	-0.0023	-22
0.0127	0.0015	0.0022	-0.0023	-21.9
-0.0128	-0.0008	0.0247	-0.0053	-21.9
-0.033	-0.0023	0.0382	-0.0068	-21.8
-0.0346	-0.0008	0.039	-0.0046	-21.8
-0.0263	-0.0008	0.0315	-0.003	-21.8
-0.0143	0	0.0165	-0.0008	-21.7
-0.0053	0.0022	0.0082	0	-21.7
-0.0068	0.003	-0.0023	-0.0008	-21.6
-0.0083	0.0015	-0.0083	0.0007	-21.6
-0.0023	0.0015	-0.0098	0.0007	-21.6
0.0075	0.0022	-0.0113	-0.0008	-21.5
0.0105	0.0037	-0.0046	-0.0023	-21.5
0.0052	0.003	0.0045	-0.003	-21.5
0.0045	0.0007	0.0202	-0.003	-21.4
0.0142	-0.0008	0.0367	-0.003	-21.4
0.0172	-0.003	0.0412	-0.003	-21.3
0.0105	-0.0008	0.0322	-0.0023	-21.3
0.0135	0	0.0157	-0.0015	-21.2
0.0337	0	0.0007	-0.0015	-21.2
0.0457	0.0015	-0.0098	-0.0023	-21.2
0.021	0.0007	-0.0105	-0.0015	-21.2
0.0015	0.0015	-0.0135	-0.0008	-21.1
0.0082	0.0007	-0.015	-0.0015	-21.1
0.0052	-0.0008	-0.0113	-0.0015	-21
-0.0135	0.0007	-0.0091	0	-21
-0.0338	0.0045	-0.0038	0.0007	-21
-0.0323	0.0052	-0.006	-0.0015	-20.9
-0.0225	0.0007	-0.012	-0.0046	-20.9
-0.0181	-0.0046	-0.0165	-0.0038	-20.8
-0.0233	-0.003	-0.0135	-0.003	-20.8
-0.0233	-0.0038	-0.0053	-0.0015	-20.7
-0.012	-0.0038	-0.0008	-0.0015	-20.7
-0.0046	-0.0038	0.003	-0.0015	-20.7
0.0007	-0.0038	0.0015	-0.0008	-20.7
0.0037	-0.0008	0.0015	-0.003	-20.6
0.0045	0.0015	0.0015	-0.0023	-20.6
0.0067	0.0037	0.0045	-0.003	-20.6
0.0172	0.003	0.0097	-0.003	-20.5
0.0232	0.0037	0.0075	-0.0008	-20.5
0.0165	0.0082	0.009	-0.0023	-20.4
0.012	0.0082	0.0105	-0.0023	-20.4
0.0075	0.009	0.015	-0.0008	-20.4
0.0082	0.0075	0.0202	-0.0008	-20.3
0.009	0.0045	0.012	-0.0008	-20.3
0.0052	0.0015	0.0015	-0.0015	-20.3
0	-0.003	-0.0068	-0.0015	-20.2
0.0045	-0.0083	-0.0113	-0.0008	-20.2
0.0217	-0.0128	-0.0105	-0.0015	-20.2
0.012	-0.0098	-0.0083	-0.003	-20.1
0.0075	-0.003	-0.0113	-0.0008	-20.1
0.0022	-0.0015	-0.0113	0.0015	-20
-0.0195	-0.0015	-0.0008	0.0007	-20
-0.024	-0.0015	0.0082	-0.0015	-20
-0.0263	-0.0015	0.0105	-0.0023	-19.9
-0.0218	-0.0008	0.0105	-0.0008	-19.9
-0.0181	0	0.0045	0.0007	-19.8
-0.0173	-0.0015	-0.0105	-0.0015	-19.8
-0.0091	-0.003	-0.0225	-0.0015	-19.8
-0.0008	-0.003	-0.0225	-0.0008	-19.7
0.003	-0.003	-0.0128	-0.0008	-19.7
0.0105	-0.0023	-0.003	-0.0008	-19.7
0.0142	-0.0053	0.0022	-0.0008	-19.6
0.0127	-0.006	-0.0053	-0.0008	-19.6
0.0097	-0.0053	-0.0098	-0.0015	-19.5
0.0015	-0.0091	-0.0008	-0.0023	-19.5
-0.006	-0.0068	0.0045	-0.0008	-19.5
-0.0135	-0.003	0.0097	0.0007	-19.4
-0.0158	-0.0015	0.0127	0.0007	-19.4
-0.0158	0	0.0202	0	-19.4
-0.0173	-0.0015	0.0277	-0.0015	-19.3
-0.0105	-0.003	0.0202	-0.0008	-19.3
0.006	-0.0008	0.0157	-0.0015	-19.3
0.0165	0.0052	0.0135	0.0007	-19.2
0.018	0.012	0.018	0.0015	-19.2
0.0217	0.0067	0.0217	0.0007	-19.1
0.0202	0.0015	0.0217	-0.0008	-19.1
0.0135	0.0007	0.0262	-0.0023	-19.1
0.0045	-0.0015	0.0217	-0.0008	-19
-0.0083	0.0007	0.0112	-0.0023	-19
-0.0165	0.0007	-0.0023	-0.0023	-19
-0.0143	0.0022	-0.0098	-0.0015	-18.9
-0.0105	0.0045	-0.0181	0.0007	-18.9
-0.0075	0.0052	-0.0285	0.0015	-18.9
-0.006	0.0037	-0.0293	0.0007	-18.9
-0.012	0.0007	-0.027	-0.0008	-18.8
-0.0105	-0.0008	-0.0203	-0.003	-18.8
-0.0083	-0.0015	-0.0143	-0.003	-18.7
-0.0008	-0.003	-0.0113	-0.0015	-18.7
0.003	-0.0023	-0.006	-0.003	-18.7
0.0015	-0.0015	0.0022	-0.003	-18.6
0.006	-0.003	-0.003	-0.0008	-18.6
0.0052	-0.003	-0.003	-0.0008	-18.6
0.0112	-0.0008	0.0007	0.0007	-18.6
0.027	0.0015	0.0052	0.0007	-18.5
0.024	0.0037	0.0172	-0.0015	-18.5
0.0127	0.003	0.0112	-0.0015	-18.5
0.009	0.0015	0.0045	-0.0015	-18.5
0.0045	0.0015	-0.003	0	-18.5
-0.012	-0.0008	-0.0143	-0.0008	-18.4
-0.0218	-0.003	-0.0158	0	-18.4
-0.0143	-0.0015	-0.0128	0.0007	-18.4
0.0007	0	-0.0098	-0.003	-18.3
0.0067	-0.003	-0.0015	-0.003	-18.3
0.009	-0.003	0.0082	-0.0023	-18.3
0.0112	-0.0015	0.0157	-0.0008	-18.2
0.0022	-0.0023	0.0202	-0.0008	-18.2
-0.0015	-0.003	0.0217	-0.0023	-18.2
-0.0023	-0.0038	0.0202	-0.0023	-18.2
-0.0068	-0.003	0.024	-0.0023	-18.1
-0.0046	-0.0008	0.0262	-0.003	-18.1
0.003	-0.0008	0.0225	-0.0015	-18.1
0.003	-0.0023	0.0202	-0.0008	-18.1
-0.0008	-0.0015	0.0067	-0.0015	-18.1
0.0052	-0.0008	-0.0143	-0.0015	-18.1
0.0045	-0.0023	-0.0315	-0.0023	-18.1
-0.0023	-0.003	-0.0361	-0.003	-18.1
-0.0068	-0.0015	-0.03	-0.0015	-18.1
-0.0083	-0.0008	-0.0203	-0.0023	-18.1
-0.0105	-0.0023	-0.0105	-0.003	-18.1
-0.0195	-0.003	-0.0046	-0.0015	-18.1
-0.0173	-0.003	0.0045	-0.0015	-18.1
-0.0068	-0.0015	0.0105	-0.0008	-18.1
-0.0038	-0.0008	0.0105	-0.0008	-18.1
-0.0068	0.0022	0.015	-0.0008	-18.1
-0.0046	0.0022	0.012	0	-18.1
0.0007	0.0015	0.0082	-0.0008	-18.1
0.0045	-0.0008	0.009	-0.003	-18.1
0.0067	-0.006	0.0007	-0.003	-18.1
0.006	-0.0075	-0.012	-0.0046	-18.1
0.0082	-0.0091	-0.0173	-0.0038	-18
0.0097	-0.0053	-0.0143	-0.0015	-18
0.0097	-0.0008	-0.0091	-0.0008	-18
0.018	0.003	0.0127	0.0007	-18
0.018	0.0082	0.0255	0	-17.9
0.015	0.0082	0.0232	0.0007	-17.9
0.0067	0.0067	0.0315	0.003	-17.9
-0.0008	0.0045	0.039	0.0015	-17.8
0.009	0.0067	0.0345	0.0007	-17.8
0.0105	0.0097	0.0262	0	-17.8
0.012	0.0082	0.0172	0.0007	-17.7
0.0217	0.0045	0.0037	-0.0008	-17.7
0.015	-0.0075	0.0015	-0.0023	-17.7
0.0045	-0.0165	-0.0008	-0.0046	-17.6
-0.0075	-0.0143	0.0015	-0.0046	-17.6
-0.0263	-0.0091	0.0007	-0.0038	-17.6
-0.0346	-0.0053	-0.0075	-0.0046	-17.6
-0.0308	-0.0046	-0.0105	-0.003	-17.5
-0.0218	-0.003	-0.0091	-0.003	-17.5
-0.0091	-0.0015	-0.0091	-0.0015	-17.5
0.0082	-0.0015	-0.0181	-0.003	-17.4
0.0172	-0.0008	-0.0188	-0.003	-17.4
0.021	0.0007	-0.0165	-0.0015	-17.4
0.03	0.0052	-0.0188	-0.003	-17.4
0.018	0.0082	-0.0195	-0.0008	-17.3
-0.0053	0.0082	-0.0135	-0.0008	-17.3
-0.0098	0.0067	-0.0091	0.0007	-17.3
-0.0158	0.0052	-0.0053	0.0007	-17.3
-0.015	0.0037	-0.003	0.0007	-17.2
-0.012	-0.0015	-0.0008	0.0007	-17.2
-0.0083	-0.0105	0.003	-0.0015	-17.2
0.0127	-0.0173	0.0007	-0.0023	-17.1
0.0037	-0.0165	0.0052	-0.0046	-17.1
-0.0181	-0.0068	0.0105	-0.0038	-17.1
-0.0173	-0.0015	0.0247	-0.0038	-17.1
-0.0203	-0.003	0.0337	-0.0046	-17.1
-0.0083	-0.0053	0.0307	-0.0046	-17.1
-0.0083	-0.003	0.0225	-0.0046	-17
-0.0165	-0.0008	0.0052	-0.003	-17
-0.0068	0.003	-0.0008	-0.0008	-17
0.0007	0.0052	-0.0068	0.0007	-16.9
0.012	0.0037	-0.0053	0.0007	-16.9
0.0142	0.0045	0.0022	0.0007	-16.9
0.0082	0.003	0.0045	0	-16.9
0.0037	0.003	0.003	0.0007	-16.8
-0.0015	0.0007	-0.0015	0.0007	-16.8
0.003	-0.003	-0.0068	0.0007	-16.8
0.0037	-0.0053	-0.0068	-0.0008	-16.7
0.0022	-0.0083	-0.0091	0.0007	-16.7
0.0067	-0.0046	-0.0158	0	-16.7
0.0082	-0.0008	-0.0165	-0.0008	-16.7
0.0142	0.0007	-0.021	-0.0008	-16.7
0.0247	0.003	-0.0233	0.0007	-16.6
0.021	0.0015	-0.0225	0.0007	-16.6
0.0165	-0.0008	-0.012	0.0007	-16.6
0.0097	-0.0023	0.0015	0.0015	-16.5
-0.003	-0.0023	0.0135	0	-16.5
-0.0128	-0.003	0.0307	0.0015	-16.5
-0.0188	0.003	0.033	-0.0008	-16.5
-0.0083	0.0075	0.033	0	-16.4
0.0007	0.0052	0.0367	-0.0015	-16.4
-0.0038	0.0007	0.024	-0.0046	-16.4
-0.0015	-0.0053	0.0165	-0.0053	-16.3
-0.0053	-0.0068	0.0112	-0.0053	-16.3
-0.0233	-0.0053	0.003	-0.0015	-16.3
-0.0375	-0.003	-0.0008	-0.003	-16.2
-0.0368	-0.0015	-0.0053	-0.0008	-16.2
-0.0278	0.0007	-0.0046	0	-16.2
-0.0195	0.0015	-0.0053	-0.0008	-16.2
-0.012	0.0015	-0.0075	0.0007	-16.1
-0.0015	0.003	-0.0008	-0.0008	-16.1
0.0112	0.003	0.0007	0	-16.1
0.0217	0.0007	0	0.0015	-16.1
0.0232	-0.0008	-0.0023	0.0007	-16
0.027	0.0015	-0.0023	-0.0008	-16
0.0337	-0.0008	-0.0008	-0.0015	-16
0.0382	-0.0023	0.0045	-0.0015	-15.9
0.0345	-0.0015	0.0082	-0.003	-15.9
0.018	-0.0023	-0.0023	-0.0038	-15.9
0.0067	-0.003	-0.0143	-0.0046	-15.8
-0.0083	-0.006	-0.0158	-0.003	-15.8
-0.0181	-0.0046	-0.0173	0	-15.8
-0.0091	-0.0023	-0.0158	0.0007	-15.8
-0.0008	-0.0008	-0.0091	0.0015	-15.8
0.0015	0.0015	-0.0046	0.0015	-15.7
-0.0068	0.0015	-0.0038	0.0007	-15.7
-0.012	0.0015	0.0015	0.0007	-15.7
-0.0091	0.0015	0.003	0.0007	-15.7
-0.0091	0.0037	-0.0053	-0.0008	-15.6
-0.0083	0.0007	-0.0075	-0.003	-15.6
-0.0053	-0.003	-0.006	-0.003	-15.6
-0.003	-0.003	-0.003	-0.0046	-15.5
-0.003	-0.0053	-0.0053	-0.0046	-15.5
-0.0075	-0.006	-0.0053	-0.0075	-15.5
-0.012	-0.006	0.003	-0.006	-15.5
-0.0173	-0.006	0.012	-0.0046	-15.4
-0.0165	-0.0038	0.0172	-0.003	-15.4
-0.0015	0.0015	0.0127	-0.0008	-15.4
0.0067	0.0015	0.0075	-0.0008	-15.4
0.0075	0	-0.0015	-0.0015	-15.3
0.0052	0	-0.0091	-0.0015	-15.3
0.0037	0	-0.0098	-0.0008	-15.3
0.0082	0.0007	-0.0105	-0.0015	-15.3
0.0097	0.0015	-0.0098	-0.0015	-15.3
0.0127	0.0045	-0.0098	0.0015	-15.2
0.0195	0.003	-0.0128	0.0007	-15.2
0.0202	0	-0.0158	-0.0008	-15.2
0.006	-0.0015	-0.0143	-0.0015	-15.2
-0.0083	-0.003	-0.0113	-0.0015	-15.2
-0.0158	-0.003	-0.0023	0	-15.1
-0.0158	-0.003	0.0157	0.0007	-15.1
-0.0091	-0.0046	0.0367	-0.0015	-15.1
-0.0091	-0.0068	0.048	-0.0008	-15
-0.0008	-0.0046	0.0442	-0.0008	-15
0.0015	-0.003	0.0367	-0.0008	-15
-0.0015	-0.0008	0.0307	-0.0008	-15
0.0007	0	0.0232	0	-15
-0.0053	0	0.012	0.0007	-14.9
-0.0053	-0.0008	-0.0068	0.0007	-14.9
0.0015	0.0007	-0.0128	0.0007	-14.9
0.0082	0.0015	-0.0135	-0.0008	-14.9
0.0157	0.0015	-0.0158	-0.0008	-14.9
0.009	0.0022	-0.0091	-0.003	-14.8
-0.0038	0.0007	-0.0083	-0.003	-14.8
-0.0143	0.0015	-0.0091	-0.0015	-14.8
-0.0195	0	-0.0113	-0.0046	-14.8
-0.0158	0	-0.0105	-0.0023	-14.8
-0.0098	0.0007	-0.0068	-0.0023	-14.7
-0.0015	-0.0015	-0.0053	-0.0038	-14.7
0.0045	-0.0038	-0.0083	-0.0046	-14.7
0.0052	-0.0068	-0.0068	-0.0038	-14.6
-0.0008	-0.0075	-0.003	-0.0015	-14.6
-0.0038	-0.0038	-0.003	-0.0015	-14.6
0.0045	-0.0008	-0.0053	0.0007	-14.6
0.0157	0.0015	-0.0083	-0.0008	-14.5
0.0142	0.0052	-0.0046	-0.0023	-14.5
0.0082	0.009	0.0007	-0.0015	-14.5
0.0045	0.009	0.0037	-0.0015	-14.5
0.0052	0.0082	0.0075	-0.0023	-14.5
-0.0008	0.006	0.0082	0.0007	-14.4
-0.0113	0.0022	0.0112	0.0015	-14.4
-0.0083	-0.003	0.009	0	-14.4
-0.0105	-0.012	0.0112	0.0007	-14.4
-0.0068	-0.0165	0.0097	-0.0015	-14.4
0.0045	-0.0165	0.0045	-0.0015	-14.3
0.0157	-0.0113	0.0105	-0.0015	-14.3
0.0172	-0.0105	0.0075	-0.0015	-14.3
0.0082	-0.0053	0.009	-0.0008	-14.3
0	0.0007	0.0135	-0.0015	-14.3
-0.0038	-0.0008	0.009	-0.0023	-14.2
0.0082	0.0007	0.0015	-0.0015	-14.2
0.0105	-0.0008	-0.012	-0.0023	-14.2
0.0127	0.003	-0.012	-0.0008	-14.1
0.0165	0.0082	-0.0046	-0.0008	-14.1
0.0052	0.009	0.0067	-0.0015	-14.1
-0.0053	0.0082	0.0292	-0.0023	-14.1
-0.021	0.0052	0.0382	-0.0023	-14.1
-0.024	0.006	0.0217	0.0007	-14
-0.0233	0.0015	0.0082	-0.0008	-14
-0.024	-0.0015	0.0007	-0.0008	-14
-0.015	-0.0053	0	-0.0008	-14
-0.0128	-0.0105	0.0067	0	-14
-0.0038	-0.0083	0.0015	0.0007	-14
0.0082	-0.0015	0	0.0007	-13.9
0.012	0.0045	-0.0015	-0.0008	-13.9
0.015	0.0067	-0.0091	-0.0008	-13.9
0.021	0.0082	-0.0135	0	-13.9
0.0232	0.009	-0.0195	-0.0015	-13.9
0.0127	0.0052	-0.0256	-0.0023	-13.8
0.009	0.0007	-0.0308	-0.0015	-13.8
0.0255	-0.0015	-0.0308	-0.0015	-13.8
0.033	-0.003	-0.0218	-0.0008	-13.8
0.0105	-0.0053	-0.0105	-0.003	-13.8
-0.0128	-0.0046	0.0052	-0.0046	-13.7
-0.015	-0.003	0.0277	-0.0053	-13.7
-0.0143	-0.0015	0.0442	-0.0038	-13.7
-0.0113	0.0022	0.0397	-0.003	-13.7
-0.0068	0.003	0.024	-0.0038	-13.7
-0.0015	0.0007	0.012	-0.0023	-13.6
-0.0015	0.0007	0.0067	-0.003	-13.6
-0.0091	-0.0008	0.0045	-0.0015	-13.6
-0.0181	-0.0015	0.0022	-0.0023	-13.6
-0.024	-0.003	0.0007	-0.0015	-13.6
-0.0263	-0.0015	-0.0015	-0.0008	-13.5
-0.0233	0	-0.0053	-0.0023	-13.5
-0.012	-0.0023	-0.0053	-0.0015	-13.5
-0.0135	-0.0008	0.0007	-0.0015	-13.5
-0.021	0.0007	0	-0.003	-13.5
-0.0091	0	-0.0091	-0.0015	-13.5
0.0082	-0.0023	-0.015	-0.0015	-13.5
0.0082	-0.003	-0.0165	-0.0008	-13.5
0.0142	-0.0008	-0.0143	0.0015	-13.4
0.027	-0.0008	-0.0128	0.0007	-13.4
0.0202	-0.0008	-0.0083	0.0007	-13.4
0.0082	-0.0023	-0.003	0.0015	-13.4
0.003	-0.0046	-0.003	0.0007	-13.4
-0.0015	-0.0038	-0.0053	-0.0008	-13.3
-0.0023	-0.0038	-0.0038	-0.0008	-13.3
0.0007	-0.0023	-0.0068	-0.0015	-13.3
0.0037	-0.0008	-0.0135	-0.0015	-13.3
0.012	-0.0023	-0.0143	0	-13.3
0.0225	-0.0023	-0.0135	-0.0008	-13.2
0.0232	-0.003	0.0015	0.0015	-13.2
0.0097	-0.0091	0.0195	-0.0015	-13.2
-0.0068	-0.006	0.0247	-0.0015	-13.2
-0.0143	-0.0008	0.0255	-0.0015	-13.2
-0.0195	-0.0008	0.0157	-0.0008	-13.2
-0.0203	0.0022	0.0067	-0.0008	-13.2
-0.0128	0.003	0.003	-0.0015	-13.1
0.0045	0.0022	-0.0053	0	-13.1
0.0112	0.003	-0.0098	-0.0015	-13.1
0.0127	0.0015	-0.0068	-0.0008	-13.1
0.0202	0	0.009	0	-13.1
0.0165	-0.0015	0.0292	0	-13.1
0.003	-0.0038	0.0375	0.0007	-13.1
-0.0038	-0.0046	0.0292	0.0007	-13.1
-0.0135	-0.0046	0.0112	-0.0008	-13.1
-0.0203	-0.0046	-0.0091	-0.003	-13.1
-0.0165	-0.0046	-0.0195	-0.003	-13
-0.0091	-0.0023	-0.0256	-0.0015	-13
-0.0091	-0.0015	-0.0218	-0.0023	-13
-0.0015	0.0015	-0.0165	-0.0023	-13
0.0082	0.0045	-0.0165	-0.0038	-13
0.0007	0.0007	-0.0083	-0.0046	-13
-0.0113	0.0007	0.0082	-0.003	-13
-0.0128	0.0007	0.0217	-0.0023	-12.9
-0.0105	0	0.0255	-0.0015	-12.9
-0.0091	-0.0008	0.018	-0.0008	-12.9
-0.0008	-0.0008	0.003	-0.0008	-12.9
0.0067	0	-0.0083	0.0007	-12.9
0.0172	0.0007	-0.0143	0.0007	-12.9
0.0255	0	-0.015	0.0007	-12.9
0.0202	-0.0008	-0.0091	0.0007	-12.9
0.0105	0.0007	0	0.0007	-12.9
0.003	0.0022	0.0082	0.0007	-12.8
0.003	0.0007	0.006	0.0007	-12.8
0.0037	0.0007	-0.0015	0.0007	-12.8
0.009	0.0007	-0.0008	-0.0008	-12.8
0.012	0	0.012	-0.0008	-12.8
0.012	0.0015	0.0165	0.0007	-12.8
0.009	0.0007	0.0225	-0.0008	-12.8
-0.0038	-0.0023	0.0247	-0.0015	-12.8
-0.0143	-0.0015	0.0255	-0.0046	-12.7
-0.024	-0.0046	0.0307	-0.0038	-12.7
-0.0158	-0.0046	0.024	-0.003	-12.7
-0.0083	-0.0015	0.0187	-0.0046	-12.7
-0.0053	-0.0015	0.0052	-0.003	-12.7
0.0007	0	-0.0075	-0.0046	-12.7
-0.0091	0.0015	-0.0113	-0.003	-12.7
-0.0105	0.0007	-0.0165	-0.0015	-12.6
-0.0113	-0.0008	-0.0203	-0.0015	-12.6
-0.0091	0.0007	-0.024	-0.0008	-12.6
-0.0046	0.0007	-0.0188	-0.0015	-12.6
-0.0015	-0.0008	-0.0083	-0.003	-12.6
0.009	0.0052	-0.0046	-0.0015	-12.6
0.0052	0.0075	-0.0038	0	-12.6
0.0067	0.0045	-0.0008	-0.0008	-12.6
0.0082	0.0045	0.0067	0	-12.6
0.0052	0.003	0.012	-0.0008	-12.6
0.0037	-0.0015	0.0052	-0.0008	-12.6
0.0015	-0.0098	-0.012	-0.0008	-12.6
0.0045	-0.0165	-0.0218	-0.0015	-12.6
0.003	-0.0158	-0.0181	-0.0015	-12.6
0	-0.0068	-0.0143	-0.0008	-12.6
-0.003	0	-0.0068	-0.0008	-12.6
-0.0008	-0.0008	-0.003	-0.0008	-12.6
0.003	0.0007	-0.0015	-0.003	-12.6
0.0037	0.0015	0.0022	-0.0015	-12.6
0.0067	0.003	0.0007	-0.0008	-12.6
0.003	0.0045	0.003	-0.0015	-12.5
0.0007	0.0037	0.009	-0.0008	-12.5
-0.0008	0.0022	0.0135	-0.003	-12.5
-0.0091	0.0007	0.012	-0.003	-12.5
-0.0105	-0.0015	0.0052	-0.003	-12.5
-0.0068	-0.003	0.003	-0.0046	-12.5
0.0015	-0.0023	0	-0.003	-12.5
0.012	-0.003	-0.0023	-0.003	-12.5
0.0142	-0.003	-0.0068	-0.0023	-12.5
0.0105	-0.003	-0.0068	-0.0015	-12.5
0.0037	-0.003	-0.0008	-0.0015	-12.5
-0.0053	-0.003	-0.0008	-0.0008	-12.5
-0.012	-0.003	0.0067	0	-12.5
-0.0091	-0.0046	0.012	-0.0015	-12.5
-0.0091	-0.0046	0.0112	-0.0008	-12.5
-0.0083	-0.0008	0.0127	0.0015	-12.5
-0.0008	0.0007	0.0105	0.0007	-12.5
0.0045	0.0007	0.0097	0	-12.5
0.0097	0.0022	0.009	0.0007	-12.4
0.0105	0.0015	0.0135	0.0015	-12.4
0.0142	0.003	0.0165	0.0022	-12.4
0.0202	0.0052	0.0142	-0.0008	-12.4
0.0277	0.0022	0.0052	-0.003	-12.4
0.0255	-0.0008	-0.0075	-0.0038	-12.4
0.018	-0.0015	-0.0143	-0.0038	-12.4
0.009	-0.003	-0.0218	-0.0053	-12.4
-0.0165	-0.003	-0.0233	-0.0053	-12.4
-0.0308	-0.0015	-0.0195	-0.0023	-12.4
-0.0308	0.003	-0.0038	-0.0008	-12.3
-0.0368	0.003	0.0127	0	-12.3
-0.0383	0.0022	0.0307	0.0007	-12.3
-0.0293	0.0045	0.0427	0.0022	-12.3
-0.0233	0.003	0.0292	0.003	-12.3
-0.0203	0.0007	0.0105	0.0015	-12.3
-0.0113	0	-0.003	0.0015	-12.3
0.003	-0.0038	-0.0083	-0.0015	-12.3
0.0232	-0.006	0.0007	-0.0015	-12.3
0.0247	-0.0105	0.0082	0	-12.3
0.0157	-0.0128	0.0052	-0.0008	-12.2
0.0067	-0.012	0.003	-0.003	-12.2
0.0052	-0.0053	-0.003	-0.003	-12.2
0.0112	-0.0008	-0.0075	-0.003	-12.2
0.0127	-0.0008	-0.0083	-0.0023	-12.2
0.012	0.0045	-0.0128	-0.0015	-12.2
0.0112	0.0105	-0.0105	-0.0008	-12.2
0.0112	0.0195	0.0015	0.0015	-12.2
-0.003	0.0172	0.0127	0	-12.2
-0.0188	0.0045	0.012	-0.0008	-12.2
-0.0158	-0.0015	0.0045	-0.0015	-12.2
-0.0113	-0.0015	0.0007	-0.0015	-12.2
-0.0008	-0.003	-0.0068	-0.0015	-12.2
0.0082	-0.006	-0.0113	-0.003	-12.2
0.006	-0.0105	-0.0143	-0.003	-12.2
0.0082	-0.0165	-0.0105	-0.0046	-12.2
0.0067	-0.0218	-0.0023	-0.0046	-12.2
0.0097	-0.0181	0.0045	-0.0075	-12.1
0.027	-0.0091	0.0105	-0.0068	-12.1
0.0202	-0.0015	-0.0015	-0.0053	-12.1
-0.0015	-0.0015	-0.015	-0.0068	-12.1
-0.012	-0.0023	-0.021	-0.0038	-12.1
-0.0263	-0.0008	-0.021	-0.003	-12.1
-0.0368	0.0007	-0.0218	0.0022	-12.1
-0.0383	0.003	-0.0158	0.0037	-12.1
-0.0375	0.0007	-0.006	0.0022	-12.1
-0.0233	-0.0008	-0.0015	0.0015	-12.1
-0.0068	-0.0008	0.0067	0.0015	-12.1
0.0082	0.0007	0.0052	0.0015	-12.1
0.021	0.003	0.0097	0.0007	-12.1
0.0247	0.0015	0.0105	-0.0008	-12.1
0.0202	0	0.009	-0.0015	-12.1
0.0157	-0.0008	0.009	-0.0008	-12.1
0.0105	0.0022	-0.0046	-0.0008	-12.1
0.0045	0.0097	-0.0068	0	-12.1
0.0015	0.0157	-0.0038	0.0022	-12.1
0.0097	0.0165	-0.0008	0.0037	-12.1
0.012	0.012	0.0082	0.0015	-12
-0.0023	0.0052	0.0135	-0.0015	-12
-0.0068	0.0007	0.018	-0.0015	-12
-0.0075	-0.003	0.0165	-0.0015	-12
0.0007	-0.0105	0.0075	-0.003	-12
0.0112	-0.0195	0.0007	-0.0038	-12
0.0097	-0.0091	0.0022	-0.0008	-12
0.0135	0.0052	0.0082	-0.0008	-12
0.012	0.003	0.0157	-0.0023	-12
0.0015	-0.0008	0.0172	-0.0038	-12
-0.0098	-0.0015	0.0105	-0.003	-12
-0.0165	-0.0023	0.0082	-0.0038	-12
-0.015	-0.003	0.0082	-0.0046	-12
-0.0143	-0.0046	0.0067	-0.003	-12
-0.0068	-0.003	0.0007	-0.0046	-12
-0.0023	-0.0038	0	-0.0046	-12
-0.0008	-0.0008	-0.003	-0.0015	-12
0.0007	0.0015	-0.0083	-0.003	-12
0.0022	0.0015	-0.0083	-0.0015	-11.9
0.006	0.003	-0.0091	-0.0008	-11.9
0.0015	0.0015	-0.0105	-0.0015	-11.9
0.0015	0	-0.0105	-0.0008	-11.9
0.0015	-0.003	-0.0091	-0.0015	-11.9
-0.0015	-0.003	-0.0038	-0.0015	-11.9
-0.0023	-0.0008	-0.0008	-0.0015	-11.9
-0.0046	-0.003	-0.0008	-0.0015	-11.8
-0.0015	-0.0008	0.0007	-0.0008	-11.8
0.0052	0.0037	-0.0008	-0.0008	-11.8
0.009	0.006	-0.003	-0.0008	-11.8
0.009	0.0052	0.0007	0	-11.8
0.0075	0.0075	0.0052	-0.0008	-11.8
0.0007	0.0082	0.009	-0.0008	-11.8
-0.0075	0.0015	0.0127	-0.0008	-11.8
-0.0068	-0.0008	0.0112	-0.0015	-11.7
-0.0075	0.0015	0.0052	0	-11.7
-0.0083	0.0015	0.0007	-0.0015	-11.7
-0.0053	0.0022	0.0007	-0.0015	-11.7
-0.0038	0	-0.0015	-0.0046	-11.7
-0.0008	-0.0046	0.0015	-0.0046	-11.7
0.0015	-0.0023	0.0015	-0.0023	-11.7
0.0022	-0.0023	0.0007	-0.003	-11.7
0.003	-0.0053	0.009	-0.0038	-11.7
0.0067	-0.0091	0.0142	-0.003	-11.6
0.009	-0.0128	0.015	-0.0038	-11.6
0.0052	-0.0105	0.0097	-0.0023	-11.6
0.0015	-0.0053	0.0007	0.0007	-11.6
-0.003	-0.0023	-0.0053	0	-11.6
-0.0046	-0.003	-0.0083	-0.0008	-11.5
-0.0008	-0.0008	-0.0091	0.0015	-11.5
0.0045	0.0007	-0.0091	0.0007	-11.5
0.0045	-0.0008	-0.0083	0.0007	-11.5
0	0.003	-0.0068	-0.0008	-11.5
-0.0015	0.0045	-0.0091	-0.003	-11.4
-0.0075	0.0052	-0.0075	-0.0008	-11.4
-0.0158	0.0052	-0.0053	-0.0008	-11.4
-0.0181	0.003	-0.0046	-0.003	-11.4
-0.0248	0.0037	-0.0038	-0.003	-11.4
-0.0165	0.0022	-0.0015	-0.0023	-11.3
-0.0023	0.0007	0.003	-0.0023	-11.3
0.0082	-0.003	0.006	-0.003	-11.3
0.0165	-0.0053	0.0097	-0.003	-11.3
0.0165	-0.0053	0.009	-0.0023	-11.3
0.0172	-0.0015	0.0082	-0.0023	-11.3
0.0195	0.003	0.0135	0	-11.3
0.0255	0.0082	0.0157	0.0022	-11.3
0.0262	0.009	0.0142	0.0015	-11.3
0.015	-0.0015	0.0105	-0.0008	-11.3
-0.0053	-0.0068	0.0105	-0.0015	-11.2
-0.0195	-0.0083	0.0135	-0.0015	-11.2
-0.0181	-0.0105	0.0202	0	-11.2
-0.0135	-0.0113	0.0277	0.0007	-11.2
-0.0053	-0.0068	0.018	0.0015	-11.2
-0.0038	0.0022	0.0045	0.0015	-11.2
0.0007	0.0112	-0.0023	0	-11.2
0.0067	0.0142	-0.0105	-0.0015	-11.1
0.0045	0.012	-0.0158	-0.0015	-11.1
0.009	0.0142	-0.0195	0.0007	-11.1
0.0142	0.015	-0.0233	-0.0008	-11.1
0.009	0.0045	-0.0181	-0.003	-11.1
-0.0083	-0.0113	-0.0188	-0.0046	-11.1
-0.0181	-0.0256	-0.0225	-0.0053	-11.1
-0.0158	-0.03	-0.0181	-0.0046	-11.1
-0.0068	-0.0323	-0.0113	-0.0015	-11.1
0.0022	-0.0233	0	0	-11
-0.0053	-0.0075	0.003	-0.0008	-11
-0.0181	-0.0053	0.0082	0.0015	-11
-0.0165	-0.0023	0.0127	0.0022	-11
-0.0038	0.0052	0.0015	0.003	-11
0.0022	0.0067	0.003	0.0022	-11
-0.0008	0.0105	0.006	0.0015	-11
0.006	0.0097	0.0097	0.0022	-11
0.009	0.0112	0.0172	0.0022	-11
0.0082	0.0105	0.0142	0.003	-11
0.0082	0.006	0.0142	0.0007	-10.9
0.0045	-0.0008	0.0232	-0.0008	-10.9
0.009	-0.0098	0.0405	-0.0015	-10.9
0.009	-0.0008	0.048	-0.0038	-10.9
0.003	0.0015	0.042	-0.0053	-10.9
-0.0015	-0.003	0.021	-0.0068	-10.9
-0.0008	-0.0046	-0.0023	-0.0053	-10.9
0.0067	-0.0113	-0.0173	-0.0023	-10.9
0.0022	-0.006	-0.0256	-0.003	-10.9
-0.006	-0.0008	-0.0165	-0.0023	-10.9
-0.0091	0.003	-0.021	-0.003	-10.9
-0.0098	0.0067	-0.0338	-0.003	-10.9
-0.0083	0.0052	-0.033	-0.0023	-10.9
-0.0105	0.0037	-0.0315	-0.0023	-10.9
-0.0128	0.0037	-0.0315	0.0007	-10.9
-0.0128	0.0045	-0.0308	-0.0008	-10.9
-0.0128	0.0022	-0.0315	0	-10.9
-0.0128	0	-0.0263	0.0022	-10.9
-0.0075	-0.0008	-0.0188	0.0015	-10.9
0.0015	-0.0015	-0.0083	0.0015	-10.9
0.0097	-0.0015	0.0015	0.0007	-10.9
