File Name: 4Nmar.log
Channel 1: 'RF', 7522 values, engineering units: mV, no filters.
Channel 2: 'BF', 7522 values, engineering units: mV, no filters.
Channel 3: 'VM', 7522 values, engineering units: mV, no filters.
Channel 4: 'ST', 7522 values, engineering units: mV, no filters.
Channel 5: 'FX', 377 values, engineering units: deg, no filters, extrapolated from 50 to 1000 samples per second.

0.0015	0.0052	0.0075	-0.006	-46
0.0015	0.003	0.0052	-0.0053	-46
-0.003	0.0015	0.009	-0.0038	-46
-0.003	0.003	0.012	-0.003	-45.9
0	0.0045	0.0142	-0.0008	-45.9
0.0007	0.0015	0.0157	0	-45.9
0.0037	-0.0015	0.0067	-0.003	-45.9
0.003	0	-0.0008	-0.0008	-45.8
0.0015	-0.0015	-0.012	0.0007	-45.8
0.0007	-0.003	-0.0233	0.0007	-45.8
0.0015	-0.0038	-0.0248	0	-45.7
-0.003	-0.006	-0.0285	-0.0008	-45.7
-0.0053	-0.0053	-0.0256	-0.0008	-45.7
-0.0023	-0.0053	-0.0195	-0.0008	-45.6
-0.0015	-0.0053	-0.0105	0.0007	-45.6
0	-0.0046	-0.0053	0.0015	-45.5
-0.0015	-0.0046	-0.0015	0.0007	-45.5
-0.0046	-0.0038	0.0075	0.003	-45.5
-0.0015	0	0.0127	0.0045	-45.5
-0.0046	0.0007	0.0165	0.0045	-45.5
-0.0046	0.0007	0.0187	0.0045	-45.4
-0.0023	0.0022	0.0202	0.0015	-45.4
-0.0053	0.0037	0.0202	0.0007	-45.3
-0.0046	0.003	0.0142	-0.0008	-45.3
-0.0038	0.0022	0.0097	-0.0015	-45.2
-0.0008	0.0037	0.0045	-0.0015	-45.2
0.0007	0.0037	0.0015	-0.003	-45.2
0	0.0015	-0.0015	-0.003	-45.1
-0.003	0.0022	-0.0008	-0.003	-45.1
-0.0046	0	0.0007	-0.0023	-45
-0.0015	-0.0008	-0.0008	-0.0015	-45
-0.003	-0.0015	0.0007	-0.0015	-45
-0.0015	-0.003	0.0022	-0.0015	-44.9
-0.0046	-0.0023	0.0082	-0.0015	-44.9
-0.003	-0.0015	0.0082	-0.0008	-44.8
0	-0.003	0.0105	-0.0008	-44.8
-0.0015	-0.003	0.012	-0.0008	-44.8
-0.0008	-0.0023	0.0045	-0.0008	-44.7
-0.0046	-0.003	0.006	-0.0015	-44.7
-0.0053	-0.003	0.0067	-0.0008	-44.6
-0.003	-0.0038	0.0045	-0.0008	-44.6
-0.0053	-0.0053	-0.0008	0	-44.6
-0.0068	-0.0046	-0.0053	-0.0008	-44.5
-0.0068	-0.0015	-0.0083	-0.0008	-44.5
-0.0091	-0.0015	-0.0083	0.0015	-44.4
-0.0128	-0.0008	-0.0046	-0.0008	-44.3
-0.0135	0.0007	0.0007	-0.0008	-44.3
-0.0181	0.0007	0.0015	0	-44.2
-0.0195	-0.0008	0.003	-0.0008	-44.2
-0.0203	-0.0015	0.006	-0.0008	-44.1
-0.0263	-0.0015	0.0052	-0.003	-44.1
-0.0263	-0.0023	0.0075	-0.0015	-44
-0.0278	-0.0023	0.009	-0.0008	-44
-0.0315	-0.0023	0.0075	0	-43.9
-0.0346	-0.003	0.0082	0.0007	-43.9
-0.0375	-0.003	0.0052	-0.0008	-43.8
-0.039	-0.0008	0.0052	0.0007	-43.8
-0.0383	0.0007	0.0045	0	-43.7
-0.039	0.0007	0.0022	0	-43.7
-0.0383	0.0007	0.0052	0	-43.6
-0.0315	0.0015	0.0007	0.0022	-43.6
-0.0181	0.0015	0.0015	0.003	-43.5
0.0052	0.0015	0.0015	0.0007	-43.4
0.039	0.0007	-0.0008	0.0022	-43.4
0.066	0	0.0007	0.0022	-43.3
0.0825	-0.0015	-0.0053	0.003	-43.2
0.0907	-0.003	-0.0046	0.0037	-43.2
0.0885	-0.0008	-0.003	0.0022	-43.1
0.084	-0.0008	-0.0038	0.0015	-43
0.075	-0.0015	-0.0046	0.0015	-42.9
0.0675	0	-0.003	-0.0008	-42.9
0.0607	0	0.003	-0.0008	-42.8
0.054	-0.0008	0.0015	-0.0023	-42.8
0.0517	-0.0008	0.0015	-0.0046	-42.7
0.0427	-0.0015	-0.0015	-0.003	-42.6
0.039	-0.0015	-0.0008	-0.0023	-42.5
0.0405	-0.0008	0.003	-0.0015	-42.5
0.0345	0.0007	-0.0008	-0.0023	-42.4
0.039	0.0015	0.003	-0.0015	-42.3
0.0367	0.0007	0	-0.0015	-42.3
0.0382	0	-0.0015	-0.0008	-42.2
0.0405	0.0015	-0.0023	-0.0008	-42.1
0.0345	0.0007	-0.006	-0.0023	-42
0.0345	0.0007	-0.0068	0.0007	-41.9
0.0255	-0.0008	-0.0105	-0.0008	-41.9
0.018	-0.0008	-0.0105	-0.0008	-41.8
0.0097	0.0007	-0.0128	0	-41.7
0.0007	0	-0.012	0	-41.6
-0.0023	0	-0.0075	-0.0008	-41.5
-0.0113	-0.0015	-0.0015	0.0015	-41.4
-0.0181	-0.0015	0.003	0.003	-41.3
-0.0285	0.0007	0.0015	0.0007	-41.2
-0.042	-0.0015	0.0007	-0.0015	-41.1
-0.0473	-0.003	0.0007	-0.0046	-41
-0.0563	-0.0038	0.0015	-0.0038	-41
-0.06	-0.003	0.0007	-0.0015	-40.9
-0.0593	-0.0023	0.0007	-0.0015	-40.8
-0.0593	-0.0038	0.0045	-0.0008	-40.7
-0.0518	-0.0053	0.0052	-0.0023	-40.6
-0.042	-0.0053	0.0082	-0.0015	-40.5
-0.0308	-0.0038	0.006	0	-40.4
-0.015	-0.0038	0.0067	0.0007	-40.3
0	-0.0023	0.0067	0.0022	-40.2
0.0217	-0.0008	0.0082	0.003	-40.1
0.0457	-0.0023	0.0105	0.0007	-40
0.0682	-0.0008	0.0075	-0.0015	-39.8
0.09	-0.0008	0.006	-0.0023	-39.7
0.0967	-0.0008	0.0052	-0.0008	-39.6
0.0915	-0.0015	0.006	0.0015	-39.5
0.0765	-0.0008	0.0052	0.0015	-39.4
0.0517	0.0015	0.003	-0.0008	-39.2
0.024	0	0.0007	-0.0008	-39.1
-0.0098	0	0.0007	-0.0008	-39
-0.0353	-0.0015	0.003	0.0007	-38.9
-0.0533	-0.0068	0.0015	-0.0008	-38.8
-0.0706	-0.0068	0.0045	-0.0008	-38.7
-0.078	-0.0046	0.0052	0.0015	-38.5
-0.0893	-0.0053	0.0045	0.0007	-38.4
-0.0938	-0.003	0.0045	0.0007	-38.3
-0.0893	-0.003	0.0045	0.0007	-38.2
-0.0833	-0.0023	0.0067	0	-38.1
-0.0765	0.0015	0.006	-0.0008	-37.9
-0.0735	0	0.0052	-0.0015	-37.8
-0.0683	-0.0015	0.009	-0.0008	-37.6
-0.0653	0.0015	0.0105	-0.0008	-37.5
-0.0593	0.0045	0.012	0.0007	-37.3
-0.0495	0.0045	0.0127	0.0007	-37.2
-0.0458	0.003	0.012	-0.0015	-37
-0.0361	-0.0008	0.0097	-0.0038	-36.9
-0.0323	-0.0046	-0.0008	-0.0053	-36.7
-0.0308	-0.0046	-0.0038	-0.003	-36.5
-0.024	-0.0008	-0.0023	0.0007	-36.4
-0.0233	0.0067	-0.0023	0.003	-36.3
-0.0181	0.0082	0.0015	0.0022	-36.1
-0.012	0.003	0.0022	0.0007	-36
-0.0091	0.0015	0.0045	-0.003	-35.8
-0.0038	-0.0015	0.0045	-0.0068	-35.6
-0.0023	-0.0023	0.0045	-0.0075	-35.5
0	0.003	0.0067	-0.0023	-35.4
0.0007	0.0045	0.0045	-0.0008	-35.2
0.0015	0.0052	0.0045	0	-35.1
0.003	0.0045	0.009	0.0007	-34.9
0.003	0.0045	0.0165	0.0007	-34.7
0.0082	0.003	0.0157	0.0007	-34.5
0.0082	0.0015	0.0105	0.0015	-34.4
0.012	0.0045	0.0045	-0.0008	-34.2
0.0165	0.003	-0.0075	-0.0008	-34
0.018	0.0015	-0.012	0.0007	-33.8
0.0217	0.0007	-0.0181	0.0015	-33.7
0.0202	0	-0.0181	0.0022	-33.5
0.0157	0.0015	-0.012	0.0007	-33.3
0.009	0.0015	-0.0113	-0.0008	-33.2
-0.0008	0.0015	-0.0053	0.0007	-33
-0.0015	0.0007	-0.0008	0.0007	-32.8
0.0097	-0.0023	0.003	0.0007	-32.6
0.0225	-0.006	0.0007	-0.0023	-32.4
0.0307	-0.0038	0.003	-0.0053	-32.3
0.0315	-0.003	0.0097	-0.0053	-32.1
0.0247	0.0007	0.0082	-0.003	-32
0.015	0.006	0.0082	0	-31.8
0.009	0.0082	0.0082	0.0007	-31.6
0.0007	0.009	0.0067	0.0015	-31.4
-0.0046	0.0052	0.0052	0.0022	-31.2
-0.0038	0.0007	0.0037	0.0015	-31
-0.0053	-0.0105	0.0052	-0.0023	-30.8
-0.0015	-0.012	0.0045	-0.0015	-30.6
0	-0.0068	0.0045	-0.0008	-30.3
0.0052	-0.0053	0.003	-0.0023	-30.2
0.009	-0.0015	0.0037	-0.0023	-29.9
0.0075	-0.0015	0.0097	-0.0015	-29.7
0.006	-0.0008	0.0217	-0.0008	-29.5
-0.0015	0.0015	0.0315	0	-29.3
0.0007	0.0007	0.0232	0.0007	-29.1
0.0067	-0.0015	0.009	0.0015	-28.9
0.0075	-0.0008	-0.0098	0.0007	-28.7
0.0105	0.0015	-0.0263	0.0022	-28.5
0.0037	-0.0015	-0.0353	0.0015	-28.3
0.003	-0.003	-0.0405	0	-28.1
0.0052	-0.0046	-0.0368	0.0007	-27.9
0.006	-0.003	-0.0315	0.0015	-27.7
0.0105	-0.0015	-0.0195	0.003	-27.5
0.0045	0.0015	-0.0128	0.003	-27.2
0.0045	0.0015	-0.0083	0.0037	-27
0.0037	0.0015	-0.003	0.0007	-26.8
-0.0015	0.0022	0.0007	-0.0008	-26.6
0.0037	-0.0015	0.0015	-0.0015	-26.3
0.0045	-0.0015	-0.006	-0.0091	-26.1
0.0037	-0.003	-0.0068	-0.0068	-25.9
0.0045	-0.0008	-0.0098	-0.0038	-25.7
0	0.0007	-0.0091	-0.0015	-25.5
-0.0008	0.0022	0.0007	0.0015	-25.2
-0.0008	0.003	0.0067	-0.0008	-25
-0.0015	0.0022	0.0097	0.0022	-24.8
0.0037	0.0007	0.0022	-0.0008	-24.6
0.006	-0.0008	-0.003	-0.0015	-24.3
0.009	-0.0008	-0.0068	0	-24.1
0.0105	-0.0008	-0.0053	-0.0008	-23.9
0.0112	-0.003	0.0015	0.003	-23.7
0.0082	-0.003	0.0067	0.0037	-23.5
0.0045	0.0015	0.0142	0.0037	-23.3
0.0052	0.003	0.0127	0.003	-23
0.0015	0.0037	0.0195	0.003	-22.8
0.0007	0.0075	0.0232	0.0022	-22.6
0.0007	0.003	0.0247	0	-22.3
-0.003	-0.0075	0.0285	-0.0008	-22.1
-0.0046	-0.0143	0.0202	-0.003	-21.9
-0.0068	-0.0113	0.0157	-0.0038	-21.6
-0.0053	-0.003	0.0045	-0.0083	-21.4
-0.0046	-0.0038	-0.0008	-0.0083	-21.2
-0.006	0.006	-0.003	-0.0068	-20.9
-0.0046	0.0127	-0.0143	-0.0046	-20.7
-0.0113	0.009	-0.0181	-0.0008	-20.4
-0.0165	0.0052	-0.0203	0	-20.2
-0.0165	0.0037	-0.0143	0.0022	-20
-0.0068	0.0037	-0.0083	0.0015	-19.8
0.0037	0.0007	-0.0075	0.0007	-19.5
0.0142	0.0015	-0.0053	-0.0008	-19.3
0.0262	0.0015	-0.0046	-0.0008	-19
0.0262	0.003	0.0007	0.0007	-18.8
0.0232	0.0075	0.0007	0.0015	-18.5
0.0142	0.0052	0.0052	0.0045	-18.3
0.0015	0.0052	0.018	0.0037	-18.1
-0.0053	0.0007	0.0277	0.0052	-17.8
-0.015	-0.0046	0.0307	0.0045	-17.6
-0.0165	-0.0091	0.0352	0.0045	-17.4
-0.015	-0.0083	0.0367	0.0052	-17.1
-0.012	-0.0046	0.0262	0.0007	-16.9
-0.003	-0.003	0.0127	0.003	-16.7
-0.0015	0.0007	-0.0083	0.0037	-16.4
0.0015	0.0037	-0.027	0.0007	-16.2
0.0052	0.0082	-0.0383	-0.0015	-15.9
0.0045	0.0105	-0.042	-0.0008	-15.7
0.006	0.0082	-0.0315	-0.0008	-15.4
0.0067	0.003	-0.0068	-0.0046	-15.2
0.0052	-0.0068	0.0517	-0.006	-15
0.0007	-0.0195	0.078	-0.0098	-14.7
-0.0053	-0.027	0.063	-0.0091	-14.5
-0.0128	-0.0225	0.0442	-0.0053	-14.3
-0.0158	-0.0128	-0.003	-0.003	-14
-0.0143	-0.0023	-0.039	0.0015	-13.8
-0.0143	0.012	-0.0638	0.0075	-13.5
-0.0091	0.024	-0.0675	0.0082	-13.3
-0.0015	0.0217	-0.048	0.0067	-13.1
0.0022	0.003	-0.0285	0.0045	-12.9
0.0052	-0.0083	0.0007	0.0052	-12.7
0.0082	-0.0083	0.0157	0.0045	-12.5
0.006	-0.0091	0.0367	-0.0008	-12.3
0.0067	-0.0068	0.051	-0.0015	-12.1
0.0097	0.0022	0.0457	-0.0038	-11.8
0.0052	0.012	0.0352	-0.0068	-11.7
0.003	0.0067	0.0142	-0.0083	-11.4
-0.0015	0.0037	0.0067	-0.0038	-11.2
-0.0091	0.0067	-0.0008	0	-11
-0.012	-0.0046	0.003	-0.0038	-10.8
-0.012	-0.0165	0.0105	-0.006	-10.6
-0.0053	-0.027	0.0247	-0.006	-10.4
-0.003	-0.0203	0.0517	-0.0046	-10.2
-0.0008	-0.0038	0.0532	-0.0008	-9.9
0.0007	0.0022	0.0427	0.0015	-9.7
0.003	0.009	0.027	0.0037	-9.5
0.006	0.0127	0.0082	0.0037	-9.3
0.006	0.0022	0.0202	0.006	-9.1
0.0105	-0.0053	0.027	0.0045	-9
0.0105	0.0015	0.0067	-0.0015	-8.8
0.0015	0.0045	-0.0098	-0.0008	-8.6
-0.0046	0.0075	-0.0436	0.0015	-8.5
-0.0053	0.0187	-0.0653	0.0007	-8.3
-0.0046	0.0142	-0.078	-0.0008	-8.1
-0.0046	0.0007	-0.0765	-0.003	-8
-0.0023	0.0045	-0.0458	0.0007	-7.8
-0.0046	0.012	-0.0233	0.0022	-7.7
-0.0053	0.0037	0.0007	-0.0008	-7.5
-0.006	-0.0068	0.0037	-0.0008	-7.3
-0.0068	-0.0068	0.018	0.003	-7.2
-0.0068	-0.0068	0.048	0.0045	-7
-0.0083	-0.0083	0.087	0.0037	-6.8
-0.0068	0.0052	0.1042	0.0045	-6.7
-0.003	0.0217	0.063	0.0067	-6.5
-0.006	0.027	0.0232	0.0082	-6.3
-0.012	0.0165	-0.0383	0.0007	-6.2
-0.012	0.0007	-0.0758	-0.006	-6
-0.0083	-0.0128	-0.0833	-0.0068	-5.9
0.0045	-0.0256	-0.0728	-0.0165	-5.7
0.0157	-0.0218	-0.0353	-0.0165	-5.6
0.021	-0.0091	-0.0068	0.003	-5.5
0.0277	0.0045	0.021	0.0367	-5.4
0.0277	0.0052	0.0217	0.057	-5.2
0.0247	-0.0053	0.0217	-0.0023	-5.1
0.018	-0.0105	0.0007	-0.057	-5
0.0082	-0.0143	-0.0315	-0.039	-4.8
-0.003	0.0022	-0.0405	-0.0308	-4.7
-0.0135	0.0232	-0.0645	-0.0091	-4.6
-0.0135	0.0292	-0.0593	0.003	-4.5
-0.0091	0.0352	-0.0503	-0.0015	-4.3
-0.0068	0.0232	-0.0285	-0.003	-4.2
-0.003	-0.0113	0.0007	-0.021	-4.1
-0.0038	-0.0405	0.012	-0.0256	-3.9
-0.0053	-0.0338	0.0375	-0.0023	-3.8
-0.006	-0.0143	0.0412	0.0502	-3.7
-0.0038	-0.0105	0.042	0.0615	-3.6
0.0015	-0.0053	0.0315	0.054	-3.4
-0.0015	-0.0158	0.0202	0.0457	-3.4
-0.0053	-0.024	0.0217	0.0277	-3.3
-0.0068	-0.0008	0.012	0.033	-3.2
-0.0105	0.024	0.0097	0.0142	-3.2
-0.0068	0.0307	0.0007	-0.0098	-3.1
-0.0008	0.0315	-0.0015	-0.0691	-3
0.0067	0.039	0.003	-0.15	-3
0.0097	0.0457	0.003	-0.1088	-2.9
0.0067	0.0225	0.0112	-0.0023	-2.8
0.0015	-0.0128	0.012	0.0075	-2.7
-0.006	-0.0346	0.0097	-0.0083	-2.7
-0.0083	-0.0368	0.003	0.0022	-2.7
-0.0083	-0.0143	0.006	0.0045	-2.6
-0.012	0.0075	0.0187	0.0165	-2.5
-0.012	0.0217	0.033	0.0082	-2.4
-0.012	0.0217	0.0405	-0.0008	-2.4
-0.0128	0.0082	0.0322	-0.0128	-2.3
-0.0075	0.0127	0.0292	-0.003	-2.3
-0.0083	0.0397	0.0442	0.0577	-2.2
-0.0053	0.045	0.0787	0.063	-2.1
-0.0015	0.0045	0.075	-0.0083	-2.1
-0.0008	-0.0225	0.0345	-0.0525	-2.1
0.0045	-0.0248	-0.021	-0.0353	-2.1
0.0067	-0.048	-0.0848	0.0007	-2.1
0.0045	-0.0585	-0.1268	-0.0105	-2.1
0.0015	-0.078	-0.156	0.0045	-2.1
-0.003	-0.1125	-0.1485	0.0742	-2.1
-0.0068	-0.12	-0.1043	0.0937	-2.1
-0.0008	-0.105	-0.0555	0.0855	-2.1
-0.0068	-0.0518	-0.003	0.09	-2.1
-0.021	0.0382	0.0382	0.1095	-2.1
-0.0218	0.1245	0.057	0.1042	-2.1
-0.0233	0.1755	0.0592	0.0442	-2.1
-0.0143	0.126	0.0525	-0.0293	-2.1
-0.003	-0.0256	0.0345	-0.0825	-2.1
0.0015	-0.1043	0.0157	-0.1155	-2.1
0.0105	-0.099	0.0082	-0.159	-2.1
0.0135	-0.039	0.0082	-0.2385	-2.1
0.0195	0.1035	0.0105	-0.231	-2.1
0.024	0.2272	0.0112	-0.0833	-2.1
0.0135	0.2805	0.0217	0.0292	-2.1
-0.003	0.2017	0.042	0.1125	-2.2
-0.0091	0.081	0.0555	0.165	-2.2
-0.0128	0.012	0.0517	0.1612	-2.3
-0.015	-0.054	0.0375	0.1552	-2.3
-0.0128	-0.0728	0.0277	0.0862	-2.3
-0.0083	-0.0773	0.0465	0.0255	-2.4
0.0045	-0.0803	0.075	-0.0165	-2.4
0.0157	-0.0818	0.0727	-0.0713	-2.5
0.0142	-0.0825	0.051	-0.0721	-2.5
-0.0015	-0.0615	0.0045	-0.0308	-2.6
-0.0105	-0.042	-0.0488	0.0682	-2.6
-0.0143	-0.0263	-0.0728	0.0967	-2.7
-0.0188	-0.0263	-0.0885	-0.0158	-2.7
-0.0008	-0.0218	-0.0818	-0.1118	-2.7
0.0165	-0.0248	-0.0706	-0.1478	-2.8
0.0262	-0.0203	-0.063	-0.1785	-2.8
0.0277	0.0022	-0.0405	-0.1823	-2.9
0.0127	0.024	-0.0315	-0.0683	-2.9
-0.0046	0.03	-0.027	0.1132	-3
-0.0285	-0.006	-0.0158	0.24	-3.1
-0.0518	-0.0398	0.009	0.2535	-3.1
-0.0623	-0.081	0.0405	0.165	-3.2
-0.063	-0.1305	0.0547	0.0847	-3.3
-0.0548	-0.129	0.0645	-0.0915	-3.4
-0.0353	-0.0893	0.069	-0.2806	-3.4
0.003	-0.0173	0.057	-0.1643	-3.5
0.0532	-0.0165	0.045	-0.0428	-3.6
0.087	-0.105	0.0322	-0.012	-3.6
0.0885	-0.1298	0.0232	-0.0398	-3.7
0.0667	-0.1095	0.0292	-0.1838	-3.8
0.0352	-0.0046	0.0585	-0.1853	-3.9
0.03	0.1672	0.075	-0.099	-4
0.0607	0.3195	0.048	0.1477	-4.1
0.0892	0.3817	0.0127	0.2497	-4.1
0.0885	0.3037	-0.0405	0.1177	-4.2
0.0562	0.1972	-0.081	0.1087	-4.3
0.012	0.06	-0.0848	0.0465	-4.4
-0.0323	-0.0233	-0.0638	-0.0128	-4.4
-0.0668	-0.0436	-0.0361	-0.0203	-4.5
-0.0818	-0.0615	-0.0256	-0.0173	-4.5
-0.084	-0.0518	0.003	0.0157	-4.6
-0.0758	-0.0511	0.0105	0.0555	-4.6
-0.0563	-0.0248	-0.0015	0.1927	-4.7
-0.0338	0	0.0127	0.2122	-4.7
-0.0098	-0.0038	0.045	0.0165	-4.8
0.0105	-0.0308	0.063	-0.0405	-4.8
0.0225	-0.0548	0.0405	-0.0143	-4.9
0.0255	-0.0765	0.0142	-0.0503	-4.9
0.0052	-0.0893	-0.0315	-0.0308	-5
-0.0195	-0.0653	-0.0743	-0.0436	-5
-0.0315	-0.057	-0.0848	-0.0615	-5
-0.0308	-0.0653	-0.0863	-0.0706	-5
-0.0256	-0.105	-0.0503	-0.0728	-5.1
-0.0128	-0.1463	0.0097	-0.105	-5.1
0.0037	-0.1448	0.0675	-0.147	-5.2
0.0112	-0.1275	0.075	-0.105	-5.2
0.0157	-0.1043	0.027	-0.0803	-5.3
0.0195	-0.0578	-0.0368	-0.0353	-5.3
0.0225	0.0427	-0.093	-0.0218	-5.4
0.0232	0.1522	-0.1193	-0.033	-5.4
0.0127	0.2197	-0.1028	0.0982	-5.3
-0.0075	0.294	-0.0615	0.2445	-5.3
-0.027	0.3165	-0.0225	0.2212	-5.2
-0.039	0.237	0.0255	0.1492	-5.1
-0.045	0.1162	0.075	0.0772	-5.1
-0.0315	-0.0068	0.114	-0.0368	-5
-0.0098	-0.0706	0.141	-0.0285	-5
0.0165	-0.0953	0.129	0.0675	-5
0.0427	-0.1073	0.0817	0.0645	-4.9
0.0585	-0.1035	0.018	-0.0068	-4.8
0.0682	-0.0893	-0.0488	-0.042	-4.8
0.045	-0.0555	-0.0915	-0.0361	-4.7
0.0195	-0.0443	-0.1215	-0.0218	-4.7
0.009	-0.0608	-0.1253	-0.0825	-4.6
-0.0098	-0.1073	-0.0938	-0.0871	-4.6
-0.0181	-0.1365	-0.0638	-0.0353	-4.5
-0.0278	-0.093	-0.0195	-0.1013	-4.5
-0.0293	-0.0225	0.0225	-0.123	-4.4
-0.0248	0.0127	0.0517	-0.1598	-4.4
-0.0218	0.0015	0.0712	-0.1411	-4.4
-0.0068	-0.0015	0.0742	-0.0278	-4.4
0	0.012	0.0765	-0.0165	-4.4
0.012	-0.003	0.0675	0.1627	-4.4
0.0217	-0.0436	0.0517	0.2932	-4.5
0.0262	-0.0465	0.0277	0.015	-4.5
0.0277	-0.012	-0.0015	-0.2783	-4.5
0.0105	0.0577	-0.0098	-0.2438	-4.5
0.003	0.1522	-0.0046	-0.0083	-4.5
0.0007	0.207	0.0045	0.1605	-4.6
-0.0068	0.2107	0.0082	0.1312	-4.6
-0.0046	0.1567	0.0157	0.1117	-4.6
-0.0091	0.0877	0.0232	0.1432	-4.7
-0.0068	0.0322	0.0225	0.0697	-4.7
-0.0053	0	0.021	0.006	-4.7
-0.006	-0.0405	0.009	-0.0503	-4.8
-0.0046	-0.066	0.0007	-0.0413	-4.8
-0.0075	-0.0503	-0.0068	0.0615	-4.8
0	-0.0428	-0.0181	0.099	-4.8
0.0015	-0.0495	-0.0181	0.0255	-4.9
0.0015	-0.0653	-0.0105	-0.0158	-5
0.0015	-0.0765	0.0052	0.0315	-5.2
-0.0091	-0.0953	0.006	0.0495	-5.3
-0.0105	-0.0878	0.0045	0.0345	-5.4
-0.0113	-0.0563	0.0075	0.0307	-5.6
-0.0173	-0.033	0.0052	0.0307	-5.8
-0.027	-0.0181	0.012	0.003	-5.9
-0.0488	-0.0181	0.0112	0.0007	-6
-0.0473	-0.015	0.0105	-0.015	-6.2
-0.0315	-0.0143	0.0142	-0.0293	-6.3
-0.0158	-0.0128	0.0142	-0.0293	-6.5
0.0165	-0.0098	0.0165	-0.075	-6.6
0.0532	-0.0068	0.0052	-0.1605	-6.8
0.0862	-0.0015	-0.0173	-0.237	-6.9
0.1042	-0.0105	-0.0323	-0.1493	-7.1
0.0975	-0.0203	-0.0405	-0.048	-7.2
0.0562	-0.0203	-0.0443	-0.006	-7.3
0.0015	-0.0098	-0.0533	0.0315	-7.5
-0.033	0.0127	-0.0638	0.0195	-7.7
-0.0593	0.033	-0.0735	0.057	-7.8
-0.0721	0.0457	-0.0773	0.093	-7.9
-0.0721	0.066	-0.0683	0.1515	-8.1
-0.0593	0.075	-0.0555	0.144	-8.2
-0.0323	0.057	-0.0413	0.0225	-8.3
-0.0128	0.0442	-0.0315	0.0292	-8.5
0.0007	0.0345	-0.0128	0.066	-8.6
0.0127	0.0157	0.0075	0.0367	-8.8
0.018	0.0052	0.0195	-0.0038	-8.9
0.0165	0.0045	0.0322	-0.0218	-9
0.0127	0.003	0.0352	-0.0375	-9.2
0.0082	0.0067	0.0315	-0.06	-9.3
0.003	0.0082	0.021	-0.0488	-9.5
-0.0015	0	0.006	-0.0181	-9.6
-0.0083	0.0082	0.003	0.009	-9.7
-0.0083	0.0165	0.0082	0.0285	-9.9
0.0037	0.0015	0	0.0232	-10
0.0067	-0.0203	-0.0098	0.0105	-10.2
0.0022	-0.027	-0.0015	0.021	-10.3
-0.0068	-0.0398	0.018	0.021	-10.4
-0.0098	-0.0653	0.0562	0.0255	-10.6
-0.0113	-0.0615	0.1005	0.0277	-10.6
-0.0098	-0.027	0.105	-0.0091	-10.7
-0.015	0.0165	0.0795	-0.1006	-10.8
-0.0323	0.045	0.0615	-0.1335	-10.8
-0.0346	0.0772	0.0315	-0.0825	-10.9
-0.024	0.0915	-0.0091	-0.075	-11
-0.0083	0.0712	-0.0361	-0.0278	-11
0.0052	0.027	-0.0383	-0.0181	-11.1
0.0082	0.0105	-0.0173	-0.081	-11.2
0.018	0.018	0.0442	-0.0368	-11.3
0.03	-0.0083	0.1125	-0.0158	-11.3
0.0367	0.0097	0.1455	-0.0278	-11.3
0.0367	0.0165	0.1627	-0.0128	-11.4
0.006	-0.012	0.096	-0.0375	-11.5
-0.0353	-0.012	0.009	-0.024	-11.6
-0.0706	-0.0203	-0.054	0.0007	-11.6
-0.1028	-0.003	-0.111	0.0742	-11.7
-0.1021	0.0142	-0.1013	0.1635	-11.7
-0.0555	0.0045	-0.0818	0.1215	-11.8
0.0112	-0.012	-0.039	0.1065	-11.9
0.0592	-0.0165	0.0007	0.1492	-11.9
0.0877	-0.012	0.0157	0.1237	-11.8
0.0982	-0.015	0.0315	0.06	-11.8
0.0637	-0.0218	0.0382	0.0255	-11.8
0.0165	-0.0293	0.0457	-0.0256	-11.7
-0.0008	-0.0113	0.0285	-0.1095	-11.7
0.0127	0.0045	0.0105	-0.0938	-11.7
0.0352	0.015	-0.012	-0.0368	-11.7
0.066	0.0142	-0.021	-0.0248	-11.6
0.1042	0.009	-0.0128	-0.0353	-11.6
0.0952	0.0082	-0.0083	-0.0518	-11.6
0.0495	-0.0315	0.0015	-0.0315	-11.5
0.0052	-0.0698	0.0045	-0.0225	-11.5
-0.0405	-0.0743	0.0157	-0.0458	-11.5
-0.057	-0.0405	0.0232	-0.0443	-11.4
-0.0691	-0.0143	0.0015	-0.0375	-11.4
-0.0788	-0.0105	-0.0173	-0.0053	-11.3
-0.0721	-0.003	-0.0248	0.0622	-11.3
-0.054	-0.0015	-0.0225	0.1042	-11.3
-0.0256	0.0015	-0.0105	0.0832	-11.3
-0.012	-0.0008	-0.0128	0.0442	-11.2
-0.0053	0.0015	-0.0165	0.0217	-11.2
-0.0015	0.0007	-0.0263	0.006	-11.1
-0.0075	-0.0023	-0.0293	0.012	-11.1
-0.0128	-0.0053	-0.0293	-0.0098	-11
-0.0165	-0.0053	-0.0353	-0.0278	-11
-0.0143	-0.0046	-0.0285	0.0105	-10.9
-0.0158	-0.0083	-0.0338	0.0247	-10.9
-0.0203	-0.0023	-0.0263	0.0097	-10.8
-0.0195	0.0022	-0.0225	-0.0165	-10.8
-0.0158	-0.0053	-0.0181	-0.0863	-10.7
-0.0083	-0.0428	-0.0068	-0.1538	-10.7
0.0015	-0.0593	-0.0128	-0.189	-10.6
0.0067	-0.0188	-0.012	-0.189	-10.6
0.0067	0.006	-0.0023	-0.1441	-10.5
0.0067	0.0165	0.0195	0.0082	-10.5
0.0067	0.0442	0.0232	0.18	-10.4
0.0052	0.0675	0.0165	0.195	-10.4
0.0052	0.087	0.0052	0.1425	-10.4
0.006	0.087	-0.021	0.1132	-10.3
0.0052	0.0382	-0.0158	0.0517	-10.3
0.009	0.0015	-0.0023	0.0225	-10.3
0.0127	-0.0053	0.0105	0.012	-10.3
0.012	-0.0158	0.0142	-0.0083	-10.2
0.0127	-0.0105	-0.0023	0.0037	-10.2
0.021	-0.0105	-0.0233	-0.0105	-10.2
0.0232	-0.0143	-0.0428	-0.0015	-10.2
0.0165	-0.0143	-0.0465	-0.0023	-10.2
0.0037	-0.0128	-0.021	-0.0083	-10.1
-0.0105	0.0067	0.018	-0.0008	-10.1
-0.0135	0.0105	0.0457	-0.015	-10.1
-0.0143	-0.0083	0.0907	0.0045	-10.1
-0.0068	-0.0158	0.1305	0.0307	-10.1
0.0067	-0.0098	0.1072	0.0277	-10
0.0142	-0.0173	0.042	0.0015	-10
0.0307	-0.0165	-0.039	-0.0308	-10
0.0472	-0.0105	-0.1215	-0.0548	-10
0.0502	-0.006	-0.186	-0.0503	-10
0.0225	-0.0015	-0.198	-0.0368	-9.9
-0.0068	0.006	-0.1575	-0.0068	-9.9
-0.0233	0.0292	-0.09	0.0645	-9.9
-0.0428	0.0345	-0.0203	0.1042	-9.9
-0.0353	0.0127	0.0187	0.0465	-9.9
-0.0263	-0.0128	0.063	-0.0068	-9.9
-0.0143	-0.0203	0.0915	-0.03	-10
-0.0015	-0.012	0.0997	-0.0773	-10
-0.0143	0.0022	0.1005	-0.042	-10
-0.0248	0.012	0.072	0.0052	-10
-0.039	0.0217	0.0705	0.0105	-10
-0.042	0.036	0.063	0.0232	-10
-0.0383	0.0285	0.0517	0.0067	-10
-0.0195	-0.0008	0.042	-0.0218	-10.1
0.0165	-0.0143	0.0172	-0.0218	-10.1
0.039	0.0022	0.009	-0.0173	-10.1
0.0607	0.0165	0.0015	-0.0293	-10.1
0.0592	0.015	0.0037	-0.0248	-10.1
0.0495	-0.0046	0.0052	-0.0398	-10.1
0.0352	-0.0158	0.0067	-0.042	-10.1
0.0157	-0.006	0.0142	-0.0225	-10.2
0.0097	0.012	0.018	-0.0165	-10.2
-0.0075	0.0217	0.024	-0.0105	-10.2
-0.0203	0.0165	0.0195	0.0067	-10.2
-0.027	0.03	0.0082	0.0847	-10.2
-0.0315	0.0255	-0.0015	0.117	-10.2
-0.0293	-0.021	-0.0098	0.066	-10.2
-0.024	-0.0795	-0.0128	0.0502	-10.2
-0.0135	-0.1208	-0.0091	0.0007	-10.2
-0.006	-0.0818	-0.0008	-0.0653	-10.2
0	-0.0353	0.0127	-0.0495	-10.2
0.003	-0.024	0.045	-0.0518	-10.2
-0.0015	0.0022	0.0855	-0.0368	-10.2
-0.0165	0.0127	0.0975	-0.0135	-10.2
-0.0465	0.0247	0.1065	0.0067	-10.2
-0.0525	0.024	0.084	0.033	-10.2
-0.0293	0.0142	-0.003	0.0232	-10.3
0.0037	0.0142	-0.0765	0.0375	-10.3
0.0405	0.0082	-0.1598	0.0232	-10.3
0.0465	0.003	-0.1988	0.0045	-10.3
0.0397	-0.0083	-0.1763	0.0007	-10.3
0.03	-0.0203	-0.1118	0.0015	-10.3
0.018	-0.024	-0.0203	0.0067	-10.3
0.0105	-0.0278	0.0307	-0.0105	-10.3
-0.012	-0.0338	0.0787	-0.0285	-10.3
-0.0068	-0.0181	0.0735	-0.0863	-10.2
0.0052	0.003	0.063	-0.111	-10.2
0.0082	0.0195	0.0525	-0.0375	-10.2
0.0307	0.0315	0.0202	0.0015	-10.2
0.0367	0.0637	0.027	0.033	-10.2
0.0375	0.1147	0.0195	0.0705	-10.1
0.0277	0.0787	0.036	0.057	-10.1
-0.003	0.0082	0.0495	0.0472	-10.1
-0.0248	-0.0008	0.0607	0.0217	-10.1
-0.0398	-0.0105	0.0817	0.0202	-10.1
-0.0555	-0.012	0.0615	0.0187	-10
-0.0706	-0.0113	0.0465	0.003	-10
-0.0698	-0.0233	-0.0046	-0.0038	-10
-0.0563	-0.0195	-0.0608	-0.0105	-10
-0.0346	-0.0218	-0.1155	0.0052	-10
-0.0068	-0.0165	-0.159	0.003	-9.9
0.009	-0.015	-0.1328	-0.021	-9.9
0.0202	-0.0143	-0.093	-0.0788	-9.9
0.0247	-0.0105	-0.0256	-0.0645	-9.9
0.0217	-0.0023	0.0165	-0.0113	-9.9
0.0195	0.0232	0.0315	-0.0233	-9.9
0.0112	0.0307	0.0502	0.0052	-9.8
0.0097	0.018	0.0427	0.0082	-9.8
0.0097	-0.0046	0.048	0.0127	-9.8
0.006	-0.0308	0.0412	0.027	-9.8
0.0067	-0.0458	0.039	0.0127	-9.7
0.0052	-0.0465	0.039	0.0255	-9.7
0.0082	-0.0398	0.0345	0.0165	-9.7
0.0127	-0.0346	0.042	0.015	-9.6
0.012	-0.0188	0.03	0.0052	-9.6
0.0105	-0.0083	0.0315	-0.0188	-9.6
0.0067	-0.0091	0.0315	-0.027	-9.6
0	-0.0098	0.0307	-0.0128	-9.5
-0.0105	-0.003	0.0292	0.003	-9.5
-0.0248	0.0172	0.0105	0.0015	-9.5
-0.0338	0.0315	0.0067	0.0105	-9.5
-0.027	0.033	-0.0075	0.0052	-9.5
-0.0113	0.0142	-0.0203	0.0037	-9.5
0.0142	0.0007	-0.024	0.0045	-9.4
0.042	0.0052	-0.024	0.0007	-9.4
0.0472	-0.0023	0.0052	0.0015	-9.4
0.0315	-0.0015	0.0382	0.0052	-9.4
0.0142	0.003	0.0457	0.012	-9.4
0.003	-0.0053	0.0315	0.0067	-9.3
-0.0113	-0.0053	-0.0091	-0.0015	-9.3
-0.0128	0.0082	-0.0405	-0.0075	-9.3
-0.0046	0.0232	-0.0615	-0.0083	-9.3
0.0007	0.0187	-0.0758	-0.0075	-9.3
0.0157	0.006	-0.0495	-0.003	-9.2
0.0277	0.003	-0.0143	0.0007	-9.2
0.0277	0.0045	0.0127	-0.0038	-9.2
0.0142	0.0112	0.0217	-0.003	-9.2
-0.0053	0.006	0.033	-0.0038	-9.2
-0.0181	0.0075	0.0367	-0.0015	-9.1
-0.0315	0.0127	0.0187	0	-9.1
-0.0383	0.0127	0.012	-0.003	-9.1
-0.0338	0.024	-0.0023	0	-9.1
-0.024	0.0165	-0.0083	0.0067	-9.1
-0.015	0.0015	-0.0083	0.006	-9
-0.0143	-0.021	-0.0053	-0.0008	-9
-0.0143	-0.0465	0.0022	-0.0046	-9
-0.012	-0.0443	-0.0008	-0.0053	-9
-0.012	-0.024	0.0007	-0.003	-9
-0.0053	-0.0098	-0.0075	0	-9
-0.0008	0.0172	-0.0128	0.0082	-9
0.0022	0.0577	-0.015	0.015	-9
0.0075	0.06	-0.0135	0.0157	-9
0.0067	0.0345	-0.0083	0.009	-9
0.0097	-0.003	-0.0113	-0.003	-8.9
0.009	-0.0233	-0.0091	-0.0068	-8.9
0.0075	-0.0091	-0.0165	-0.0113	-8.9
0.003	-0.0008	-0.0233	-0.0113	-8.9
0.0022	0.006	-0.033	-0.0128	-8.9
0.0052	0.0187	-0.0428	-0.0256	-8.9
0.0022	0.0337	-0.0405	-0.0135	-8.9
-0.0015	0.0307	-0.0398	0.0255	-8.8
-0.0053	0.0255	-0.0278	0.0292	-8.8
-0.0053	0.0225	-0.0165	0.0157	-8.8
-0.003	0.0015	-0.0015	0.0112	-8.8
0.0015	-0.012	0.0195	-0.0083	-8.8
0.0067	-0.033	0.03	-0.0038	-8.8
0.0082	-0.0533	0.0345	-0.0046	-8.7
0.0045	-0.0473	0.0202	-0.0053	-8.7
0.0045	-0.027	0.0022	0.0007	-8.7
0.009	-0.012	-0.0143	-0.0053	-8.7
0.0052	-0.0105	-0.0248	-0.003	-8.7
0.003	-0.0023	-0.0256	-0.0023	-8.6
0.0015	-0.0015	-0.027	0.0015	-8.6
-0.0023	0.0022	-0.0203	0.003	-8.6
-0.0023	0.0082	-0.0165	0.0015	-8.6
-0.003	0.015	-0.012	-0.0015	-8.6
-0.0015	0.0105	-0.0105	-0.0068	-8.6
0.0007	-0.006	-0.0068	-0.003	-8.6
0	-0.0008	-0.003	0.0015	-8.6
-0.0015	0.012	-0.003	0.012	-8.6
-0.0023	0.0217	0.0052	0.0105	-8.5
-0.0038	0.0052	0.0067	0.003	-8.5
-0.003	-0.021	0.009	0.003	-8.5
0.0015	-0.0285	0.0135	-0.0053	-8.5
0.0007	-0.048	0.015	-0.0105	-8.4
-0.0023	-0.048	0.0202	-0.0075	-8.4
-0.0053	-0.0165	0.0172	-0.0015	-8.4
-0.0046	0.0067	0.0157	0.0052	-8.4
-0.0046	0.0285	0.0165	0.0105	-8.3
-0.0038	0.0352	0.0157	0.0082	-8.3
-0.003	0.0255	0.0165	0.0067	-8.3
-0.0053	0.0195	0.0142	0.0082	-8.2
-0.0075	0.012	0.0127	0.0022	-8.2
-0.021	-0.0008	0.0142	-0.0068	-8.2
-0.0361	-0.0181	0.0232	-0.0128	-8.2
-0.0308	-0.021	0.0442	-0.0053	-8.1
-0.0195	-0.0308	0.0622	-0.0046	-8.1
-0.0053	-0.0405	0.0675	-0.0068	-8.1
0.0165	-0.0233	0.0607	-0.0015	-8.1
0.0352	-0.0128	0.0315	-0.0008	-8.1
0.048	-0.0046	-0.0158	-0.0015	-8.1
0.0502	0.003	-0.0638	-0.0008	-8
0.0405	0.0045	-0.1065	-0.0038	-8
0.021	0.0022	-0.126	-0.0075	-8
0.009	0.0037	-0.1088	-0.0068	-7.9
0.0052	0.0112	-0.0668	0.0007	-7.9
-0.0015	0.0187	-0.0308	0.0082	-7.9
-0.0068	0.0187	0.0045	0.0082	-7.9
-0.0098	0	0.0352	0	-7.8
-0.0098	-0.0158	0.0427	-0.0046	-7.8
-0.006	-0.0173	0.0555	-0.0046	-7.8
-0.0083	-0.0105	0.048	-0.0053	-7.7
-0.0105	-0.0053	0.0442	-0.0068	-7.7
-0.0105	-0.003	0.0405	-0.0053	-7.7
-0.0143	0.0165	0.0247	0	-7.7
-0.012	0.0397	0.0232	0.0052	-7.7
-0.0083	0.0457	0.0165	0.0075	-7.7
-0.006	0.0255	0.0195	0.006	-7.6
-0.0053	-0.006	0.0187	-0.0008	-7.6
-0.0068	-0.021	0.0142	-0.0023	-7.6
-0.0098	-0.0158	0.0165	0.0015	-7.6
-0.0218	-0.0068	0.0105	0.003	-7.5
-0.0263	0.0052	0.0082	0.0045	-7.5
-0.0248	0.0232	0.0045	0.0052	-7.5
-0.0195	0.0285	0.0045	-0.0008	-7.5
-0.0068	-0.0038	0.0097	-0.0068	-7.4
-0.003	-0.0518	0.0112	-0.0068	-7.4
0.006	-0.0721	0.015	-0.0091	-7.4
0.0082	-0.0803	0.012	-0.0091	-7.4
0.0067	-0.0533	0.0082	-0.003	-7.3
0.009	-0.006	0.0052	-0.0015	-7.3
0.006	0.0052	0.009	-0.0083	-7.3
0.0052	0.0075	0.0127	-0.0105	-7.3
0	0.0142	0.0067	-0.003	-7.3
0.0007	0.0127	-0.003	-0.0008	-7.2
0.0007	0.0157	-0.0075	0.0045	-7.2
-0.0008	0.0165	-0.0083	0.0052	-7.2
0.0007	0.0172	-0.006	0.0045	-7.2
0.0007	0.0195	-0.0038	0.0045	-7.2
0.003	0.0142	0.0135	0.003	-7.2
0.003	0.009	0.051	0.0045	-7.1
0.0052	0.003	0.0637	0.0045	-7.1
0.0067	0.0045	0.0525	0.0052	-7.1
0.003	0.0052	0.0165	0	-7.1
0.0007	0.0045	-0.0405	-0.0083	-7.1
-0.0008	0.0022	-0.0653	-0.0083	-7.1
-0.0046	0.0015	-0.0743	-0.0068	-7
-0.0053	0.0045	-0.0668	-0.003	-7
-0.0053	0.0037	-0.0368	0	-7
-0.006	0.0045	-0.0128	0.0007	-7
-0.006	0.0015	-0.0091	0.003	-7
-0.0046	-0.0046	-0.0113	0.0045	-7
-0.0015	-0.0091	-0.0015	0.0052	-7
-0.0015	-0.015	0.0075	0.003	-6.9
-0.0015	-0.015	0.018	0.0067	-6.9
-0.0015	0.0022	0.0217	0.006	-6.9
0	0.027	0.0225	0.003	-6.9
0.0022	0.0352	0.0217	-0.0015	-6.9
0.003	0.027	0.018	-0.0053	-6.9
0	0.0157	0.018	-0.0015	-6.9
-0.0008	0.0082	0.0157	-0.0015	-6.8
0.003	-0.0023	0.0142	-0.0008	-6.8
0.0007	-0.015	0.0142	-0.003	-6.8
0.0007	-0.0323	0.0157	-0.0053	-6.8
0.0007	-0.0308	0.0187	-0.0015	-6.8
-0.0023	-0.0195	0.0187	-0.0046	-6.8
-0.0053	-0.0091	0.0112	-0.0008	-6.8
-0.0233	0.0075	-0.0008	0.0037	-6.8
-0.0473	0.0195	-0.012	0.0052	-6.8
-0.057	0.0315	-0.021	-0.0023	-6.8
-0.0465	0.0307	-0.0308	-0.006	-6.7
-0.0195	0.021	-0.0383	0.0007	-6.7
0.021	0.012	-0.0293	0.0015	-6.7
0.0615	0.0067	-0.0105	0.0052	-6.7
0.0855	0.0067	0.0022	0.0052	-6.7
0.0982	0.003	0.0052	0.0067	-6.7
0.0915	0.0015	0.0127	0.0037	-6.6
0.0577	-0.0038	0.0142	-0.0046	-6.6
0.0232	-0.006	0.0097	-0.0046	-6.6
-0.0015	-0.0083	0.0277	-0.0053	-6.6
-0.0256	-0.0068	0.0367	-0.003	-6.6
-0.0383	-0.006	0.0397	-0.0015	-6.6
-0.0428	-0.0075	0.033	-0.0008	-6.6
-0.0465	-0.003	0.009	0.0015	-6.5
-0.0436	-0.003	-0.0113	0.0007	-6.5
-0.0315	-0.003	-0.0308	-0.0008	-6.5
-0.0233	-0.003	-0.039	-0.0023	-6.5
-0.0181	-0.003	-0.042	-0.003	-6.5
-0.0105	-0.0053	-0.0173	0	-6.5
-0.006	-0.0038	0.0247	0.0015	-6.5
-0.003	0.0007	0.0337	0	-6.5
0.0022	0	0.0262	0.0015	-6.4
0.0007	-0.0008	0.015	0.0015	-6.4
-0.0008	-0.0015	-0.0015	-0.0008	-6.4
-0.0008	0	-0.0068	-0.0015	-6.4
0.0007	0.0022	-0.0195	-0.003	-6.4
0.0007	0.0022	-0.0256	-0.0023	-6.4
0.0007	0.0037	-0.0203	-0.0015	-6.4
0.0015	0.0015	-0.0218	0.0007	-6.4
-0.0015	0.003	-0.0128	0.0037	-6.4
-0.0015	0.006	-0.0068	0.0022	-6.3
-0.0008	0.0045	0.0022	0	-6.3
-0.0008	0.0007	0.003	0.0007	-6.3
0.0015	0	0.003	0.0015	-6.3
0.0045	-0.0023	0.0075	-0.0053	-6.3
0.0037	-0.0046	0.009	-0.0105	-6.3
-0.003	-0.0046	0.0165	-0.0038	-6.3
-0.0053	-0.0038	0.0165	-0.0015	-6.3
-0.0075	-0.0015	0.0142	-0.0008	-6.3
-0.0068	0.0007	0.0097	0.0037	-6.3
-0.0038	0.003	0.0052	0.0007	-6.3
-0.0046	0.003	0.003	0.003	-6.3
-0.003	0.0015	0.003	0.003	-6.3
-0.0015	0.0015	0.0007	0.0015	-6.3
-0.0008	0.0015	-0.0015	0.0007	-6.3
0	0.0007	-0.0046	-0.0008	-6.3
0.003	0	-0.0083	0.0007	-6.3
0.012	0.0015	-0.0091	-0.0015	-6.3
0.012	0.003	-0.0098	-0.0008	-6.3
0.009	0.0037	-0.006	0.0007	-6.3
0.0075	0.003	-0.0038	-0.0008	-6.3
0.003	0.0007	-0.003	0.0007	-6.3
0.0052	0.0007	0.0015	0.0015	-6.3
0.0045	0.003	0.003	0.0037	-6.3
-0.0008	0.0045	0.0045	0.006	-6.3
-0.003	0.003	0.0052	0.0052	-6.3
-0.0038	0.0007	0.012	-0.0015	-6.2
-0.0046	0.0007	0.012	-0.0075	-6.2
-0.0083	0	0.0082	-0.0046	-6.2
-0.0053	0	0.012	0.0022	-6.2
-0.0038	0.0022	0.0112	0.0045	-6.2
-0.0046	0.0015	0.0135	-0.0008	-6.2
0.003	0.0022	0.0082	-0.0068	-6.2
0.003	0.0007	0.0007	-0.0068	-6.2
0	-0.0008	-0.0008	-0.006	-6.2
0.003	-0.0008	-0.0038	-0.0008	-6.2
0.0007	0	-0.0015	0.0007	-6.2
-0.0015	0.0007	-0.003	0	-6.2
-0.0038	0.0007	-0.0046	0.0007	-6.2
-0.0068	0.0015	-0.0046	-0.0015	-6.2
-0.006	0.003	-0.0046	-0.0008	-6.2
-0.0091	0.0052	-0.003	-0.0023	-6.2
-0.0225	0.0067	-0.0015	-0.003	-6.2
-0.039	0.0052	-0.003	-0.0015	-6.2
-0.039	0.0022	-0.006	-0.0015	-6.2
-0.0263	0	-0.003	0.0007	-6.2
-0.0015	-0.0068	-0.0015	0	-6.2
0.0285	-0.0083	0.003	-0.0008	-6.2
0.042	-0.003	0.0022	0	-6.2
0.0412	-0.003	0.0007	0.0015	-6.2
0.0352	-0.0015	0.0015	0.003	-6.2
0.0202	-0.0008	-0.0008	0.0007	-6.2
0.0067	-0.003	0.0045	-0.0008	-6.2
-0.0008	-0.003	0.003	-0.0008	-6.2
-0.0008	0.0007	0.0015	-0.0015	-6.2
0.003	0.0052	-0.0008	0.0007	-6.2
0.0067	0.003	-0.0053	0.003	-6.2
0.006	0.0007	-0.0046	0.003	-6.2
0.0037	0.0015	-0.006	0.0007	-6.2
-0.0015	0.0007	-0.0083	-0.0015	-6.2
-0.0105	0	-0.0105	0	-6.2
-0.0098	-0.0008	-0.0068	0	-6.3
-0.0098	-0.0015	0	-0.0015	-6.3
-0.0143	-0.0015	0.0037	0	-6.3
-0.0143	0.0007	0.0067	-0.0008	-6.3
-0.0181	0.0007	0.0037	0.0007	-6.2
-0.0158	-0.0015	0.003	0.0015	-6.2
-0.0128	-0.0023	0.0067	0.0007	-6.2
-0.012	-0.0015	0.0052	0.0007	-6.2
-0.0068	0	0.0052	-0.0015	-6.2
-0.0053	0.0015	0.0052	0.0007	-6.2
-0.0046	0.0022	0.0045	0.003	-6.2
-0.003	0.0037	0.0015	0.0022	-6.2
-0.0015	0.0022	0.0037	0.0015	-6.2
0.0007	-0.0008	0.0127	0.0007	-6.2
0.003	0	0.0142	0.0007	-6.2
0.003	-0.0008	0.0157	-0.0015	-6.2
0.0015	-0.0015	0.0105	-0.0015	-6.2
0.0045	0.0007	0.0045	0	-6.1
0.0067	0.0007	-0.0008	-0.003	-6.1
0.0052	0	-0.0015	-0.0015	-6.1
0.0067	0.0015	0.003	-0.0008	-6.1
0.003	0.0015	0.0045	0.0015	-6.1
0	0.0022	0.0022	0.0015	-6.1
-0.0015	0.0007	-0.003	-0.0008	-6.1
-0.003	0	-0.003	0.003	-6.1
0.0007	-0.0008	-0.0008	0.0045	-6.1
0.003	-0.0008	0.0105	0.0067	-6.1
0.003	-0.0038	0.0187	-0.0015	-6
-0.003	-0.0068	0.0195	-0.0135	-6
-0.003	-0.0091	0.0187	-0.012	-6
-0.0046	-0.0083	0.0082	-0.0075	-6
-0.0053	-0.0046	0.0045	-0.0046	-6
-0.0015	-0.0015	0	-0.0008	-6
-0.003	-0.0015	-0.0015	0.0007	-6
-0.0008	-0.0008	0.003	0.0007	-5.9
0.0007	-0.0015	0	0	-5.9
-0.0008	-0.003	0.0052	0.0007	-5.9
0.0022	-0.0015	0.003	0.0015	-5.9
0.003	-0.003	0.0022	0.0015	-5.9
0.0037	0.0015	0.0045	0.0022	-5.9
0.0015	0.018	0.0007	0.0015	-5.9
-0.0008	0.0292	-0.0008	0.0045	-5.9
0	0.0202	-0.0015	0.0045	-5.9
-0.0008	0.003	-0.003	0.0037	-5.9
0.0015	-0.0143	-0.0046	-0.0008	-5.9
0.0007	-0.0203	-0.0008	-0.006	-5.8
0.0022	-0.0195	0	-0.0068	-5.8
0	-0.027	0	-0.0053	-5.8
-0.003	-0.0225	0.0015	-0.0015	-5.8
-0.0023	-0.003	0.0007	0.0015	-5.8
-0.0046	-0.0008	-0.0008	0.0015	-5.7
-0.0046	-0.003	0.0007	-0.0008	-5.7
-0.0038	-0.012	0.0015	-0.0038	-5.7
-0.0053	-0.0278	0.0007	-0.0046	-5.7
-0.0083	-0.0256	-0.0008	-0.0023	-5.7
-0.006	-0.0128	-0.0023	-0.0015	-5.7
-0.0015	-0.0053	-0.0008	0.0037	-5.6
0	0.0165	-0.0008	0.0052	-5.6
0.0045	0.0547	0	0.0015	-5.6
0.0007	0.0885	0.0015	-0.0008	-5.6
-0.0015	0.1065	0.0015	-0.0023	-5.6
-0.0008	0.09	-0.0008	-0.0008	-5.5
-0.0038	0.0465	-0.0008	-0.0015	-5.5
0	0.0105	-0.0038	-0.003	-5.5
0.0015	-0.0436	-0.0053	-0.0053	-5.5
0	-0.0893	-0.0053	-0.0046	-5.4
0.0007	-0.0608	-0.0068	0	-5.4
-0.0015	-0.0405	-0.0083	0.0022	-5.4
-0.0015	-0.0413	-0.0046	0.0045	-5.4
-0.0046	-0.039	-0.0023	0.0045	-5.4
-0.0053	-0.0706	0.0015	0.0082	-5.3
-0.003	-0.0615	0.0067	0.0142	-5.3
-0.0046	-0.0323	0.0015	0.0165	-5.3
-0.0015	-0.0105	-0.0023	0.0142	-5.3
0	0.033	-0.003	0.009	-5.2
0.0007	0.0652	0.0007	0.0045	-5.2
0.0052	0.0712	0.0007	-0.0046	-5.2
0.0075	0.042	0.003	-0.0188	-5.2
0.003	0.0097	0.0045	-0.0233	-5.1
-0.0008	-0.03	-0.0015	-0.0158	-5.1
-0.0023	-0.0563	0.0015	-0.0105	-5.1
-0.0038	-0.0338	-0.0023	-0.0075	-5
-0.0046	-0.024	0.0007	-0.0105	-5
-0.0015	-0.012	0.0037	-0.0128	-5
-0.0015	0.0427	0.003	-0.003	-5
0	0.1185	0.006	0.0037	-4.9
-0.0015	0.135	0.0045	0.0045	-4.9
-0.0023	0.0772	0.0097	0.003	-4.8
0	0.012	0.009	-0.0008	-4.8
-0.0015	-0.0863	0.006	-0.0075	-4.8
-0.0046	-0.1553	0.006	-0.0128	-4.7
-0.0068	-0.1185	0.0015	-0.0128	-4.7
-0.0105	-0.0413	0.0022	-0.0098	-4.6
-0.0098	-0.0143	0.0045	-0.003	-4.6
-0.003	0.0067	0.0045	0.0037	-4.6
0.0015	0.0202	0.003	0.0105	-4.5
0.0015	-0.012	0.0045	0.012	-4.5
0.0045	-0.0098	0.0082	0.0112	-4.5
0.003	-0.0143	0.009	0.006	-4.5
0.0015	-0.0218	0.0112	-0.003	-4.4
0.0015	-0.0105	0.012	-0.0015	-4.4
0.003	-0.0075	0.0075	0.0022	-4.3
-0.0023	0.027	0.003	0.0105	-4.3
-0.0046	0.0555	0.0045	0.015	-4.2
-0.003	0.0532	0.0022	0.018	-4.2
-0.003	0.039	0.0015	0.0202	-4.2
0.0007	0.0165	0.0037	0.0195	-4.1
0.0022	0.0037	0.003	0.012	-4.1
0.0052	-0.0105	0.0067	0.0052	-4.1
0.0052	-0.006	0.0052	-0.0008	-4
0	0.0232	0.0045	-0.006	-4
-0.0008	0.0172	0.003	-0.012	-4
-0.0046	0.0142	0.0007	-0.024	-3.9
-0.0053	0.018	0	-0.0233	-3.9
-0.0038	-0.0068	-0.0053	-0.0181	-3.8
-0.0046	-0.0135	-0.0046	-0.0091	-3.8
-0.0008	-0.0105	-0.0053	0	-3.7
-0.003	-0.0038	-0.0023	-0.003	-3.7
0	0.0105	-0.0023	-0.0015	-3.7
0.003	0.0165	-0.0053	-0.003	-3.6
-0.0008	0.015	-0.0015	-0.0008	-3.6
0.0007	0.009	-0.0008	0.0015	-3.6
0.0015	0	0.0052	0.0067	-3.5
0.003	-0.012	0.0067	0.0135	-3.5
0.0007	-0.0023	0.0067	0.0127	-3.5
-0.0015	0.0142	0.0052	0.0187	-3.4
0.0015	0.0352	0.0015	0.0157	-3.4
0.0007	0.0487	-0.0008	0.009	-3.3
0.0007	0.0315	-0.0023	0.0015	-3.3
0.0015	-0.0015	-0.003	-0.0068	-3.2
-0.0023	-0.0353	-0.0023	-0.0083	-3.2
-0.0015	-0.0668	-0.0015	-0.0068	-3.2
0.0015	-0.0818	-0.0015	-0.0046	-3.2
0.0007	-0.0615	-0.0015	-0.0068	-3.1
0.0015	-0.0495	-0.0015	-0.0068	-3.1
0.003	-0.0383	0.0007	-0.0038	-3
0	-0.0046	0.0022	-0.0038	-3
0.0007	0.0217	0.0045	-0.006	-3
0.0045	0.048	0.003	-0.0083	-2.9
0.0022	0.0697	-0.0023	-0.0105	-2.9
-0.0023	0.0517	-0.003	-0.0128	-2.8
-0.0015	0.0142	-0.0053	-0.0098	-2.8
-0.0015	-0.0323	-0.003	-0.0068	-2.8
-0.0023	-0.0578	-0.0008	-0.0015	-2.7
-0.0023	-0.0256	-0.0015	0.003	-2.7
-0.003	-0.0091	0.0037	0.0022	-2.7
-0.0015	-0.0158	0.003	0.0082	-2.7
-0.0015	-0.0143	0.0067	0.009	-2.7
0.0045	-0.0068	0.0045	0.0052	-2.6
0.0052	0.0172	0.0037	0.0007	-2.6
0	0.0427	0.0007	-0.0023	-2.6
-0.0008	0.0712	-0.0038	0	-2.5
-0.0053	0.06	-0.0008	0.0052	-2.5
-0.0038	0.0322	0.0007	0.0112	-2.5
0.0007	0.0225	0.0075	0.0067	-2.5
-0.0008	0.0007	0.006	-0.0068	-2.4
-0.0008	-0.024	0.003	-0.0098	-2.4
-0.0015	-0.0405	0	-0.0068	-2.4
-0.003	-0.0405	-0.0038	-0.0113	-2.3
-0.003	-0.0375	-0.0015	-0.012	-2.3
-0.0015	-0.0195	-0.0046	-0.0046	-2.3
-0.003	-0.0181	-0.003	-0.003	-2.3
-0.0008	-0.0525	-0.0008	-0.003	-2.3
0.0007	-0.0563	0	0	-2.3
-0.0053	-0.0195	0.0015	0.0015	-2.3
-0.0023	0.018	0.0015	0.0022	-2.2
-0.0015	0.0165	0.0022	0.0045	-2.2
-0.0023	0.0157	0.0022	0.0045	-2.2
0.0052	-0.0023	0.0022	0.0052	-2.2
0.003	-0.0315	0.0022	0.0015	-2.2
0.003	-0.0195	0.0022	-0.0015	-2.1
0.0045	-0.0046	0.0022	0.0015	-2.1
0.003	0.0225	0.0015	0	-2.1
0.0015	0.054	0.0022	0.0007	-2.1
-0.0015	0.0645	0.0015	0.0007	-2.1
-0.003	0.0435	0.0007	0.0015	-2.1
-0.0023	0.003	0.0022	0.0015	-2
-0.0015	-0.0083	0.0037	-0.0008	-2
-0.0046	0.0142	0.0052	0.0022	-2
-0.0068	0.0225	0.0045	-0.0008	-2
-0.003	0.0075	0.0037	-0.0008	-2
-0.003	0.0015	0.0037	-0.0015	-2
-0.0008	-0.0135	0.0007	-0.0015	-2
0.0045	-0.0188	0.0022	0.0007	-2
0.003	-0.0165	0.003	-0.0015	-2
0.0015	-0.0075	0.0037	0.003	-2
0.0007	0.021	0.0067	0.0067	-2
0.0015	0.0322	0.0097	0.0105	-2
0.0022	0.0525	0.0127	0.0127	-2
-0.0008	0.0457	0.0142	0.0052	-2
-0.003	-0.0068	0.0157	0.0082	-1.9
-0.0015	-0.0533	0.0105	0.0082	-1.9
-0.0015	-0.0713	0.0067	0.0082	-1.9
-0.0008	-0.0465	0.0052	0.0105	-1.9
0.0007	-0.033	0.0022	-0.0008	-1.9
-0.0008	-0.0346	0.003	-0.0091	-1.9
0.0007	-0.0053	0	-0.0143	-1.9
0.0015	0.024	0.0007	-0.0105	-1.9
0	0.027	0	-0.0083	-1.9
-0.003	0.0217	-0.003	-0.0091	-1.9
-0.0023	0.0165	-0.003	-0.0083	-1.9
-0.006	0.0075	-0.003	-0.0105	-1.9
-0.0083	0.0105	-0.003	-0.0068	-1.9
-0.0038	0.0075	-0.0038	-0.006	-1.9
-0.0015	0.0007	-0.0008	-0.003	-1.9
0	0.0052	0	-0.0015	-1.9
0.0015	0.012	-0.0008	0	-1.9
0.003	0.0142	0.0022	0.0022	-1.9
0.0052	0.0015	0.003	-0.0008	-1.9
0.0067	-0.0098	0.006	-0.0053	-1.9
0.006	-0.0323	0.0045	-0.0075	-1.9
0.0037	-0.0525	0.006	-0.0046	-1.9
-0.0015	-0.0346	0.0045	-0.0008	-1.9
-0.0015	0.0082	0.0015	0.0022	-1.9
-0.0015	0.0367	0.006	-0.003	-1.9
-0.003	0.039	0.0045	-0.0046	-1.9
-0.003	0.0292	0.0052	-0.0015	-1.9
-0.0053	0.0165	0.003	0.0007	-1.9
-0.0023	0.0067	0.0007	0.0052	-1.9
-0.0015	-0.006	0.006	0.0105	-1.9
-0.0008	-0.012	0.0067	0.0112	-2
0.003	-0.0128	0.0082	0.0075	-2
0.0007	-0.012	0.0045	0.0045	-2
-0.0023	-0.0053	0.0037	0.0007	-2
-0.003	0.003	0.0045	-0.0046	-2
-0.0023	0.0097	0.003	-0.0105	-2
-0.0023	0.0067	0.0045	-0.0128	-2
-0.0015	0	0.003	-0.0105	-2
0.0007	-0.0015	0.0037	-0.0023	-2
0.003	0.0007	0.0007	0.003	-2
0.0045	-0.0015	-0.003	0.003	-2.1
0.003	0	-0.0038	0.0007	-2.1
0.0015	0	-0.0068	-0.003	-2.1
-0.0008	-0.003	-0.0046	0	-2.1
-0.0015	-0.0091	-0.0046	0.0022	-2.1
-0.003	-0.0128	-0.0038	0.0022	-2.1
-0.0038	-0.0091	-0.0008	0.0015	-2.1
-0.0046	-0.0105	-0.0015	0.0037	-2.1
-0.0068	-0.012	0.0007	0.006	-2.1
-0.0053	-0.0083	0.0007	0	-2.2
-0.003	0	0.0007	-0.0053	-2.2
-0.003	0.0045	0.0007	-0.0053	-2.2
-0.0046	0.0022	-0.0015	-0.0015	-2.2
-0.0053	0.0007	0.0007	0	-2.3
-0.0068	-0.0023	-0.0008	0.003	-2.3
-0.0068	0.0015	-0.0015	0.0022	-2.3
-0.0053	0.0052	-0.0008	0.0007	-2.3
-0.006	-0.0015	-0.003	0.0015	-2.3
-0.0023	-0.0173	0	0	-2.3
-0.0015	-0.021	0.003	-0.003	-2.4
-0.0008	-0.0075	0.0037	-0.006	-2.4
0	0.0007	0.0052	-0.0046	-2.4
-0.0015	0.0037	0	-0.0038	-2.5
0.0007	0.006	-0.0023	-0.003	-2.5
0.0022	0.0052	-0.0008	-0.0008	-2.5
0.0015	0.0007	-0.003	0.0007	-2.5
0.0007	-0.0068	0	0.003	-2.6
0.0015	-0.0053	-0.0015	0.003	-2.6
-0.0015	0.0045	-0.0008	0.0075	-2.6
-0.0015	0.0202	0.0015	0.006	-2.6
-0.003	0.033	-0.0015	0.0037	-2.7
-0.0046	0.0292	0.0022	0.0037	-2.7
-0.0023	0.009	0.0015	0.0037	-2.7
-0.0015	-0.0181	0.003	0.0045	-2.7
0.0007	-0.0315	0.0075	0.0007	-2.8
0.0045	-0.033	0.0015	0	-2.8
0.003	-0.0413	0	0.0007	-2.8
0.0015	-0.042	-0.003	0.0067	-2.9
-0.0015	-0.027	0.0015	0.0127	-2.9
-0.003	-0.0181	0.0037	0.0105	-2.9
-0.003	-0.0083	-0.0008	0.0052	-3
-0.0046	0.0045	0.0022	0.0007	-3
-0.0008	0.0022	-0.0015	0	-3
-0.0008	0.0135	-0.0046	-0.003	-3.1
-0.0015	0.0247	-0.0053	-0.0038	-3.1
-0.0008	0.024	-0.0046	0	-3.2
-0.0015	0.0292	-0.003	0.0015	-3.2
0	0.0442	-0.0068	0.0007	-3.2
0.0007	0.042	-0.0046	0.0007	-3.2
-0.0008	0.0037	-0.0053	0.003	-3.2
-0.0008	-0.0233	-0.003	0.0067	-3.3
-0.0023	-0.0263	0.0007	0.0075	-3.3
-0.0046	-0.0458	0.0015	0.0045	-3.4
-0.0038	-0.0608	0.0037	0	-3.4
-0.0023	-0.0346	0.003	-0.0098	-3.5
-0.0023	-0.0091	0.0015	-0.0165	-3.5
-0.0038	-0.0091	0	-0.0181	-3.6
-0.0008	-0.0353	-0.0008	-0.0165	-3.6
-0.0008	-0.0533	0.0007	-0.012	-3.6
-0.0008	-0.024	0.0015	-0.0068	-3.7
0.0007	0	0.003	-0.0046	-3.7
-0.0015	0.0067	0.0052	-0.0038	-3.7
-0.0015	0.0127	0.0052	-0.0023	-3.8
-0.0023	0.0142	0.006	-0.0008	-3.8
-0.0015	0.0135	0.0022	-0.0015	-3.9
-0.0015	0.0105	-0.0015	-0.0008	-3.9
-0.0008	0.0075	-0.0015	-0.0015	-4
0	0.0075	-0.003	-0.0015	-4
-0.003	0.0075	-0.0015	-0.0023	-4.1
-0.0015	0.0075	0	-0.003	-4.1
-0.0015	0.0112	0.003	-0.0046	-4.2
-0.0038	0.0292	0.0045	-0.003	-4.2
-0.0023	0.0382	0.0015	-0.0008	-4.2
-0.003	0.0165	0	0.0007	-4.3
0.0007	-0.0038	-0.0046	0.0022	-4.3
0.0015	-0.021	-0.0046	0.0022	-4.4
-0.0008	-0.0375	-0.003	0.0015	-4.5
0.003	-0.0361	-0.0038	0.0015	-4.5
-0.0008	-0.024	0.0015	0.0015	-4.5
0.0015	0.0097	0.003	-0.0015	-4.6
0.0022	0.0412	0.006	-0.0053	-4.6
-0.0015	0.0397	0.006	0	-4.7
0.0022	0.039	0.0052	0.006	-4.7
0.0007	0.0292	0.0082	0.009	-4.8
-0.0008	0.0015	0.0052	0.0067	-4.8
0	-0.0195	0.0075	0.0052	-4.9
-0.0015	-0.0128	0.0082	0.0052	-5
-0.0015	0.0105	0.0045	0.0022	-5
-0.0038	0.0202	0.0037	-0.0015	-5
-0.0046	0.0315	0.0015	-0.0046	-5.1
-0.0046	0.0382	0.0022	0.0022	-5.2
-0.0046	0.0352	0.0037	0.0007	-5.2
-0.003	0.0352	0.003	0.0007	-5.3
-0.0046	0.0187	0.003	0.0052	-5.3
-0.0038	-0.0091	0.003	0.0015	-5.4
-0.0053	-0.0315	0.0045	0.0022	-5.4
-0.0015	-0.0135	0.0097	0	-5.4
0	0.0067	0.0135	0.0015	-5.5
0.0007	0.006	0.0097	0.0007	-5.6
0.0037	0.015	0.0067	-0.0015	-5.6
0.003	0.0127	0.0052	-0.0008	-5.7
0.0037	0.015	0.0067	-0.0023	-5.8
-0.0008	0.018	0.0075	-0.0008	-5.8
0.0022	0.0142	0.009	-0.0038	-5.9
0.003	0.0105	0.009	-0.0053	-5.9
-0.0008	0.003	0.006	-0.0046	-6
0.0045	0.0045	0.0067	-0.003	-6
-0.0015	0.0052	0.0067	0.0007	-6.1
-0.0053	0.0105	0.0082	0.0007	-6.1
-0.003	0.0135	0.0045	0.0015	-6.2
-0.0068	0.0165	0.0052	0.0007	-6.3
-0.003	0.018	0.0022	-0.0023	-6.3
-0.0015	0.012	0.0007	-0.0015	-6.4
-0.0015	0.006	0.003	0	-6.4
0.0022	0.0007	0.0045	0	-6.5
0.0007	-0.0015	0.0067	-0.0015	-6.6
0.0007	-0.0053	0.0037	-0.0023	-6.7
-0.0008	-0.006	0.0037	-0.0015	-6.7
-0.0023	-0.0068	0.0022	-0.0008	-6.8
-0.003	-0.0128	0.0015	0.0015	-6.8
-0.0046	-0.0181	0.0022	0.0015	-6.9
-0.0023	-0.0165	-0.0008	0.003	-7
-0.0023	-0.0158	0.003	0.0052	-7
0.0015	-0.0143	0.0022	0.0045	-7.1
0.0015	-0.0068	0.0037	0.0067	-7.2
-0.0015	0.0082	0.0045	0.0007	-7.2
-0.0008	0.015	0.003	-0.0008	-7.3
-0.0046	0.006	0.0052	0	-7.4
-0.003	0.0067	0.0045	-0.0015	-7.4
-0.0008	0.0082	0.0037	-0.0015	-7.5
-0.0023	-0.0038	0.0015	-0.0075	-7.6
-0.0023	-0.0248	-0.0008	-0.006	-7.7
-0.0008	-0.0248	-0.0015	-0.003	-7.7
-0.0015	-0.0173	-0.003	-0.0038	-7.8
-0.0015	-0.021	-0.0008	-0.0038	-7.9
0.0015	-0.0165	-0.0015	-0.006	-8
-0.0023	-0.0195	0.0015	-0.0053	-8.1
-0.0015	-0.0195	0.0015	-0.0053	-8.1
0.0015	-0.0195	-0.0008	-0.0038	-8.2
0.0007	-0.024	0.0015	-0.0015	-8.3
0.0015	-0.024	-0.0015	-0.0008	-8.4
0.0007	-0.0181	0.0015	0	-8.5
0.0015	-0.0113	0.0015	0	-8.6
0.0037	-0.006	-0.0008	0.0007	-8.7
0.0015	-0.0023	0	-0.0008	-8.8
-0.0015	-0.003	-0.0038	0	-8.9
-0.003	-0.0113	-0.0015	-0.0008	-8.9
0.0007	-0.0188	-0.0023	0	-9
0.0015	-0.0181	0	0.0045	-9.1
0.003	-0.0195	-0.0008	0.0045	-9.2
0.0052	-0.0046	-0.0015	0.0015	-9.3
0.0015	0.0217	-0.0023	-0.0046	-9.4
0.0007	0.0315	-0.0068	-0.0068	-9.5
-0.0015	0.0345	-0.006	-0.0038	-9.6
-0.006	0.0315	-0.0098	-0.0015	-9.7
-0.0053	0.0337	-0.0091	0.0022	-9.8
-0.0053	0.0367	-0.0068	0.0052	-9.9
-0.0046	0.033	-0.0068	0.0052	-10
-0.0023	0.0262	-0.003	-0.0015	-10.1
-0.0015	0.0112	-0.0023	-0.0046	-10.3
-0.0015	0.0045	0.0007	0.0015	-10.4
-0.0008	-0.0015	-0.0008	0.0007	-10.4
0	-0.0195	-0.0008	-0.003	-10.6
-0.0008	-0.0158	-0.0023	-0.0091	-10.7
-0.0015	-0.0046	-0.006	-0.0135	-10.8
-0.003	-0.0218	-0.0046	-0.0075	-10.9
-0.003	-0.033	-0.0046	0.0015	-11
-0.0008	-0.0256	-0.0015	0	-11.1
-0.0008	-0.0278	0	-0.0015	-11.2
0.0015	-0.027	-0.0008	0.0045	-11.3
0	-0.0188	0.0037	0.0045	-11.5
0	-0.024	0.0015	0.0022	-11.6
0.0007	-0.039	0.0015	0.006	-11.7
0.0015	-0.0105	0.003	0.0082	-11.8
0.0037	0.0345	0.003	0.006	-12
-0.0023	0.0285	-0.0008	-0.0068	-12.1
-0.003	0.0172	-0.006	-0.0158	-12.2
-0.0015	0.012	-0.006	-0.0105	-12.4
-0.0053	0.009	-0.0053	-0.0083	-12.5
-0.003	0.0195	-0.0053	-0.0015	-12.6
0	0.0345	-0.0046	0.0075	-12.8
0.0022	0.0382	-0.0015	0.0075	-12.9
0.0015	0.0075	0.0007	0.0015	-13
-0.0008	-0.0368	0.0007	0.0037	-13.1
0.0007	-0.0578	0.0022	0.0075	-13.3
0.0007	-0.0091	0.003	0.0067	-13.4
-0.0008	0.0472	0.006	0.0045	-13.5
-0.0046	0.0405	0.0082	0.0067	-13.7
-0.0053	0.048	0.009	0.0082	-13.8
-0.003	0.0532	0.012	0.003	-14
-0.0038	0.0067	0.0105	0.0007	-14.1
-0.003	-0.0383	0.009	0.0007	-14.2
-0.003	-0.075	0.0097	0.0007	-14.4
-0.006	-0.0758	0.0105	-0.003	-14.5
-0.0053	-0.0443	0.009	0.0015	-14.7
-0.0046	-0.0315	0.0052	0.003	-14.9
-0.0046	-0.015	0.0045	-0.003	-15
-0.0008	0.0045	0.0015	-0.0008	-15.2
-0.0015	-0.0015	-0.0008	0.0015	-15.3
-0.0008	0.0067	0.0015	0.0037	-15.5
0.0022	0.0217	0.0022	0.003	-15.6
0.0015	0.024	0.0007	0.003	-15.8
0.0052	0.0277	0.0007	0.0007	-15.9
0.006	0.0195	0.0007	-0.0008	-16.1
0.0007	0.021	0.0015	0.0022	-16.2
-0.0008	0.021	0.003	-0.0023	-16.4
-0.003	0.012	0.003	-0.0053	-16.5
-0.003	0.003	0.003	-0.0053	-16.7
-0.0008	-0.0008	0.0075	-0.0008	-16.8
0.0007	0.0067	0.0097	0.0067	-17
0.0015	0.0225	0.0105	0.0097	-17.2
0.003	0.0352	0.0082	0.0127	-17.3
0.003	0.0307	0.0082	0.0112	-17.5
0.003	0.039	0.0082	0.0127	-17.6
0.0045	0.0345	0.0052	0.0105	-17.8
0.0015	0.009	0.0112	0.0067	-18
0.0022	-0.021	0.0112	-0.0015	-18.1
0	-0.0706	0.0127	-0.0105	-18.3
-0.0008	-0.0765	0.012	-0.006	-18.5
-0.0008	-0.0436	0.0105	-0.0008	-18.7
-0.003	-0.0203	0.0112	0.0045	-18.9
-0.0046	-0.0008	0.009	0.0052	-19
-0.0053	0.0112	0.0127	0.0045	-19.2
-0.0046	0.0045	0.0082	0.0015	-19.4
-0.0046	0	0.0052	0.0022	-19.5
-0.0008	0.0007	0.0045	0.0052	-19.7
0.0015	0.0007	0	-0.0008	-19.8
-0.0008	0.0157	0.0045	-0.003	-20
-0.0008	0.0367	-0.0008	-0.003	-20.2
-0.0046	0.0435	0.0022	-0.0015	-20.3
-0.0023	0.024	0.0007	-0.0046	-20.6
-0.0008	-0.0008	0	-0.0046	-20.7
-0.0008	-0.0046	0.006	-0.0015	-20.9
-0.0015	-0.0046	0.0052	-0.0053	-21.1
-0.0023	-0.0225	0.0082	-0.006	-21.3
-0.0015	-0.0361	0.0105	-0.0053	-21.5
-0.003	-0.0308	0.012	-0.0053	-21.6
-0.0038	-0.0195	0.0157	-0.0091	-21.9
-0.0053	-0.0105	0.0165	-0.0158	-22.1
-0.0046	-0.0046	0.0165	-0.0098	-22.2
-0.0053	0.018	0.0105	-0.003	-22.5
-0.0068	0.0337	0.0097	0.0015	-22.6
-0.0053	0.027	0.0082	0.0037	-22.8
-0.0046	0.0165	0.009	-0.003	-23
-0.0046	-0.0083	0.0082	-0.003	-23.2
-0.0053	-0.033	0.0052	-0.003	-23.4
-0.0053	-0.0458	0.0067	-0.0046	-23.6
-0.0053	-0.0563	0.0075	-0.003	-23.8
-0.003	-0.042	0.0082	-0.0008	-24
-0.0023	-0.0165	0.0082	-0.0008	-24.2
-0.0015	-0.0053	0.0112	-0.003	-24.4
0.0007	0.003	0.015	-0.0023	-24.6
-0.0008	0.0082	0.018	-0.0046	-24.8
0.0007	0.0082	0.0157	-0.0091	-25
0.0015	0.006	0.0142	-0.0098	-25.2
0.003	0.003	0.018	-0.0068	-25.4
0.0052	0.0045	0.0142	-0.0038	-25.6
0.006	0.009	0.0142	-0.0015	-25.8
0.006	0.015	0.0082	-0.003	-26
0.0022	0.0105	0.0052	-0.0046	-26.2
0.0045	0.0052	0.0052	-0.0023	-26.4
0.006	0.0037	0.0007	-0.0008	-26.6
0.0052	-0.0068	-0.0046	-0.0008	-26.8
0.0052	-0.0128	-0.0083	0.0015	-27
0.0015	-0.024	-0.0075	0.003	-27.2
0.0045	-0.0353	-0.0091	0.0045	-27.4
0.0067	-0.0256	-0.0068	0.0045	-27.6
0.003	-0.0098	-0.0105	0.0045	-27.8
0.003	-0.0046	-0.0143	0.006	-28
-0.0008	0.0052	-0.0158	0.0052	-28.2
-0.0008	0.0135	-0.0203	0	-28.5
0.0015	0.0105	-0.0165	-0.0008	-28.6
0.0045	0.006	-0.0195	-0.0008	-28.8
0.0052	0.0022	-0.0203	-0.0015	-29
0.0015	0.0007	-0.0188	-0.0023	-29.3
0.0015	0.0007	-0.0233	-0.0046	-29.4
-0.0008	0.0015	-0.024	-0.0053	-29.6
0.0007	0.0007	-0.0293	-0.006	-29.8
0	0.0007	-0.0293	-0.0083	-30
-0.0038	0.0022	-0.0315	-0.006	-30.2
0.0015	0.0045	-0.0346	-0.0083	-30.4
0	0.0037	-0.0315	-0.0068	-30.6
-0.0015	0.0037	-0.0315	-0.0053	-30.8
-0.0008	0.003	-0.027	-0.0053	-31
-0.0038	0.003	-0.027	-0.0046	-31.2
-0.0015	-0.0008	-0.0233	-0.003	-31.4
-0.0015	-0.003	-0.0188	-0.003	-31.6
-0.0015	-0.0008	-0.0158	-0.0015	-31.8
0.0007	0.0007	-0.0113	0.0015	-32
0	0.0045	-0.012	0.003	-32.2
-0.0015	0.0112	-0.0068	0	-32.4
-0.003	0.012	-0.0046	0.0007	-32.6
-0.0008	0.0082	-0.0015	0.0045	-32.8
0.0007	0.0075	0.003	0.0067	-33
-0.0015	0.0045	-0.0023	0.0082	-33.2
0.0007	0.0045	0.003	0.0052	-33.3
0	0.0052	0.0022	0.0045	-33.5
-0.0015	0.003	0.0067	0.0037	-33.7
-0.0015	0	0.0135	0.003	-33.9
-0.0008	-0.0023	0.0127	0.003	-34.1
-0.003	-0.0008	0.0202	0.0015	-34.3
-0.0015	-0.0008	0.018	0.0067	-34.5
-0.0015	0.0007	0.021	0.009	-34.7
-0.0038	0.0022	0.0255	0.0052	-34.9
-0.0023	0.0022	0.0277	0.0037	-35.1
-0.003	0.0045	0.033	-0.0015	-35.2
-0.003	0.0045	0.0337	-0.0053	-35.4
-0.0038	0.0015	0.0367	-0.0053	-35.6
-0.0046	0.0037	0.036	-0.0053	-35.8
-0.0038	0.0045	0.0382	-0.0053	-36
-0.0023	0.0045	0.042	-0.0068	-36.2
-0.003	0.0052	0.0405	-0.006	-36.4
-0.0015	0.003	0.042	-0.0091	-36.6
-0.0015	0.0015	0.0367	-0.0113	-36.8
-0.0015	0.0007	0.0352	-0.012	-36.9
-0.0008	0.0007	0.0352	-0.0091	-37.2
-0.006	0.0007	0.03	-0.0053	-37.4
-0.0053	-0.0008	0.0255	-0.0015	-37.5
-0.003	0	0.0187	0.003	-37.7
-0.0083	0.0007	0.0195	0.0045	-37.9
-0.0046	-0.0008	0.018	0.0067	-38.1
-0.003	0.0022	0.0127	0.0067	-38.3
-0.0023	0.003	0.0172	0.009	-38.5
0.0007	0.003	0.0142	0.0082	-38.7
-0.0008	0.0037	0.0142	0.006	-38.9
0.0022	0.0022	0.0142	0.0067	-39.1
0	0.003	0.0157	0.0037	-39.3
-0.0023	0.0022	0.0165	0.0037	-39.5
-0.0015	0.003	0.0097	0	-39.6
-0.003	0.0007	0.009	-0.0046	-39.9
-0.0023	0.0007	0.006	-0.006	-40.1
-0.003	0.0007	0.0007	-0.0068	-40.2
-0.0023	0.0007	0.0037	-0.0015	-40.5
-0.0015	0.0015	0	-0.0008	-40.6
-0.003	0	0.0007	-0.0015	-40.9
-0.0008	-0.0008	0.0007	-0.0008	-41
0.0007	-0.0008	0.0007	0	-41.2
0.0015	-0.0008	0.0052	-0.0038	-41.4
0.0015	-0.0046	0.009	-0.006	-41.6
0.0007	-0.0068	0.0157	-0.0068	-41.9
0	-0.006	0.0225	-0.0053	-42
-0.0015	-0.0068	0.0367	-0.003	-42.2
-0.003	-0.0068	0.0315	-0.0015	-42.4
-0.0015	-0.0053	-0.0075	-0.003	-42.6
-0.0015	-0.0053	-0.0428	-0.0053	-42.8
-0.0023	-0.0068	-0.078	-0.0046	-43
-0.003	-0.006	-0.108	-0.0046	-43.2
-0.0053	-0.0046	-0.1238	-0.0053	-43.4
-0.0046	-0.0023	-0.1403	-0.0053	-43.6
-0.0015	-0.0008	-0.1365	-0.006	-43.8
0.0007	0.0007	-0.1275	-0.003	-44.1
0.0022	0	-0.1185	-0.0046	-44.2
0.0015	-0.0008	-0.108	-0.003	-44.4
0.0045	-0.0015	-0.1058	-0.0008	-44.6
0.0015	-0.0046	-0.0915	0.0022	-44.7
-0.0008	-0.0046	-0.0735	0.0067	-44.9
0	-0.0023	-0.0473	0.0075	-45.1
-0.0008	-0.0008	-0.0285	0.0075	-45.3
0.0007	0	-0.0105	0.0075	-45.5
-0.0015	0.003	0.009	0.0112	-45.6
-0.0008	0.003	0.0225	0.012	-45.8
0.0015	0.0015	0.0345	0.0105	-46
0.0007	0.003	0.0375	0.0112	-46.2
0.0045	0.003	0.0427	0.009	-46.4
0.0007	0.0067	0.0405	0.0082	-46.5
0.0015	0.0075	0.0375	0.0037	-46.7
0.003	0.0082	0.0352	0.0007	-46.9
0	0.009	0.0307	-0.0015	-47.1
0.0015	0.0022	0.0232	-0.003	-47.3
-0.0008	0.0015	0.0105	-0.003	-47.4
-0.0008	0.0007	-0.0015	-0.0068	-47.7
-0.0008	0.0007	-0.0158	-0.0091	-47.7
-0.0038	0.0007	-0.0278	-0.0075	-47.9
-0.0023	0	-0.0405	-0.0083	-48.1
-0.0015	0	-0.045	-0.0075	-48.2
-0.0008	-0.0015	-0.0428	-0.006	-48.4
-0.0008	-0.0008	-0.0383	-0.0008	-48.5
-0.0008	-0.0008	-0.0285	0.0015	-48.6
-0.0015	-0.0015	-0.0188	0.003	-48.8
-0.0046	-0.0023	-0.0046	0.0022	-49
-0.0038	-0.0015	0.0045	0.0007	-49.1
-0.0038	-0.0015	0.012	0.0015	-49.2
-0.003	-0.003	0.018	-0.0023	-49.4
-0.0015	-0.0046	0.0232	-0.0015	-49.5
-0.0015	-0.0053	0.0292	-0.0008	-49.7
0.003	-0.0053	0.036	0.0007	-49.9
0.0067	-0.0075	0.0457	0.003	-50
0.006	-0.0075	0.0465	0.0045	-50.1
0.0045	-0.0075	0.0495	0.0052	-50.3
0.0037	-0.0091	0.0495	0.0052	-50.4
0.0045	-0.0075	0.0495	0.0067	-50.6
0.0045	-0.0075	0.0532	0.0052	-50.7
0.0015	-0.0091	0.051	0.0015	-50.8
0	-0.0091	0.0495	0.0015	-50.9
0.0022	-0.0083	0.0457	0.003	-51
-0.0008	-0.0083	0.0427	0.0022	-51.1
-0.003	-0.0098	0.0367	0.0015	-51.2
-0.0038	-0.0091	0.0322	0	-51.3
-0.0068	-0.0083	0.0277	-0.0015	-51.3
-0.006	-0.0068	0.027	-0.0008	-51.4
-0.0053	-0.0083	0.0277	-0.0008	-51.6
-0.0038	-0.0083	0.0232	0.0007	-51.7
-0.0053	-0.0068	0.024	0.0007	-51.8
-0.0053	-0.0046	0.0232	-0.0008	-51.8
-0.003	-0.0038	0.0232	-0.003	-51.9
-0.0046	-0.0046	0.0247	-0.0038	-52
-0.0038	-0.003	0.0217	-0.003	-52.1
-0.003	-0.0023	0.0225	-0.0046	-52.2
-0.0008	0	0.0195	-0.0023	-52.3
0.003	0.0007	0.0165	-0.0008	-52.4
0.0015	0.003	0.0157	0.0015	-52.6
0.0007	0.0067	0.012	0.0045	-52.6
0.0045	0.009	0.012	0.0052	-52.7
0.0045	0.0135	0.012	0.0052	-52.7
0.0052	0.0127	0.0105	0.0067	-52.8
0.0052	0.012	0.012	0.0082	-52.9
0.0022	0.0112	0.0105	0.0067	-53
0.0022	0.0082	0.0075	0.0045	-53.1
0.0007	0.009	0.0082	0.0045	-53.1
0.0022	0.0067	0.006	0.0015	-53.2
0.0015	0.003	0.0067	-0.0008	-53.3
-0.0038	0.0007	0.0097	-0.003	-53.4
-0.0023	-0.0008	0.0097	-0.0046	-53.5
-0.003	-0.003	0.0112	-0.0046	-53.6
-0.0053	-0.0015	0.0105	-0.0075	-53.6
-0.0046	-0.003	0.0067	-0.0083	-53.7
-0.0046	-0.0053	0.0037	-0.0105	-53.8
-0.0038	-0.0053	0	-0.0143	-53.9
-0.0053	-0.0046	-0.003	-0.0113	-54
-0.003	-0.0015	-0.0008	-0.0068	-54
-0.0038	0.003	0.0037	-0.0038	-54.1
-0.0046	0.0067	0.0045	-0.0008	-54.1
-0.0008	0.0082	0.0082	0	-54.2
0	0.0105	0.0052	-0.0015	-54.2
0.0015	0.009	0.0007	0.0007	-54.3
0.0015	0.0105	0.0015	0.0022	-54.4
-0.003	0.012	-0.0015	0.0015	-54.4
-0.003	0.0082	-0.0038	0.0007	-54.5
-0.0023	0.0067	-0.0053	-0.0008	-54.5
-0.0008	0.0067	-0.006	0.0007	-54.5
0.0022	0.0067	-0.0046	0.0015	-54.6
0.0015	0.0067	-0.0053	0.0022	-54.6
0.0007	0.003	-0.003	0.003	-54.7
-0.0046	0.003	0	0.0015	-54.7
-0.0068	0.0015	-0.0015	0.0022	-54.8
-0.0046	0.0037	-0.0008	0.0022	-54.9
-0.0015	0.0052	-0.0015	0.003	-54.9
0.0022	0.0045	-0.003	0.003	-54.9
0	0.0067	-0.003	0.0007	-55
-0.0008	0.0067	-0.0008	0.0015	-55
0.003	0.0067	-0.0023	0.0015	-55.1
0.0007	0.0037	-0.0008	0.0015	-55.1
0.0015	0.0045	0.003	0.0007	-55.1
0.0015	0.0052	0.003	0.0007	-55.1
0.0007	0.0075	0.0052	0.0022	-55.1
0.0015	0.009	0.0037	0.003	-55.2
-0.0008	0.0067	0.006	0.0022	-55.2
-0.0008	0.0045	0.0052	0.0007	-55.2
-0.0046	0.003	0.003	0.0007	-55.2
-0.0046	0.0037	-0.0015	0	-55.2
-0.003	0.0037	-0.0023	-0.0023	-55.3
-0.0053	0.0007	-0.0038	0.0007	-55.3
-0.003	-0.003	-0.0068	0.0007	-55.3
-0.006	-0.003	-0.006	-0.0015	-55.3
-0.006	-0.0023	-0.0098	0	-55.3
-0.003	-0.0015	-0.0083	0.0007	-55.3
-0.0046	-0.0008	-0.0091	0.0007	-55.4
-0.0053	0	-0.0075	0.003	-55.4
-0.003	0.0007	-0.0046	0.003	-55.4
-0.003	0	-0.0046	0.003	-55.4
-0.0015	-0.0015	-0.0008	0.0007	-55.4
0.003	-0.003	-0.0008	-0.0008	-55.4
0.0052	-0.0053	0.003	0.0007	-55.4
0.0037	-0.0053	0.003	0.0007	-55.4
0.0052	-0.003	0.0015	-0.0015	-55.4
0.0037	-0.0015	0.0007	-0.0046	-55.3
-0.0015	-0.0015	-0.0015	-0.003	-55.3
-0.0015	-0.0015	0.0007	-0.0038	-55.3
-0.003	-0.0008	0.0015	-0.003	-55.3
-0.0023	-0.0015	0.0052	-0.0023	-55.2
-0.0008	-0.003	0.0052	-0.0023	-55.2
0	-0.003	0.003	-0.0015	-55.2
0.0007	-0.0038	0.0037	-0.003	-55.1
-0.0008	-0.0038	0.0015	-0.0046	-55.1
0.0007	-0.003	0.0022	-0.003	-55.1
0	-0.0038	0.0007	-0.0023	-55.1
-0.0046	-0.0015	0.0007	-0.0015	-55
-0.0046	-0.0008	0.0007	-0.0008	-55
-0.0053	0	-0.0015	-0.0008	-55
-0.0068	-0.0008	-0.0008	-0.003	-55
-0.0046	-0.0046	-0.0015	-0.0008	-54.9
-0.003	-0.0068	-0.0008	-0.0008	-54.9
-0.0023	-0.0075	-0.0038	-0.0015	-54.9
0.0007	-0.0068	-0.003	-0.0015	-54.8
0.0022	-0.0083	0.0007	-0.003	-54.8
-0.0008	-0.0068	-0.0015	-0.0008	-54.7
0.0015	-0.0053	0.0007	-0.0008	-54.7
0.0037	-0.0068	0.0015	-0.0023	-54.6
0.0015	-0.003	0.0015	0.0015	-54.6
0.0007	-0.0015	-0.0008	0.0015	-54.5
-0.0015	0.0007	-0.0046	-0.0008	-54.5
-0.003	0.0015	-0.0046	-0.0008	-54.5
-0.0046	-0.0008	-0.003	-0.0023	-54.5
-0.0038	-0.0015	-0.0015	0	-54.4
-0.0015	-0.003	-0.0015	0.0022	-54.4
0.0007	-0.0015	0.0015	0.0007	-54.3
0.0007	-0.0015	0	0.0007	-54.3
0.0007	-0.0015	0.0007	0.0007	-54.2
0.0015	-0.0015	0.0015	-0.0008	-54.2
-0.003	0	0.0007	0.0007	-54.1
-0.003	0.0015	0.0015	0.0022	-54.1
-0.0046	0.0007	-0.003	0.0037	-54
-0.0075	0.0007	-0.0046	0.003	-54
-0.003	0.0007	-0.0053	0.0007	-53.9
-0.0038	0	-0.0053	-0.0008	-53.9
-0.0015	-0.0015	-0.0046	-0.0015	-53.8
0	-0.0023	-0.0053	-0.0023	-53.7
-0.0023	-0.0046	-0.0023	-0.0015	-53.7
-0.003	-0.003	-0.0023	-0.0015	-53.6
-0.0046	0	-0.0015	-0.0015	-53.6
-0.0015	-0.0015	-0.0038	0	-53.5
-0.0046	-0.0008	-0.0075	-0.0008	-53.5
-0.0053	0.0007	-0.0046	0	-53.4
-0.0038	0.0007	-0.0068	-0.0008	-53.3
-0.0008	0.0015	-0.0053	-0.0008	-53.3
0.0007	0.0015	-0.003	-0.0015	-53.2
-0.0015	0.003	-0.0038	-0.0023	-53.1
-0.0008	0.0037	-0.0015	0	-53.1
-0.0015	0.0007	-0.0038	-0.0008	-53.1
-0.0008	-0.0008	-0.0008	0	-53
-0.0008	-0.0008	-0.0008	-0.0008	-52.9
-0.003	-0.0008	0.0007	0	-52.8
-0.0015	-0.0015	0.003	0	-52.8
-0.0015	-0.0023	0.0022	0.0015	-52.7
-0.0008	-0.0015	0.003	0.0015	-52.6
-0.0008	-0.003	0.0015	-0.0015	-52.5
-0.0008	-0.0046	0.0037	-0.0008	-52.5
0	-0.0053	0.0045	-0.0015	-52.4
-0.0015	-0.0046	0.0045	-0.0008	-52.3
0	-0.003	0.0037	-0.0008	-52.2
0.0007	-0.0053	0.0015	0	-52.2
0	-0.0053	0.003	0.0007	-52.1
-0.0008	-0.0046	0.0015	-0.0015	-52
-0.0038	-0.0053	0.0007	-0.0008	-51.9
-0.0053	-0.0046	0	-0.003	-51.8
-0.0053	-0.0023	0	-0.0015	-51.8
-0.0046	-0.0023	0.0015	0.0007	-51.7
-0.003	-0.0015	-0.0008	-0.0023	-51.6
-0.0008	-0.0015	0	-0.0008	-51.5
-0.0015	-0.0008	0.0015	-0.0008	-51.5
-0.0053	-0.0015	0.0022	-0.0015	-51.4
-0.0038	-0.0023	0.0052	0.0015	-51.3
-0.0046	-0.0015	0.0045	0.0022	-51.2
-0.0083	-0.0015	0.003	0.003	-51.1
-0.0046	-0.0023	0.0045	0.0022	-51
-0.0053	0.0007	0.0052	0.003	-50.9
-0.0053	0.003	0.0067	0.003	-50.8
0	0.0015	0.0067	0.0007	-50.7
-0.0008	0.003	0.0052	0.0007	-50.6
0	0.0015	0.0045	0.0007	-50.5
-0.0008	0.0007	0.0052	-0.0015	-50.4
-0.0046	-0.0008	0.0045	-0.003	-50.3
-0.003	-0.003	0.0067	-0.0008	-50.2
0	-0.0046	0.009	-0.0008	-50.1
0.0007	-0.003	0.009	-0.003	-50
0.003	-0.0038	0.0112	-0.003	-49.9
0.003	-0.0046	0.0105	-0.0008	-49.8
0.0052	-0.003	0.0082	-0.0008	-49.7
0.0067	0.0007	0.0037	-0.0015	-49.6
0.0067	0.0022	0.0007	-0.0015	-49.5
0.0082	0.0015	-0.0008	-0.003	-49.4
0.0052	0.0022	0	-0.0023	-49.3
0.009	0.0015	0.0015	-0.0038	-49.2
0.0097	0	0.0022	-0.003	-49.1
0.009	-0.0008	0.003	0	-49
0.0142	-0.003	0.0022	0.0007	-48.9
0.0142	-0.003	0.003	0.0015	-48.8
0.0187	-0.0015	0.0015	0.0015	-48.6
0.0195	-0.0008	0.0015	0.0022	-48.6
0.0165	0.0007	0.003	0.0022	-48.4
0.0202	0	0.0007	0.0015	-48.3
0.0157	0.0007	0	0.0022	-48.2
0.0142	-0.0008	-0.0015	0.0015	-48.1
0.0127	0.0007	-0.003	0	-48
0.0082	0.0022	-0.0015	-0.0015	-47.9
0.0067	0.0015	-0.0008	-0.0023	-47.8
0.0015	0.0015	0.0007	0	-47.7
0.0022	0	-0.0015	-0.0015	-47.6
0.0007	-0.0008	-0.0023	-0.003	-47.5
0.0007	-0.003	-0.0015	-0.003	-47.3
0.0007	-0.0046	-0.0015	-0.003	-47.3
-0.003	-0.003	0.0015	-0.0008	-47.1
-0.0015	-0.0046	0.0015	0.0015	-47
-0.0046	-0.0046	0.0067	0.003	-46.8
-0.0046	-0.0053	0.0052	0.0022	-46.7
-0.0023	-0.006	0.0067	0.0007	-46.6
-0.0068	-0.0068	0.0075	0	-46.4
-0.0046	-0.0053	0.0045	-0.0008	-46.3
-0.0053	-0.0038	0.0075	-0.003	-46.2
-0.0053	-0.003	0.003	-0.0015	-46
-0.0053	-0.0023	0.0007	-0.0015	-45.9
-0.0098	-0.0008	0	0.0007	-45.8
-0.0091	-0.0008	0.0007	0.0022	-45.6
-0.012	0.0015	0.0015	0.0007	-45.5
-0.0143	0.0022	-0.0008	0.0007	-45.4
-0.0098	0.0015	0.0007	-0.0015	-45.2
-0.0091	0.0007	-0.0015	-0.0015	-45.1
-0.0105	-0.0008	0.0015	-0.0023	-45
-0.0075	0.0007	-0.0015	-0.003	-44.8
-0.0046	0.0007	-0.0015	-0.0015	-44.7
-0.0053	0.0015	0	-0.0023	-44.6
-0.0046	0.0007	-0.0008	-0.0015	-44.4
-0.0023	0.003	0.003	-0.0015	-44.2
-0.0023	0.0037	0.0015	-0.0015	-44.1
0	0.0045	0.0015	-0.0008	-44
-0.0008	0.0022	-0.0015	-0.0015	-43.8
-0.003	0.0007	0	-0.0008	-43.7
0	0.003	0.003	0.0007	-43.5
0.0022	0.003	0.0045	-0.0008	-43.3
0.0007	0.003	0.0082	0.0007	-43.2
0.0015	0.003	0.0052	0.0007	-43
0.0015	0.0022	0.006	0	-42.9
0.0007	0.0015	0.0082	-0.0015	-42.8
0.003	0.0007	0.009	-0.003	-42.6
0.003	0.003	0.0082	-0.0015	-42.4
0.0015	0.003	0.0082	-0.0008	-42.3
0.0022	0.003	0.009	0.0007	-42.1
0.0037	0.0015	0.0045	0.0015	-42
0.003	-0.0008	0.0045	0.0007	-41.9
0.0045	-0.003	0.003	0.0015	-41.7
0.0022	-0.0046	0.0052	0.0007	-41.5
0	-0.0038	0.0135	0.0015	-41.4
0.006	-0.0038	0.0135	0.0015	-41.2
0.003	-0.003	0.0105	-0.0008	-41
0.0015	-0.003	0.0052	0.0007	-40.8
0	-0.0015	-0.0015	-0.0023	-40.6
-0.006	-0.0008	-0.0083	-0.0015	-40.5
-0.0053	-0.0015	-0.0188	-0.0023	-40.3
-0.0046	-0.0015	-0.021	-0.0015	-40.1
-0.003	-0.0038	-0.021	-0.0015	-39.9
-0.0038	-0.003	-0.0158	-0.0015	-39.7
-0.006	-0.0008	-0.006	0.0007	-39.6
-0.0068	-0.003	-0.0015	-0.0015	-39.4
-0.0091	-0.003	0.0052	0.0015	-39.2
-0.0091	-0.003	0.0067	0.0015	-39.1
-0.0083	-0.0038	0.009	0	-38.9
-0.0053	-0.003	0.0097	0.0015	-38.7
-0.0046	-0.0015	0.0105	0.0015	-38.5
-0.0046	0.0007	0.0135	0.003	-38.3
-0.006	0.0022	0.0105	0.0007	-38.2
-0.0083	0.0015	0.0097	0.0007	-38
-0.0068	-0.0015	0.0052	-0.0008	-37.8
-0.0083	-0.0046	0.0007	-0.0008	-37.6
-0.0113	-0.0046	-0.0046	0.0007	-37.4
-0.0105	-0.0068	-0.0046	-0.003	-37.2
-0.0128	-0.0068	-0.0046	-0.0023	-37
-0.0158	-0.0053	-0.0053	-0.0015	-36.8
-0.0181	-0.0046	-0.0046	-0.0008	-36.6
-0.0165	-0.0038	-0.0038	-0.0015	-36.4
-0.0105	-0.0038	0.0022	-0.0015	-36.2
0.0015	-0.0053	0.0052	-0.0008	-36
0.0127	-0.0083	0.0097	0.0007	-35.8
0.018	-0.006	0.012	0.0007	-35.6
0.0232	-0.0053	0.0105	0.003	-35.4
0.0202	-0.0068	0.009	0.0015	-35.2
0.0157	-0.0015	0.0022	-0.0008	-35
0.009	-0.0015	-0.0008	-0.0015	-34.8
-0.0068	-0.003	0.0015	-0.0008	-34.6
-0.0128	-0.0038	0.006	0	-34.4
-0.0181	-0.0053	0.009	0.0015	-34.2
-0.024	-0.003	0.012	0.0037	-34
-0.021	-0.0023	0.0202	-0.003	-33.8
-0.0181	-0.0038	0.0232	-0.0068	-33.6
-0.012	-0.0015	0.018	-0.0075	-33.3
-0.0083	-0.0015	0.0127	-0.0091	-33.1
-0.0068	0.0007	0	-0.0053	-32.9
-0.0053	0.003	-0.0128	-0.0046	-32.6
-0.0008	0.003	-0.0256	-0.0038	-32.4
0.0045	0.0052	-0.0323	-0.0023	-32.2
0.003	0.0045	-0.0323	0	-32
0.0075	0.0037	-0.0293	-0.0008	-31.7
0.009	0.0045	-0.0195	0.0015	-31.5
0.012	0.0052	-0.0143	0.003	-31.3
0.0187	0.0052	-0.0098	0.0015	-31.1
0.0165	0.0015	-0.003	0.0015	-30.8
0.0157	0.003	-0.0015	0.0007	-30.6
0.015	0.0045	0.0045	0.003	-30.3
0.0127	0.0052	0.0067	0.0045	-30.1
0.012	0.0045	0.0082	0.003	-29.9
0.012	0.0007	0.0135	0.0015	-29.7
0.0112	-0.0015	0.0135	0.0007	-29.4
0.012	-0.0015	0.0165	0.0007	-29.2
0.0202	-0.003	0.0127	-0.0008	-28.9
0.0255	-0.0053	0.0082	0.0007	-28.7
0.0292	-0.0038	0.0082	0	-28.5
0.033	-0.0053	0.003	-0.0015	-28.2
0.0367	-0.0068	-0.0008	-0.006	-28
0.036	-0.0053	-0.0038	-0.0053	-27.8
0.0247	-0.0038	-0.0038	-0.0038	-27.5
0.0142	0.003	-0.0075	-0.0046	-27.3
0.0045	0.0067	-0.0083	-0.0053	-27
-0.0008	0.003	-0.0068	-0.0046	-26.8
-0.0023	0.003	0.0007	-0.0008	-26.6
-0.003	0.0082	0.0165	0.0015	-26.3
-0.0015	0.0052	0.033	0.0037	-26.1
0.0007	0.0052	0.0405	0.003	-25.8
0.0067	0.0045	0.0345	-0.0008	-25.6
0.006	0.0045	0.03	0	-25.3
0.0007	0.0067	0.021	-0.0008	-25.1
-0.0113	0.0007	0.0052	-0.0015	-24.8
-0.021	-0.0023	-0.0083	0	-24.6
-0.0203	-0.0105	-0.0218	0	-24.3
-0.021	-0.0203	-0.027	0.0007	-24.1
-0.0143	-0.0105	-0.0278	0.0022	-23.9
-0.0105	0.003	-0.0218	0.0022	-23.6
-0.012	0.015	-0.0143	0.003	-23.3
-0.0068	0.024	-0.0113	0.0052	-23.1
-0.0105	0.0232	-0.0023	0.0067	-22.8
-0.0158	0.0127	0.0007	0.0052	-22.5
-0.0225	0.0075	0.0037	0.0052	-22.3
-0.0278	0.015	0.0015	0.0075	-22.1
-0.033	0.0135	-0.003	0	-21.8
-0.042	-0.0008	-0.0091	-0.0068	-21.6
-0.0383	-0.0091	-0.0203	-0.0075	-21.3
-0.0315	-0.0075	-0.0233	-0.012	-21
-0.0293	-0.0075	-0.0218	-0.0091	-20.7
-0.0278	-0.006	-0.012	-0.0053	-20.5
-0.0263	-0.0023	-0.0068	0.0007	-20.3
-0.0203	-0.0015	-0.0038	0.0052	-20
-0.0181	0.003	0.0045	0.0067	-19.8
-0.0181	0.0082	0.0112	0.0067	-19.5
-0.012	0.0127	0.0202	0.0097	-19.2
-0.0068	0.0165	0.033	0.0127	-19
-0.0046	0.0127	0.0705	0.0112	-18.7
-0.0038	0.0067	0.093	0.0082	-18.5
-0.006	-0.0038	0.0742	-0.0105	-18.2
-0.0105	-0.012	0.0405	-0.0405	-18
-0.0128	-0.0181	-0.0203	-0.0361	-17.7
-0.0128	-0.0248	-0.0706	-0.0158	-17.4
-0.0128	-0.0195	-0.099	-0.0113	-17.2
-0.0105	-0.0173	-0.075	0.0022	-16.9
-0.0023	-0.015	0.0067	0.0052	-16.7
-0.0053	-0.0105	0.0495	0.0067	-16.4
-0.0053	-0.0098	0.0525	0.009	-16.2
-0.0015	0.0037	0.0247	-0.0068	-15.9
0	0.0217	-0.0323	-0.0346	-15.6
0.0007	0.021	-0.0728	-0.0308	-15.4
-0.0015	-0.0091	-0.099	0.009	-15.1
0.003	-0.0308	-0.0983	0.0172	-14.9
0.0052	-0.024	-0.075	0.039	-14.6
0.0067	-0.0091	-0.0473	0.084	-14.4
0.0052	0.0142	-0.0173	0.1072	-14.1
0.003	0.0405	-0.0023	0.0862	-13.9
0.0052	0.0555	0.0217	0.0285	-13.6
0.0007	0.0232	0.0465	-0.042	-13.4
-0.003	-0.0563	0.0577	-0.0856	-13.1
-0.0038	-0.1088	0.0585	-0.0818	-12.9
-0.0015	-0.12	0.0585	-0.1133	-12.6
-0.0008	-0.1426	0.0607	-0.1275	-12.4
0	-0.2078	0.0502	-0.1065	-12.1
0.0052	-0.2648	0.0442	-0.0495	-11.8
0.0037	-0.2153	0.0367	0.0727	-11.6
0.0082	-0.0578	0.033	0.0472	-11.3
0.012	0.108	0.0247	-0.0046	-11.1
0.0067	0.3555	0.0105	0.087	-10.8
0.0082	0.5887	0.0007	0.1027	-10.6
0.0045	0.507	-0.0135	0.0825	-10.4
0.0015	0.258	-0.0218	0.063	-10.1
0.0052	0.1657	-0.0225	0.0337	-9.9
0.006	0.1612	-0.0225	0.0345	-9.6
0.0075	0.0705	-0.0143	0.0052	-9.4
0.0045	-0.0256	-0.006	0.003	-9.1
-0.0023	-0.0728	0.0015	0	-8.9
-0.0046	-0.1035	0.0165	-0.0615	-8.7
-0.0046	-0.1441	0.039	-0.126	-8.5
-0.003	-0.1628	0.048	-0.1155	-8.2
0.003	-0.105	0.0352	-0.042	-8.1
0.012	-0.0256	0.0232	0.0427	-7.8
0.0202	0.021	-0.0046	0.132	-7.6
0.0255	-0.0218	-0.0256	0.147	-7.4
0.0217	-0.06	-0.039	0.0952	-7.2
0.0165	-0.0293	-0.039	0.036	-6.9
0.0067	-0.0413	-0.0105	0.0307	-6.7
-0.0105	-0.042	0.03	0.0577	-6.5
-0.0218	-0.0443	0.0457	0.0405	-6.3
-0.024	-0.0923	0.0307	-0.012	-6
-0.015	-0.1155	0.0217	-0.1935	-5.9
-0.0023	-0.1103	0.0052	-0.318	-5.6
0.0082	-0.078	-0.0195	-0.2055	-5.4
0.0135	-0.0173	-0.0555	0.024	-5.2
0.012	0.0675	-0.0803	0.1275	-5
0.0142	0.0757	-0.0885	0.0547	-4.8
0.0127	0.0352	-0.0773	-0.0091	-4.6
0.0112	0.033	-0.0495	-0.0585	-4.5
0.0052	0.0045	-0.0181	-0.1021	-4.3
0.0015	-0.0278	0.0307	-0.1095	-4.1
0.0052	-0.042	0.048	-0.0023	-4
0.003	-0.0458	0.0495	0.0817	-3.9
0.003	-0.0368	0.054	0.1237	-3.7
0.0015	-0.0173	0.054	0.2025	-3.5
-0.0046	0.0112	0.057	0.147	-3.4
-0.0053	0.003	0.0495	0.057	-3.2
-0.0091	-0.0203	0.0375	0.036	-3.1
-0.0113	-0.0173	0.0165	0.0345	-2.9
-0.0091	-0.0008	-0.0015	0.0135	-2.7
-0.0075	0.0022	-0.0008	-0.045	-2.6
-0.0015	0.003	0.0015	-0.1006	-2.4
-0.0008	-0.054	0.0067	-0.1095	-2.3
-0.0046	-0.1665	0.0052	-0.114	-2.1
-0.0068	-0.1575	0.0142	-0.129	-1.9
-0.0053	-0.0953	0.0465	-0.15	-1.8
-0.0015	-0.0893	0.0645	-0.159	-1.7
0.0022	-0.027	0.0525	-0.1155	-1.6
0.0037	0.0847	0.024	-0.0818	-1.5
0.009	0.2272	-0.0195	0.0202	-1.4
0.0217	0.327	-0.0555	0.0555	-1.3
0.0247	0.3007	-0.0645	0.0795	-1.2
0.0217	0.252	-0.0308	0.1492	-1.1
0.0232	0.105	0.024	0.0915	-1
0.0142	-0.0413	0.0345	0.2242	-0.9
-0.006	-0.042	0.0232	0.2722	-0.8
-0.024	-0.0503	-0.0098	0.138	-0.7
-0.033	-0.063	-0.0346	-0.0023	-0.6
-0.0315	-0.0825	-0.039	-0.1426	-0.5
-0.0218	-0.0915	-0.0428	-0.0188	-0.4
0.0037	-0.0915	-0.0203	0.1425	-0.3
0.0262	-0.1553	-0.0128	0.1807	-0.2
0.0277	-0.1696	-0.0135	0.0045	-0.1
0.0142	-0.0878	-0.0158	-0.1373	0
-0.003	0.0397	-0.0218	-0.105	0.1
-0.021	0.1492	0.0007	-0.2011	0.2
-0.042	0.1785	0.0225	-0.1785	0.3
-0.042	0.1335	0.0315	-0.021	0.3
-0.0263	0.1087	0.042	0.0885	0.3
-0.015	0.0817	0.0502	0.084	0.3
0.009	-0.006	0.048	0.0637	0.4
0.0292	-0.0413	0.027	0.078	0.4
0.0405	-0.0533	0.009	0.0502	0.4
0.0367	-0.048	-0.0083	0.0765	0.4
0.0105	-0.0218	-0.0203	0.0307	0.4
-0.0053	-0.0368	-0.0188	-0.0135	0.5
-0.0181	-0.0495	-0.024	-0.0285	0.5
-0.0195	-0.063	-0.0203	-0.0533	0.5
-0.0105	-0.0765	-0.0218	-0.0368	0.5
-0.0068	-0.09	-0.0233	-0.0495	0.6
-0.0008	-0.0818	-0.012	-0.0383	0.6
-0.003	-0.0518	-0.006	-0.0458	0.6
-0.003	-0.0338	0.0045	-0.0413	0.6
-0.0068	-0.0105	0.0045	-0.0181	0.7
-0.0091	0.009	0.0097	-0.0173	0.7
0	0.0285	0.0217	-0.0278	0.7
0.0045	0.0427	0.033	-0.054	0.7
0.0022	0.0352	0.0367	-0.039	0.7
-0.0083	0.0007	0.0202	0.009	0.6
-0.0278	-0.021	0.003	0.0382	0.6
-0.0511	-0.0195	-0.0195	-0.0046	0.5
-0.0691	0.0067	0.0067	-0.0743	0.4
-0.0818	0.063	0.09	-0.1125	0.4
-0.063	0.0787	0.1327	-0.0825	0.4
-0.015	0.075	0.1095	0.0592	0.3
0.0427	0.0855	0.0457	0.0652	0.3
0.0915	0.0645	-0.057	0.0255	0.2
0.1065	0.0292	-0.1298	0.1537	0.2
0.1177	0.0007	-0.1598	0.1057	0.1
0.1162	-0.0346	-0.1741	-0.0098	0.1
0.1125	-0.0495	-0.15	-0.0465	0
0.1117	-0.039	-0.1185	-0.108	0
0.0652	-0.0623	-0.06	-0.0878	-0.1
0.0172	-0.0878	-0.0046	-0.1065	-0.1
-0.0285	-0.0878	0.0202	-0.0608	-0.2
-0.0706	-0.0675	0.0502	0.0637	-0.3
-0.0893	-0.033	0.0622	0.0952	-0.3
-0.1013	-0.0046	0.075	0.0195	-0.5
-0.075	0.0307	0.09	0.0007	-0.5
-0.039	0.0825	0.0907	0.1957	-0.6
-0.0053	0.1635	0.093	0.2475	-0.8
0.0277	0.2302	0.0697	0.1282	-0.9
0.033	0.174	0.0405	0.0502	-0.9
0.024	0.0457	0.0232	-0.012	-1.1
0.0105	0	0.0165	-0.0068	-1.2
-0.0091	-0.003	0.0225	-0.0083	-1.3
-0.0323	-0.0256	0.012	-0.0338	-1.4
-0.0428	-0.0488	0.0105	-0.045	-1.5
-0.0405	-0.0691	0.0082	-0.0428	-1.6
-0.0338	-0.0638	-0.0091	-0.027	-1.7
-0.0203	-0.0578	-0.0256	-0.0428	-1.8
-0.0181	-0.0405	-0.0308	-0.0953	-1.9
-0.0113	-0.0293	-0.0225	-0.1305	-2
-0.003	-0.0383	-0.012	-0.0953	-2.1
0.0015	-0.0346	-0.003	-0.0825	-2.3
0.0112	-0.048	-0.0046	-0.1208	-2.4
0.0082	-0.0368	-0.03	-0.1245	-2.5
0.0007	-0.003	-0.06	-0.057	-2.6
0.0007	0.03	-0.066	0.0862	-2.7
0.0007	0.057	-0.0608	0.1605	-2.8
0.0007	0.0405	-0.0315	0.129	-3
-0.0015	0.0255	0.0202	0.1005	-3.1
-0.0023	0.009	0.054	0.066	-3.2
-0.003	-0.0023	0.066	0.0165	-3.3
-0.0008	-0.0105	0.0472	-0.003	-3.4
0.0037	-0.0578	0.009	-0.0353	-3.6
0.0007	-0.0713	-0.024	-0.0518	-3.7
0	-0.0495	-0.0503	-0.0293	-3.8
-0.0105	-0.0308	-0.0645	-0.012	-3.9
-0.0293	-0.0143	-0.0608	0.003	-4.1
-0.0315	-0.0053	-0.0353	-0.0046	-4.2
-0.0338	-0.0046	0.0052	-0.0091	-4.3
-0.0256	-0.0053	0.018	-0.0135	-4.4
-0.0083	0.0007	0.009	-0.0105	-4.5
0.018	0.0075	0.0165	0.0007	-4.6
0.0487	0.0135	0.009	0.0007	-4.8
0.0615	0.0127	0.0045	-0.0008	-4.8
0.063	0.0067	0.0045	0.0037	-4.8
0.0352	0.0082	0.024	0.0352	-4.8
0.0097	0.0135	0.0675	0.0427	-4.8
0.0015	0.0142	0.0862	0.0015	-4.8
-0.0165	0.0045	0.075	-0.0233	-4.8
-0.0188	-0.0023	0.0307	-0.0181	-4.9
-0.0248	-0.0053	-0.0353	-0.0023	-4.9
-0.0285	0.0007	-0.0765	0.021	-4.9
-0.0105	0.0165	-0.0773	0.054	-4.9
0.0052	0.0247	-0.0608	0.0645	-4.9
0.03	0.015	-0.0533	0.0367	-4.9
0.033	-0.0181	-0.0495	0.021	-4.9
0.027	-0.0346	-0.0405	0.0255	-5
0.03	-0.0278	-0.0263	0.0307	-5
0.0172	-0.0233	0.003	0.0007	-5
0.0037	-0.0113	0.0165	-0.126	-5
-0.012	0.012	0.0195	-0.2513	-5
-0.0278	0.0525	0.0307	-0.1868	-5
-0.0338	0.0922	0.0322	0.0022	-5
-0.0405	0.0855	0.0435	0.0817	-5
-0.0346	0.033	0.0562	0.0682	-5
-0.0188	0.003	0.06	0.0622	-5
-0.0083	-0.0046	0.0502	0.0337	-5
0.0015	-0.0293	0.0382	0.0285	-5
0.006	-0.0353	0.0232	0.0187	-5
0.0105	-0.0413	0.012	-0.006	-5
0.0255	-0.0293	0.006	-0.0181	-5
0.0322	-0.0015	-0.0128	-0.0308	-5
0.0277	0.0082	-0.0158	-0.003	-5
0.0232	0.0217	-0.0158	0.0195	-5
0.0127	0.012	-0.0105	0.036	-5
-0.0023	-0.0195	0.0142	0.0532	-5
-0.024	-0.0405	0.0607	0.0345	-5
-0.0398	-0.0428	0.0832	0.0172	-5
-0.0488	-0.027	0.0465	0.0097	-5
-0.0495	-0.0128	0.0022	0.003	-5
-0.0218	-0.0181	-0.054	0.0015	-5
0.0075	-0.0293	-0.0908	-0.0046	-5
0.027	-0.0368	-0.093	-0.015	-5
0.0352	-0.0315	-0.075	-0.0353	-5.1
0.0315	-0.0098	-0.0293	-0.0555	-5.3
0.018	-0.0083	0.0045	-0.027	-5.5
-0.003	-0.0158	0.0352	-0.012	-5.7
-0.0053	-0.003	0.057	-0.0091	-5.9
-0.0046	0.0045	0.0705	0.0045	-6.1
-0.003	0.012	0.06	-0.0105	-6.3
0.0022	0.0045	0.0277	-0.0038	-6.4
0.0052	-0.0165	-0.012	-0.0038	-6.6
0.0112	-0.0233	-0.063	-0.0008	-6.8
0.012	-0.0256	-0.078	0.0067	-7
0.021	-0.0248	-0.0833	0.0007	-7.2
0.0202	-0.0278	-0.0825	0.0067	-7.3
0.0105	-0.0068	-0.0593	0.0082	-7.5
0.0037	0.0105	-0.033	0.0097	-7.7
-0.0181	0	-0.0068	0.0052	-7.9
-0.027	0.009	0.0007	0.0052	-8.1
-0.024	0.0142	0.0082	0.003	-8.3
-0.024	0.0097	0.0232	-0.0015	-8.5
-0.0195	0.0127	0.036	0.0037	-8.7
-0.015	0.0082	0.0487	0.0052	-8.9
-0.012	0.0067	0.054	0.0015	-9
-0.0233	0.0075	0.0502	-0.0098	-9.3
-0.0323	0.012	0.0337	-0.0105	-9.5
-0.0293	0.018	0.0165	-0.0068	-9.7
-0.0143	0.0165	0	-0.0015	-9.9
0.0217	0.0172	-0.006	0.0067	-10.1
0.0532	0.024	-0.0046	0.0082	-10.3
0.0532	0.0292	-0.0195	0.0052	-10.5
0.0367	0.0345	-0.0405	0.0022	-10.7
0.0247	0.0352	-0.063	0.0015	-10.9
0.0202	0.018	-0.0765	-0.0038	-11.1
0.015	0.0082	-0.0691	-0.0046	-11.3
0.0097	0.015	-0.0458	-0.003	-11.5
0.015	0.0262	-0.0285	-0.0008	-11.7
0.0045	0.0495	-0.0233	0.0052	-12
-0.021	0.0577	-0.03	0.0082	-12.2
-0.0458	0.0382	-0.0315	0.0037	-12.4
-0.0795	0.015	0.0007	0.0015	-12.6
-0.0818	0.0097	0.0435	0.0075	-12.8
-0.0533	0.0097	0.0802	0.0082	-12.8
-0.0023	0.012	0.105	0.0037	-12.9
0.0547	0.0202	0.1177	-0.0015	-13
0.0862	0.0225	0.1305	0.0007	-13
0.1117	0.018	0.1455	0	-13.1
0.0997	0.0135	0.129	-0.0008	-13.1
0.048	0.009	0.0825	0.0045	-13.2
0.0045	0.0067	0.0315	0.006	-13.2
-0.033	0.0082	-0.0173	0.0052	-13.3
-0.0473	0.0015	-0.0405	-0.0008	-13.4
-0.0518	-0.006	-0.057	-0.0083	-13.4
-0.0608	-0.0023	-0.0533	-0.0105	-13.5
-0.0585	0.0127	-0.0195	-0.0046	-13.5
-0.057	0.0352	0.0202	0.0022	-13.6
-0.045	0.0435	0.048	0.0105	-13.7
-0.033	0.0307	0.0532	0.0157	-13.7
-0.0375	0.0067	0.0645	0.0142	-13.8
-0.042	-0.0158	0.0705	0.0142	-13.8
-0.0353	-0.024	0.0922	0.0105	-13.9
-0.0173	-0.0278	0.0997	0.0067	-14
0.0045	-0.0375	0.0645	-0.0083	-13.9
0.027	-0.0465	0.0285	-0.0256	-13.8
0.039	-0.0353	-0.0263	-0.027	-13.7
0.042	-0.027	-0.0645	-0.012	-13.6
0.0405	-0.0323	-0.0818	-0.0068	-13.5
0.018	-0.0285	-0.0803	-0.006	-13.5
-0.0173	-0.0195	-0.054	0.0015	-13.4
-0.045	-0.0068	-0.0293	-0.0008	-13.3
-0.066	-0.0038	0.003	-0.0068	-13.2
-0.0555	-0.003	0.0157	-0.0105	-13.1
-0.0158	-0.0015	0.033	-0.0015	-13.1
0.012	0.0045	0.0367	0.0037	-13
0.027	0.0105	0.0127	0.006	-12.9
0.0345	0.006	-0.0046	0.0082	-12.8
0.0502	0.003	-0.0488	0.006	-12.7
0.0517	0.006	-0.0863	0.0105	-12.6
0.0442	0.0105	-0.1185	0.0135	-12.5
0.039	0.0067	-0.129	0.012	-12.4
0.0187	0.0007	-0.105	0.0045	-12.3
0.0067	-0.0038	-0.0721	-0.0046	-12.2
-0.0098	-0.012	-0.0263	-0.0105	-12.2
-0.0256	-0.0128	0.0112	-0.0105	-12.1
-0.0346	-0.0128	0.0502	-0.0075	-12
-0.0436	-0.0105	0.0592	-0.0046	-11.9
-0.0346	-0.0091	0.0352	0.0007	-11.9
-0.0218	-0.0091	0.0232	0.0007	-11.8
-0.0075	-0.0068	0.0135	0.003	-11.7
0.0075	-0.0068	0.009	0.003	-11.7
0.0112	-0.0083	0.0075	0.0015	-11.6
0.0075	-0.0068	0.003	0.0015	-11.5
0.0007	-0.0068	-0.0038	0.0007	-11.4
-0.0075	-0.0075	-0.0053	0.0007	-11.3
-0.015	-0.006	-0.0068	-0.0023	-11.3
-0.0143	-0.0046	-0.0038	-0.0046	-11.2
-0.0046	-0.0053	0.0007	-0.003	-11.1
0.0097	-0.0046	0.0015	0.0015	-11.1
0.018	-0.003	0.0007	0.0022	-11
0.0202	-0.0053	-0.003	0.0007	-10.9
0.0187	-0.0053	-0.0075	-0.0015	-10.8
0.0112	-0.0068	-0.0181	-0.0075	-10.8
-0.003	-0.0083	-0.0293	-0.0015	-10.8
-0.0233	-0.0083	-0.0405	0	-10.7
-0.033	-0.0105	-0.0488	-0.0008	-10.7
-0.0181	-0.0091	-0.0465	0.003	-10.7
0.0015	-0.0083	-0.0346	0.0007	-10.7
0.0217	-0.0083	-0.0143	-0.0023	-10.7
0.0382	-0.0083	0.0015	-0.003	-10.6
0.0465	-0.0068	0.0112	-0.0053	-10.6
0.0555	-0.006	0.0217	-0.0046	-10.6
0.063	-0.006	0.0262	-0.0015	-10.6
0.0592	-0.0068	0.0345	-0.0015	-10.6
0.0277	-0.0091	0.0382	-0.0015	-10.5
-0.0068	-0.0158	0.0345	-0.0008	-10.5
-0.0248	-0.0165	0.0382	0	-10.5
-0.0398	-0.0128	0.0405	0.0015	-10.5
-0.0375	-0.012	0.0412	0.0007	-10.5
-0.0346	-0.0098	0.039	0.0022	-10.4
-0.0263	-0.0091	0.0292	0.003	-10.4
-0.0143	-0.006	0.0157	-0.0023	-10.4
-0.0128	-0.0046	0.0052	-0.0046	-10.4
-0.0053	-0.0083	0.003	-0.0038	-10.4
-0.0038	-0.0098	0.0007	-0.0053	-10.4
0.0007	-0.0046	0.0007	-0.003	-10.4
0.0045	-0.0015	0.003	-0.0015	-10.4
-0.0083	-0.003	0.003	-0.0015	-10.5
-0.0225	-0.0038	0.0105	-0.0008	-10.5
-0.024	-0.0038	0.0157	0.0015	-10.5
-0.0105	-0.003	0.033	0.003	-10.5
0.0082	-0.0015	0.069	0.0007	-10.6
0.0315	-0.0038	0.0967	-0.0008	-10.6
0.0487	-0.0038	0.0855	-0.0053	-10.6
0.0525	-0.003	0.0457	-0.0023	-10.7
0.0442	-0.003	-0.0046	0	-10.7
0.0225	-0.0053	-0.063	0	-10.7
0.0022	-0.0075	-0.0998	0.0015	-10.7
-0.0165	-0.0091	-0.1163	0.0007	-10.8
-0.0323	-0.0068	-0.1028	0.0015	-10.8
-0.0413	-0.0053	-0.0743	-0.003	-10.8
-0.042	-0.0083	-0.0338	-0.0083	-10.8
-0.0323	-0.0128	0.0105	-0.0083	-10.9
-0.0256	-0.0181	0.0255	-0.0098	-10.9
-0.0143	-0.0181	0.0405	-0.0068	-10.9
-0.0053	-0.0158	0.0367	-0.0053	-10.9
-0.0015	-0.0143	0.0292	-0.0053	-11
0.003	-0.0091	0.027	-0.0015	-11
0.0045	-0.0098	0.0157	-0.0008	-11
0.0075	-0.0098	0.0142	-0.0008	-11.1
0.0067	-0.0053	0.009	-0.0008	-11.1
0.0052	-0.0053	0.009	-0.003	-11.1
0.0037	-0.0038	0.009	-0.003	-11.2
0.0015	-0.003	0.012	-0.003	-11.2
0.0045	0.0045	0.0127	0	-11.2
0.0015	0.012	0.0082	0.0015	-11.3
-0.0008	0.009	0.0052	0.0007	-11.3
-0.0023	0.006	0.0015	0.0007	-11.3
0.0007	0.0052	0.0007	-0.0008	-11.3
0.0007	0.006	-0.003	0.0007	-11.4
0.0045	0.009	-0.0046	0	-11.4
0.0052	0.0105	-0.006	0.0007	-11.4
0.0015	0.0097	-0.0083	0.003	-11.5
0.0045	0.0097	-0.0075	0	-11.5
0.0022	0.0157	-0.0105	-0.0008	-11.5
-0.0015	0.0195	-0.0105	0	-11.5
-0.0015	0.021	-0.012	0.0007	-11.5
-0.0038	0.0195	-0.0105	0.003	-11.5
-0.0023	0.018	-0.0083	0.0045	-11.5
-0.0038	0.0135	-0.0113	0.0015	-11.5
-0.003	0.0015	-0.012	0.0007	-11.5
-0.0008	-0.003	-0.015	-0.0008	-11.5
0.0007	0.0052	-0.0195	-0.0015	-11.5
0.0052	0.0075	-0.0203	0.0007	-11.5
0.006	0.0082	-0.0165	0.0022	-11.5
0.0045	0.0157	-0.0091	0.0052	-11.5
0.003	0.0255	-0.0008	0.006	-11.5
0.0015	0.042	0.003	0.0022	-11.5
-0.003	0.054	0.0045	-0.0023	-11.5
-0.0053	0.0577	0.0067	-0.0015	-11.5
-0.006	0.0765	0.0082	0.003	-11.5
-0.006	0.09	0.0105	0.003	-11.5
-0.0038	0.0742	0.012	0.003	-11.5
-0.0008	0.0495	0.009	0.0037	-11.5
0	0.0127	0.0082	-0.0008	-11.4
-0.0015	-0.0173	0.0037	-0.0038	-11.4
-0.003	-0.021	0.0007	-0.003	-11.4
-0.006	-0.027	-0.0008	-0.0046	-11.3
-0.0038	-0.045	-0.0015	-0.0053	-11.3
-0.003	-0.048	-0.0038	-0.0046	-11.3
-0.0038	-0.0346	-0.003	-0.0015	-11.3
0	-0.0068	-0.0015	0.0022	-11.3
-0.0023	0.0142	-0.003	0.0052	-11.3
-0.0008	0.012	-0.0023	0.006	-11.3
0.0015	0.0195	-0.003	0.009	-11.2
-0.0008	0.0097	0.003	0.0082	-11.2
0.0015	0.0015	0.0082	0.0067	-11.2
-0.0008	0.0172	0.0067	0.0067	-11.1
0	0.039	0.009	0.0007	-11.1
0.0007	0.0757	0.0075	-0.003	-11.1
0.0015	0.078	0.0075	-0.003	-11.1
0.0007	0.042	0.0105	-0.0038	-11
-0.0015	0.0052	0.0067	-0.0046	-11
-0.0038	-0.042	0.006	-0.0015	-11
-0.0083	-0.0675	0.0007	0.0015	-11
-0.0075	-0.0675	-0.0046	0.003	-11
-0.006	-0.0615	-0.0053	0.0045	-11
-0.0038	-0.0495	-0.0075	0.003	-10.9
-0.0023	-0.0225	-0.0023	-0.0015	-10.9
-0.0038	-0.0046	0.0015	-0.0038	-10.9
0	-0.0188	0.0022	-0.0015	-10.9
-0.0015	-0.0256	0.003	0.0007	-10.9
-0.0023	-0.0105	0.0022	0.0015	-10.8
0.0007	-0.003	0.0067	0.0015	-10.8
-0.0015	0.009	0.0135	0.0015	-10.8
-0.0008	0.018	0.0187	0.0015	-10.8
-0.0015	0.0202	0.021	0.0015	-10.8
-0.0023	0.009	0.0172	0.0007	-10.8
-0.0008	-0.0091	0.012	0.0007	-10.8
-0.0008	-0.0165	0.006	0.0007	-10.8
0	-0.0256	0.0015	-0.003	-10.8
-0.0015	-0.0188	-0.0015	-0.0015	-10.7
-0.0023	-0.0158	-0.0023	0	-10.7
-0.0053	-0.027	-0.0053	-0.003	-10.7
-0.0083	-0.0285	-0.0046	-0.0015	-10.7
-0.003	-0.0143	0	-0.0023	-10.7
-0.003	0.0022	0.003	-0.0015	-10.7
-0.0015	0.003	0.003	-0.0038	-10.7
0.0022	0.009	0.003	-0.003	-10.7
0.0022	0.0285	0.0045	0.0007	-10.7
0.003	0.0367	0.0052	-0.0008	-10.6
0.003	0.033	0.0037	-0.0008	-10.6
0.0037	0.0172	0.0045	0.0007	-10.6
0.003	0.0067	0.0037	0.0015	-10.6
-0.0015	0.0045	0.003	0.0007	-10.6
-0.006	-0.0008	0.0082	0.0015	-10.6
-0.006	-0.0053	0.0075	0.0022	-10.6
-0.0046	-0.0091	0.0067	0.0015	-10.6
-0.0046	-0.0068	0.003	0.0007	-10.6
-0.0046	-0.0015	0.0022	0	-10.6
-0.0046	-0.0046	0.0015	0	-10.5
-0.0046	-0.0068	-0.0008	-0.003	-10.5
-0.0053	-0.0068	0.0015	-0.0053	-10.5
-0.0023	-0.0068	0.0022	-0.0083	-10.5
-0.003	-0.0068	0.006	-0.0053	-10.5
-0.0038	-0.0046	0.009	0	-10.4
-0.0038	-0.0046	0.0097	0.0007	-10.4
-0.0046	-0.0023	0.012	0.003	-10.4
-0.003	0.0082	0.0105	0.0007	-10.4
-0.0023	0.0135	0.0105	0.0007	-10.4
0.0007	0.03	0.0067	0.0052	-10.4
-0.0008	0.0315	0.0037	-0.0015	-10.3
0.0015	0.0015	0.003	-0.0038	-10.3
0.0022	-0.0225	0.006	-0.0008	-10.3
-0.003	-0.0548	0.003	-0.0046	-10.3
0.0007	-0.078	0.0045	-0.003	-10.2
-0.0015	-0.0585	0.003	-0.003	-10.2
-0.0008	-0.0278	0	-0.003	-10.2
-0.0015	-0.003	0.0022	-0.003	-10.2
-0.0038	0.0097	0.0015	-0.003	-10.2
-0.0008	0.006	0.003	0.0007	-10.1
-0.0038	-0.0023	0.0045	-0.0015	-10.1
0.0015	-0.006	0.003	-0.0038	-10.1
0.0037	-0.0015	0.0007	-0.0015	-10
-0.0046	-0.0008	0	-0.0015	-10
-0.0195	-0.0008	0	0.0015	-10
-0.0375	0.0007	0.0015	0.0022	-9.9
-0.027	0.0015	0.0052	0.0015	-9.9
-0.006	0	0.0052	0.0007	-9.9
0.0165	-0.0008	0.0067	-0.0015	-9.9
0.0427	-0.0015	0.0007	-0.0015	-9.8
0.0495	-0.003	-0.0015	0.0015	-9.8
0.048	-0.0023	-0.0015	0.003	-9.7
0.033	-0.003	-0.0053	0.003	-9.7
0.0127	-0.0038	-0.0038	0.0022	-9.7
-0.0053	-0.0075	-0.0083	0.0015	-9.6
-0.0203	-0.0075	-0.0008	0.0015	-9.6
-0.0181	-0.0038	0.0007	0.0015	-9.6
-0.0165	0.0015	0.0015	0.0007	-9.5
-0.012	0.0105	0.0052	-0.0015	-9.5
-0.0075	0.0172	-0.0023	-0.0015	-9.5
-0.0068	0.024	0	-0.0008	-9.5
-0.0023	0.0262	-0.0083	-0.0053	-9.4
-0.003	0.0225	-0.0091	-0.006	-9.4
-0.0015	0.0037	-0.0091	-0.0053	-9.3
0.0007	-0.0173	-0.012	-0.0046	-9.3
0	-0.0346	-0.0046	-0.0008	-9.2
-0.0015	-0.0436	-0.0053	-0.0008	-9.2
-0.0015	-0.0263	-0.0053	0.0007	-9.2
-0.0008	-0.0188	-0.0053	0.0015	-9.1
-0.0008	-0.0173	0	0	-9.1
-0.0015	-0.0068	0.0037	0.003	-9
0.0015	-0.0053	0.0015	0.0015	-9
-0.0008	0.0082	0.0015	0.0015	-9
-0.0023	0.0277	0.0015	0.0022	-8.9
-0.0008	0.039	0.003	0.0022	-8.9
-0.003	0.0277	0.0007	0.0015	-8.8
-0.0053	0.012	0.0007	0.0007	-8.8
-0.0075	0.0105	0.0007	0.0037	-8.8
-0.0068	0.012	0.0045	0.003	-8.7
-0.0083	0.015	0.0037	0.003	-8.7
-0.0068	0.0127	0.0037	0	-8.6
-0.0046	0.0105	0.0067	-0.0053	-8.6
-0.0038	-0.003	0.006	-0.0068	-8.6
-0.0008	-0.0278	0.009	-0.0098	-8.5
-0.0008	-0.033	0.009	-0.0098	-8.5
-0.0008	-0.012	0.0075	-0.003	-8.4
0.0007	0.0045	0.0037	-0.0015	-8.4
0.003	0.0067	0.0015	-0.003	-8.3
0.0015	0.0112	0.0067	0.0007	-8.3
-0.0023	0.0135	0.0045	0.003	-8.2
-0.0008	0.0187	0.0052	0.0067	-8.2
-0.0008	0.027	0.0067	0.0067	-8.1
-0.0015	0.024	0.003	0.0045	-8.1
-0.0008	0.0217	0.0067	0.0052	-8.1
0	0.012	0.0045	0.0052	-8
-0.0008	0.003	0.006	0.0007	-8
-0.0008	-0.0053	0.0045	-0.006	-7.9
-0.0023	-0.015	0.0045	-0.0053	-7.9
-0.0015	-0.0091	0.0067	-0.0015	-7.8
-0.0008	0.0015	0.0022	0.0007	-7.8
-0.0015	0.0157	0.003	-0.0008	-7.7
-0.0015	0.0262	0	-0.0008	-7.7
0.0007	0.0307	-0.0015	0.0007	-7.7
-0.0015	0.0307	0.0007	-0.0008	-7.6
-0.0046	0.0255	0.0007	-0.0008	-7.6
-0.003	0.0217	0.0015	0	-7.5
-0.0015	0.0165	0.0007	0.0007	-7.5
0.0007	0.018	0.0007	0.0022	-7.4
0.0007	0.0142	0	0.0007	-7.4
0.0007	0.0105	-0.0015	0.0007	-7.3
-0.0008	0.0105	0.0007	0.0022	-7.3
-0.0015	0.0067	-0.0015	0.0007	-7.2
-0.003	0.0052	-0.0053	0	-7.2
-0.0015	0.0045	-0.003	0.0007	-7.2
-0.0008	0.003	-0.0023	-0.0008	-7.1
-0.0008	-0.0008	0.0007	-0.0015	-7.1
0.0007	0.0007	0.0045	-0.0015	-7
0.003	-0.0008	0.0037	-0.0038	-7
0.0015	-0.0008	0.003	-0.0046	-6.9
-0.0008	-0.0008	0.0045	-0.003	-6.9
-0.0008	-0.0038	0.0045	-0.003	-6.8
-0.0046	-0.003	0.0052	-0.0015	-6.8
-0.0053	-0.0053	0.0052	-0.0008	-6.8
-0.003	-0.006	0.006	0.0015	-6.7
-0.003	-0.0038	0.0045	0.0007	-6.7
0.0007	-0.003	0.0022	0	-6.6
0.0015	-0.003	0.0015	0.0015	-6.6
-0.0008	-0.0038	0.003	-0.0015	-6.6
0.003	-0.003	0.0045	-0.0015	-6.5
0.003	-0.0015	0.0037	-0.0015	-6.5
0.0015	-0.0046	0.0067	-0.0008	-6.4
0.0022	-0.0068	0.006	0	-6.4
0	-0.0105	0.0075	-0.0015	-6.3
0.0015	-0.0158	0.0082	0	-6.3
0.003	-0.0181	0.0075	0	-6.3
-0.0008	-0.0181	0.006	0	-6.2
0.0007	-0.0173	0.0052	0.0007	-6.2
0.0037	-0.0158	0.0067	0.0007	-6.2
0.0022	-0.0158	0.0045	0.0007	-6.1
0	-0.0158	0.0052	-0.0008	-6.1
-0.0008	-0.0128	0.006	0.0007	-6
-0.0015	-0.012	0.0067	-0.0015	-6
-0.003	-0.0083	0.0067	-0.003	-5.9
-0.0015	-0.0015	0.003	0.0007	-5.9
0.0007	0.0007	0.0045	0.0022	-5.9
0.0022	0.024	0.0045	0.0052	-5.9
0.003	0.051	0.0045	0.003	-5.9
0.0007	0.036	0.0022	-0.0015	-5.8
-0.003	0.0127	0.0015	-0.0008	-5.8
-0.003	-0.015	0.0022	-0.003	-5.8
-0.0015	-0.0495	0.0007	-0.0008	-5.7
-0.0008	-0.0713	0.003	0.0015	-5.7
0.0007	-0.0893	-0.0023	-0.0008	-5.7
0.0015	-0.0668	-0.003	-0.0008	-5.6
-0.0008	-0.021	0.0015	-0.0015	-5.6
-0.0015	-0.0068	-0.0008	-0.003	-5.6
0	-0.0091	0.0007	-0.0068	-5.5
-0.0008	-0.0105	-0.003	-0.0038	-5.5
-0.0015	-0.0158	-0.0053	0.0052	-5.5
0.0015	-0.0195	-0.0068	0.0007	-5.4
0.0007	-0.0181	-0.0083	0.0015	-5.4
0.0022	-0.0091	-0.0083	0	-5.4
0.003	0	-0.012	-0.006	-5.4
-0.0008	0.0022	-0.0075	-0.0038	-5.4
-0.0008	0	-0.006	-0.0038	-5.3
0.0007	-0.0128	-0.0046	0	-5.3
0.0007	-0.0181	-0.0023	0.0022	-5.3
0	-0.015	-0.003	0.0022	-5.2
-0.0008	-0.0158	0.0015	0.0037	-5.2
-0.0015	-0.0135	0	0.0015	-5.2
0	-0.0113	0.0015	0.0015	-5.2
0.003	0.0007	0.003	-0.0008	-5.1
0.0007	0.0105	0.0022	-0.0068	-5.1
-0.0008	0.0127	0.0045	-0.0046	-5.1
-0.0015	0.0195	0.0022	0	-5
-0.0046	0.0157	0.0052	0.0007	-5
-0.0053	0.0022	0.0022	0.0007	-5
-0.0046	-0.0203	-0.0008	-0.0015	-5
0.0007	-0.0405	-0.0023	0.0015	-5
0.0007	-0.027	-0.0046	0.003	-4.9
0.0015	-0.0075	-0.003	0.003	-4.9
-0.0008	-0.006	-0.0083	0.0015	-4.9
0	-0.0015	-0.0038	0.0015	-4.9
0.0015	-0.0015	0	0.0015	-4.8
-0.0015	-0.0015	0	0	-4.8
0.0007	0.0015	0.0037	-0.0008	-4.8
-0.0023	0.0045	0.0015	-0.0008	-4.8
-0.0023	0.012	0.0052	0.0007	-4.8
-0.0015	0.0232	0.003	0.0022	-4.8
-0.0053	0.0255	0.0007	0.003	-4.7
-0.0015	0.0165	0.0015	0.0007	-4.7
-0.0008	0.0082	-0.0046	-0.003	-4.7
0.0007	0.0007	-0.0015	-0.0038	-4.7
0.0015	0.0015	-0.0046	-0.0015	-4.7
0.0007	0.0067	-0.0038	0.0007	-4.6
0.0015	0.009	0.0007	0.0007	-4.6
0	0.0217	-0.0008	0.0015	-4.6
0	0.0322	0.0052	-0.0015	-4.6
-0.0015	0.033	0.0045	-0.0023	-4.6
0	0.0345	0.0082	-0.0008	-4.6
0.0022	0.0367	0.006	0.0015	-4.5
0.0015	0.0435	0.003	0.0015	-4.5
0.0052	0.0495	0.0067	0.0007	-4.5
0.0007	0.0465	0.0052	0.0015	-4.5
-0.0023	0.0382	0.0067	-0.0008	-4.5
-0.0015	0.024	0.0037	0	-4.5
-0.0015	0.0112	0.0022	0.0007	-4.5
-0.0008	-0.0008	-0.0008	-0.0015	-4.5
-0.0015	-0.0173	-0.003	-0.0023	-4.5
-0.0008	-0.0158	-0.003	-0.0008	-4.5
-0.003	0.0082	-0.0068	0	-4.4
-0.0046	0.0187	-0.0008	0.003	-4.4
-0.0008	0.0157	-0.0008	0.0052	-4.4
-0.0008	0.0135	0.0007	0.0045	-4.4
0.0015	-0.0008	-0.0008	0.003	-4.4
0.0015	-0.0203	-0.0046	-0.0008	-4.4
0.0007	-0.0405	-0.0023	-0.0046	-4.3
0.0015	-0.0465	-0.0053	-0.0046	-4.3
0	-0.024	-0.0038	-0.0053	-4.3
-0.0008	-0.0083	-0.0015	-0.003	-4.3
-0.0015	-0.0083	0	-0.0008	-4.3
0	-0.0053	0.0015	0.0007	-4.3
0.0015	-0.0046	0	0.0007	-4.3
-0.0008	-0.0023	0.003	-0.0015	-4.3
0.0015	0.003	0.006	-0.0015	-4.2
-0.0015	0.0037	0.0082	-0.003	-4.2
-0.0038	0.0015	0.0105	-0.0023	-4.2
0	-0.003	0.0097	0	-4.2
-0.0008	-0.0075	0.0067	0.0015	-4.2
0.0015	-0.0091	0.0067	0.0022	-4.2
-0.0008	-0.0068	0.0067	0.0015	-4.2
0	-0.0083	0.0075	0.0015	-4.1
0.0007	-0.0083	0.0082	0.0015	-4.1
-0.0046	-0.0046	0.0045	-0.0008	-4.1
-0.0015	0	0.0045	-0.003	-4.1
-0.0046	0	0.0007	-0.0068	-4.1
-0.0046	-0.006	0.0015	-0.0053	-4.1
0	-0.0083	0.0052	-0.003	-4.1
-0.0015	-0.012	0.0052	-0.003	-4.1
-0.0008	-0.0128	0.009	-0.0008	-4.1
0.0015	-0.012	0.009	0.0015	-4.1
0.0045	-0.0105	0.009	0.0037	-4.1
0.0045	-0.0091	0.009	0.003	-4.1
0.0045	-0.0091	0.0082	0.0007	-4.1
0.0022	-0.0083	0.0067	0.0015	-4.1
-0.0023	-0.0053	0.003	0.0015	-4.1
-0.003	-0.0008	0.0045	0.0007	-4
-0.003	0.0007	0.0052	0.0022	-4
-0.003	0.0007	0.0052	0.0007	-4
-0.0023	0.0015	0.003	-0.0008	-4
-0.0046	0	0	0	-4
-0.0038	-0.0068	-0.0008	-0.0008	-4
-0.003	-0.0113	0	-0.0008	-4
0	-0.0105	0.0022	0.0007	-4
0.0015	-0.0046	0.0007	0.0015	-4
0.0015	0.0082	-0.0008	-0.0008	-4
0.0015	0.018	-0.0008	-0.0015	-4
0	0.0232	0.0007	0.0015	-4
-0.0015	0.0262	-0.0008	0.0007	-4
-0.0023	0.024	-0.0008	-0.0015	-4
-0.0046	0.0195	-0.0008	-0.0008	-4
-0.0053	0.0157	-0.003	-0.0015	-4
-0.0038	0.0142	-0.0023	-0.0008	-4
-0.003	0.0127	-0.003	0.0007	-3.9
-0.0038	0.009	-0.0046	-0.0008	-3.9
-0.0023	0.0082	-0.006	0	-3.9
-0.0046	0.0105	-0.0053	0	-3.9
-0.0046	0.0142	-0.003	-0.0015	-3.9
-0.0023	0.0195	-0.0046	-0.0008	-3.9
-0.0008	0.021	-0.0053	-0.0023	-3.9
-0.0008	0.0127	-0.0083	-0.0015	-3.8
0	-0.003	-0.0091	0.0007	-3.8
0.0045	-0.0083	-0.0105	-0.0008	-3.8
0.0045	0.006	-0.0128	-0.0015	-3.8
0.0045	0.0157	-0.015	-0.0038	-3.8
0.0022	0.0157	-0.0143	-0.003	-3.8
-0.0008	0.0142	-0.0135	-0.0008	-3.7
0.0007	0.0112	-0.0158	-0.0015	-3.7
-0.0008	0.0112	-0.0091	-0.003	-3.7
-0.0023	0.0112	-0.0083	-0.003	-3.7
-0.0038	0.009	-0.0068	0	-3.7
-0.0046	0.0097	-0.0046	0.0015	-3.7
-0.0075	0.0097	-0.0053	0.0045	-3.7
-0.006	0.0105	-0.0015	0.0052	-3.7
-0.003	0.0112	0.0015	0.0045	-3.6
-0.0046	0.0082	0.0037	0.0022	-3.6
-0.0008	0.0067	0.0045	-0.0008	-3.6
-0.0008	0.0067	0.006	-0.003	-3.6
-0.0015	0.006	0.0045	-0.0015	-3.6
0.0007	0.003	0.0037	0	-3.6
-0.0046	0.0007	0.006	0	-3.6
-0.0038	-0.0023	0.0067	0	-3.6
-0.0015	-0.0046	0.0082	0	-3.6
-0.0023	-0.0068	0.0105	-0.0015	-3.6
-0.0015	-0.0075	0.0105	-0.003	-3.6
-0.0008	-0.0091	0.006	-0.0015	-3.6
0	-0.0143	0.0037	-0.0023	-3.6
-0.0008	-0.015	0.0022	0.0007	-3.6
0.0007	-0.0158	0.0022	0.003	-3.6
-0.0015	-0.012	0.0022	0.0015	-3.5
-0.003	-0.0046	0.0007	0.003	-3.5
-0.0023	-0.003	0.0015	0.0022	-3.5
-0.003	-0.0075	0	0.0052	-3.5
-0.0023	-0.012	-0.0015	0.0052	-3.5
-0.0008	-0.0105	0.003	0	-3.5
-0.0015	-0.0008	0.0037	-0.003	-3.5
0.0015	0	0.003	-0.0015	-3.5
0.0015	0.0045	0.003	-0.0008	-3.4
0.0007	0.018	0.0007	-0.0046	-3.4
0.003	0.012	0.003	-0.0128	-3.4
0.0007	0.0015	0.0045	-0.0128	-3.4
0.0007	0.0007	0.0045	-0.0083	-3.4
0.0007	-0.0075	0.006	-0.0046	-3.4
-0.0015	-0.0091	0.0082	-0.0008	-3.4
0	-0.0091	0.009	0	-3.4
0.0007	-0.0105	0.0082	0.0007	-3.4
0.0037	-0.006	0.0067	0.0015	-3.3
0.003	-0.0008	0.0037	0.003	-3.3
0.003	0.003	-0.0015	0.0052	-3.3
0.0015	-0.003	0.0007	0.0045	-3.3
-0.0046	-0.0068	0	0.003	-3.3
-0.0046	-0.0135	-0.003	0.0022	-3.3
-0.003	-0.0181	0.0007	0.006	-3.3
-0.0015	-0.0188	0.0007	0.0007	-3.3
-0.0008	-0.0263	0.0007	-0.0068	-3.3
-0.0015	-0.03	0.0015	-0.0105	-3.3
-0.0008	-0.027	0.0007	-0.0075	-3.3
-0.0008	-0.0165	-0.0008	0.0007	-3.3
0.0007	-0.0046	-0.0015	0.003	-3.3
-0.0038	0.0052	-0.0015	0.0052	-3.3
-0.0038	0.0067	0.0007	0.0052	-3.3
-0.003	0.0052	0.0007	0.0007	-3.3
-0.0053	0.0112	0.0015	-0.0008	-3.3
-0.0008	0.0067	0.0007	0	-3.3
0.0007	-0.0083	-0.0015	0.0007	-3.3
0.0015	-0.0225	-0.0008	0.0015	-3.3
0.003	-0.0285	0.0022	0.0022	-3.3
0.0007	-0.0308	0.0052	0.0015	-3.3
0.0015	-0.0375	0.0052	0.0007	-3.3
-0.0008	-0.021	0.0052	0.0015	-3.3
0.0015	-0.0083	0.0052	-0.0008	-3.3
-0.003	-0.0053	0.0007	-0.003	-3.3
-0.0068	0.0127	-0.0015	-0.0023	-3.3
-0.0053	0.012	0	-0.006	-3.3
-0.0083	0.0067	0	-0.0068	-3.3
-0.0023	0.0045	0.0007	-0.0023	-3.3
-0.0015	0.0015	0.0045	-0.0015	-3.3
-0.0015	0.0052	0.0067	-0.0015	-3.3
0.0022	0.0045	0.0082	0.0015	-3.3
0.0015	0.0067	0.0067	0.003	-3.3
0.0045	0.009	0.0052	0.0045	-3.3
0.0022	0.012	0.0045	0.003	-3.3
-0.0008	0.0075	0.0022	0	-3.3
-0.0008	0.003	0.0037	0.0015	-3.3
-0.0038	0.0052	0.0067	0	-3.3
-0.0008	0.0187	0.0082	0	-3.3
-0.003	0.03	0.009	-0.0015	-3.3
-0.003	0.0202	0.009	-0.0023	-3.3
0	0.012	0.0067	0	-3.3
-0.0008	-0.0015	0.0067	0.0022	-3.3
0.0007	-0.0203	0.0052	0.003	-3.3
0.0007	-0.0256	0.0015	0.0037	-3.4
-0.0008	-0.0346	0.0022	0.0045	-3.4
0.0015	-0.0293	0.0052	0	-3.4
-0.0008	-0.0128	0.0075	-0.0015	-3.4
-0.0015	0	0.006	-0.0015	-3.4
-0.0008	0.0082	0.0052	-0.003	-3.4
0.0007	0.009	0.0067	-0.0008	-3.4
0.0007	0.0127	0.0067	-0.0008	-3.4
-0.0015	0.0135	0.0082	-0.0038	-3.4
0.0007	0.0082	0.0067	-0.0046	-3.5
-0.0008	0.0067	0.003	-0.0023	-3.5
-0.0053	0.0082	0.003	-0.0008	-3.5
-0.0053	0.0165	0.003	0.0007	-3.5
-0.0068	0.021	0.0052	0.0022	-3.5
-0.0053	0.0195	0.0075	0.0015	-3.5
-0.0046	0.012	0.0075	0.0007	-3.6
-0.003	0	0.009	0	-3.6
-0.0015	-0.015	0.0105	-0.003	-3.6
-0.0023	-0.0263	0.0105	-0.0038	-3.6
-0.0008	-0.0181	0.012	-0.0015	-3.6
0.0007	-0.0091	0.012	-0.0015	-3.6
0	-0.0098	0.0075	-0.0023	-3.6
0.0007	-0.003	0.0052	-0.0008	-3.6
-0.0015	0.0007	0.003	-0.0008	-3.7
-0.0038	0.006	0.0022	-0.0015	-3.7
-0.003	0.012	0.0082	0	-3.7
-0.0046	0.009	0.009	0.0007	-3.7
-0.0046	-0.0046	0.0135	0.003	-3.8
-0.003	-0.0308	0.0127	0.0037	-3.8
-0.0046	-0.0346	0.0127	0.0037	-3.8
-0.003	-0.0233	0.0157	0.003	-3.9
-0.0008	-0.0143	0.0142	-0.0023	-3.9
0.0007	-0.0075	0.0157	-0.0046	-3.9
0.0007	-0.012	0.0105	-0.0038	-3.9
-0.0008	-0.0083	0.009	-0.0023	-4
0.0007	-0.0053	0.0082	-0.0008	-4
-0.0015	-0.0068	0.0037	0	-4
-0.0023	-0.0038	0.0075	0.0015	-4
0	-0.0068	0.0052	0.0037	-4.1
-0.0015	-0.0113	0.0045	0.0022	-4.1
0.003	-0.0181	0.0082	0.003	-4.1
0.003	-0.0218	0.006	0.0067	-4.1
0.0015	-0.012	0.0075	0.0045	-4.1
0.0037	0.0052	0.0052	-0.0015	-4.2
-0.0008	0.0232	0.003	-0.0143	-4.2
-0.0046	0.036	0.003	-0.0165	-4.3
-0.0068	0.0352	-0.0015	-0.0098	-4.3
-0.0068	0.0195	0	-0.0046	-4.3
-0.0046	-0.0128	-0.0008	-0.0023	-4.4
-0.0015	-0.0346	0.0007	-0.0008	-4.4
-0.0008	-0.0308	0.003	0.006	-4.5
-0.0023	-0.0405	0.0015	0.0067	-4.5
0.0015	-0.0428	0.0052	0.0052	-4.5
0.0052	-0.027	0.0067	0.0045	-4.5
0.0067	-0.012	0.0052	0.003	-4.5
0.006	0.0052	0.0007	0.0045	-4.6
0.0037	0.0165	-0.0015	0.0045	-4.6
0.003	0.0217	-0.0015	-0.0023	-4.7
-0.0015	0.018	-0.0023	-0.0068	-4.7
-0.003	0.012	0	-0.0038	-4.7
-0.0015	0.0075	-0.0015	0	-4.8
-0.0015	0	-0.003	0.0045	-4.8
0.0015	-0.0015	-0.003	0.0037	-4.9
0.003	-0.0046	-0.0053	0.0015	-4.9
0.0007	-0.0105	-0.0038	-0.0008	-5
-0.003	-0.0135	-0.0068	-0.0015	-5
-0.0015	-0.003	-0.0083	-0.0015	-5
-0.0046	0.0075	-0.0091	-0.0053	-5.1
-0.0038	0.009	-0.0105	-0.0046	-5.1
-0.0008	0.0127	-0.0098	-0.0015	-5.2
0	0.0105	-0.0105	-0.0015	-5.2
0.0015	0.0097	-0.012	0.0007	-5.3
0.0045	0.0127	-0.0113	0.003	-5.3
0.0052	0.0127	-0.012	0.0037	-5.4
0.0052	0.0172	-0.0091	0.0052	-5.4
0.0037	0.0195	-0.0075	0.0052	-5.4
0	0.0232	-0.0083	0.003	-5.5
-0.0008	0.0202	-0.0075	0.0007	-5.5
-0.0015	0.0157	-0.0068	0.0015	-5.6
-0.0023	0.0157	-0.0068	0.0015	-5.6
0	0.015	-0.0053	0.0007	-5.7
0	0.0187	-0.003	-0.0008	-5.7
-0.0008	0.0195	-0.0015	-0.0008	-5.8
-0.0008	0.024	-0.0046	-0.0023	-5.9
0.0007	0.0255	-0.0046	-0.003	-5.9
0	0.0255	-0.0046	-0.003	-5.9
0.0007	0.0255	-0.006	-0.0023	-6
0	0.0277	-0.0053	-0.0008	-6.1
-0.0053	0.0315	-0.006	0.003	-6.1
-0.0038	0.0315	-0.0105	0.006	-6.2
-0.0046	0.039	-0.0128	0.0037	-6.3
-0.0015	0.0532	-0.0128	0.0015	-6.3
0.003	0.051	-0.0105	-0.003	-6.3
-0.0015	0.03	-0.0105	-0.0105	-6.4
-0.0008	0.0015	-0.0083	-0.0128	-6.4
-0.0053	-0.0195	-0.006	-0.0098	-6.5
-0.0068	-0.0278	-0.0083	-0.0068	-6.6
0.0007	-0.0578	-0.0053	-0.0068	-6.6
0.0022	-0.0765	-0.006	-0.0068	-6.7
0.0007	-0.039	-0.0046	-0.006	-6.8
0	-0.0038	-0.003	-0.0008	-6.8
0	0.0127	-0.003	0.0015	-6.9
-0.003	0.0105	-0.0053	0.003	-6.9
-0.0023	-0.0008	-0.0105	0.0052	-7
-0.0038	0.0082	-0.0091	0.0037	-7.1
-0.006	0.0195	-0.0128	0.0007	-7.2
-0.0038	0.0165	-0.012	-0.003	-7.2
-0.003	0.0075	-0.0083	-0.0046	-7.3
0.0007	0.003	-0.0105	-0.0015	-7.4
-0.0008	-0.0038	-0.0053	-0.0015	-7.4
-0.0008	-0.012	-0.0053	0.0015	-7.5
0.0007	-0.0143	-0.0046	0.003	-7.6
-0.0015	-0.0113	-0.0008	0.0015	-7.7
0.0015	-0.0091	-0.0015	0.0007	-7.7
0.0007	-0.0075	0.0007	-0.0008	-7.8
0.003	-0.003	0.0007	0.0015	-7.9
0.003	0.0067	0.0007	0.0052	-8
0.0015	0.012	0.0015	0.006	-8
0.003	0.0142	0	0.0022	-8.1
-0.0008	0.0067	0.0007	-0.003	-8.1
0.003	-0.003	0.0015	-0.003	-8.3
0.0022	0.0075	0.0052	-0.003	-8.3
0.0015	0.0232	0.0082	-0.0023	-8.4
0.0052	0.03	0.009	-0.0015	-8.5
0.0022	0.027	0.009	-0.0046	-8.6
0.0015	0.0195	0.006	-0.0046	-8.6
-0.003	0.0105	0.0037	-0.0046	-8.7
-0.0038	-0.0083	0.0037	-0.0015	-8.8
-0.0068	-0.012	0.0052	0.0037	-8.9
-0.0091	-0.0091	0.0082	0.0052	-9
-0.0068	-0.0203	0.0082	0.0015	-9
-0.0083	-0.0278	0.0097	-0.003	-9.1
-0.0053	-0.0495	0.0082	0.0007	-9.2
-0.0046	-0.0638	0.0082	0.0007	-9.3
-0.0046	-0.0383	0.0097	-0.0015	-9.4
0.0007	0.0067	0.012	-0.0053	-9.5
0.0007	0.033	0.018	-0.012	-9.5
0.0007	0.0232	0.0195	-0.0091	-9.6
-0.0008	-0.0015	0.0217	-0.003	-9.7
-0.003	-0.0353	0.0225	0.0015	-9.8
-0.0053	-0.057	0.0202	0.003	-9.9
-0.0038	-0.048	0.0202	0.0052	-9.9
0.0007	0.009	0.0187	0.003	-10
0.0015	0.0787	0.0165	0.0007	-10.1
0.0022	0.0795	0.0157	0.003	-10.2
0.0015	0.033	0.0195	0.0082	-10.4
0.0007	-0.0225	0.018	0.003	-10.4
0.0007	-0.0765	0.0142	-0.0105	-10.5
-0.0023	-0.1006	0.009	-0.0046	-10.6
-0.0015	-0.0983	0.0037	0.0067	-10.7
-0.0015	-0.0765	0.0052	0.003	-10.8
-0.0068	-0.0091	0.0045	0.0037	-10.9
-0.0083	0.0337	0.0052	0.009	-11
-0.0075	0.0202	0.003	0.0127	-11.1
-0.0083	0.0382	-0.0008	0.0127	-11.2
-0.0083	0.0607	0.0007	0.0067	-11.3
-0.0046	0.063	-0.0008	-0.0068	-11.4
-0.0046	0.0675	-0.0008	-0.012	-11.5
-0.003	0.0645	-0.0038	-0.0091	-11.6
0	0.0622	-0.0068	-0.0083	-11.7
0.0007	0.0802	-0.0068	-0.003	-11.8
0.0022	0.0892	-0.0053	-0.0015	-11.9
-0.0015	0.0397	-0.0015	-0.0023	-12
-0.0008	-0.0383	-0.0008	-0.0075	-12.1
-0.0015	-0.1088	-0.0008	-0.0083	-12.2
-0.0015	-0.1193	0.0007	0.0007	-12.3
0.0007	-0.0825	0.0007	-0.0008	-12.5
-0.0008	-0.078	0	0.0037	-12.6
0.0022	-0.0578	0.0015	0.006	-12.7
0.0022	-0.054	-0.0008	-0.0015	-12.8
-0.0008	-0.0555	-0.0008	-0.0008	-13
0.0007	-0.0308	0.0007	-0.0008	-13.1
-0.0008	-0.0285	-0.0008	-0.0008	-13.2
0	-0.012	0.0007	-0.0008	-13.3
0	-0.0173	-0.0008	0.0007	-13.4
-0.003	-0.0046	-0.0015	0.0015	-13.5
-0.003	0.0165	0.0007	0.0045	-13.6
-0.0038	0.0045	0.0007	0.006	-13.8
-0.0015	0.0022	0.003	0.006	-13.9
-0.0023	0.0015	0.0022	0.0045	-14
-0.003	-0.006	0.003	-0.003	-14.2
-0.0008	-0.0128	0.0075	-0.0068	-14.3
-0.0023	-0.0046	0.009	-0.0046	-14.4
0.0015	0.003	0.009	0.0052	-14.5
0.0037	0.0127	0.009	0.0082	-14.7
0.003	0.0412	0.009	0.0052	-14.8
0.0007	0.072	0.003	0.0052	-14.9
-0.003	0.087	-0.0046	-0.0046	-15.1
-0.003	0.0592	-0.006	-0.0113	-15.2
-0.0046	-0.0053	-0.012	-0.012	-15.3
-0.0046	-0.0353	-0.0098	-0.0083	-15.5
-0.003	-0.0518	-0.0068	-0.0046	-15.6
-0.0015	-0.0615	-0.006	-0.0015	-15.7
0.0015	-0.0533	-0.0015	0.0022	-15.8
0.0007	-0.0675	-0.0015	0.003	-16
0.003	-0.042	-0.0008	0.0075	-16.1
0.003	-0.003	-0.0046	0.0075	-16.2
0.003	0.021	-0.0008	0.0045	-16.4
0.0037	0.0652	-0.0015	0.0037	-16.5
-0.0023	0.0892	-0.0023	0.003	-16.7
-0.0046	0.096	-0.0008	0.003	-16.8
-0.0053	0.0382	-0.0083	0.0015	-16.9
-0.003	-0.0593	-0.006	0.0045	-17.1
0.0015	-0.0691	-0.0083	0.006	-17.2
-0.0008	-0.0555	-0.0053	0.006	-17.4
0.0015	-0.063	-0.0038	0.0105	-17.6
0.0015	-0.0518	-0.0038	0.0105	-17.7
0.0007	-0.027	0.003	0.0052	-17.9
0.0007	0.0195	-0.0015	-0.0046	-18
-0.0008	0.018	-0.0015	-0.0091	-18.2
-0.003	-0.0128	-0.0068	-0.0091	-18.3
-0.0038	0.012	-0.012	-0.0046	-18.5
-0.0008	0.0705	-0.0091	0.0045	-18.6
-0.0008	0.0952	-0.0098	0.003	-18.8
0.0015	0.0705	-0.003	0.0052	-18.9
0.0007	0.057	-0.0008	0.006	-19.1
0.0015	0.0495	0.0022	0.0067	-19.2
0.0045	-0.0083	0.006	0.0082	-19.4
0.0045	-0.0818	0.0052	0.0067	-19.5
0.0037	-0.1185	0.0127	0	-19.7
-0.0008	-0.1043	0.0097	-0.0083	-19.9
-0.0038	-0.0256	0.0105	-0.0083	-20
-0.003	-0.0068	0.0127	-0.0046	-20.2
-0.0038	-0.0128	0.0112	-0.0083	-20.3
-0.0008	0.0112	0.0142	-0.0173	-20.5
0	0.0045	0.0142	-0.0173	-20.7
-0.0015	0.0532	0.0127	-0.0165	-20.8
-0.0008	0.0855	0.0112	-0.015	-21
-0.0023	0.0817	0.0105	-0.012	-21.2
-0.003	0.0742	0.0157	-0.0158	-21.3
-0.0053	0.0465	0.0135	-0.0173	-21.5
-0.0083	0.0397	0.0142	-0.012	-21.6
-0.0053	0.0157	0.0165	0.0015	-21.8
0	0.0262	0.0195	0.0067	-22
0.0052	0.0375	0.021	0.0022	-22.1
0.003	0.0202	0.018	0.0052	-22.3
0.003	0.0367	0.0255	0.0082	-22.5
0.0007	0.048	0.024	0.006	-22.6
-0.0046	0.0337	0.024	0.009	-22.8
-0.0046	0.018	0.0255	0.0097	-23
-0.0046	0.0165	0.0247	0.009	-23.2
-0.003	0.024	0.03	0.0082	-23.4
0.0022	0.012	0.0292	0.0052	-23.5
0.0007	-0.0083	0.0277	0.0052	-23.8
-0.0008	0.009	0.0255	0.006	-23.9
0.0007	0.0172	0.0255	0.0067	-24.2
0.0007	-0.0023	0.0255	0.0007	-24.4
0.0007	-0.012	0.0217	-0.0015	-24.6
-0.0015	-0.0143	0.018	0	-24.8
0	0.006	0.0165	0.0015	-25
0.0007	0.0157	0.0165	0.003	-25.2
0.0007	-0.0083	0.015	0.0037	-25.4
0	-0.039	0.0165	0.0015	-25.6
-0.0015	-0.0721	0.0112	0.0015	-25.8
0.0007	-0.0795	0.0067	0.003	-26
0.0007	-0.0878	0.0082	0.0037	-26.2
0.0045	-0.0818	0.0045	0.003	-26.5
0.0045	-0.057	0.0037	-0.0046	-26.6
0.0037	-0.0346	-0.0015	-0.0091	-26.9
0.0037	-0.0053	-0.0008	-0.006	-27
0.0007	-0.0128	-0.003	-0.0068	-27.3
0.0037	-0.0346	-0.0113	-0.0008	-27.5
0.006	-0.0346	-0.0105	0.0045	-27.8
0.0052	-0.0218	-0.0128	0.0052	-28
0.003	0	-0.0158	0.0052	-28.2
-0.003	0.012	-0.0218	0	-28.5
-0.0046	0.0127	-0.0256	-0.0046	-28.7
-0.0068	0.0075	-0.0256	-0.0158	-28.9
-0.0083	-0.0083	-0.0315	-0.0181	-29.2
-0.0091	-0.0503	-0.0323	-0.0143	-29.4
-0.0083	-0.09	-0.0368	-0.0083	-29.7
-0.0046	-0.0788	-0.0361	0.003	-29.9
-0.0068	-0.0383	-0.033	0.009	-30.2
-0.0038	-0.0083	-0.0338	0.0105	-30.4
-0.0015	0.0127	-0.0248	0.0082	-30.6
-0.003	0.0465	-0.024	0.0052	-30.9
-0.0015	0.0592	-0.0218	0.0082	-31.1
0.0007	0.054	-0.0128	0.0075	-31.3
0.0015	0.0457	-0.0143	0.0052	-31.5
0.003	0.0037	-0.0105	0.0045	-31.8
0.0045	-0.0308	-0.0105	0	-32.1
0.003	-0.06	-0.0113	-0.003	-32.3
0.003	-0.084	-0.0105	-0.0083	-32.5
0.0007	-0.0721	-0.012	-0.0105	-32.7
-0.0008	-0.057	-0.0091	-0.0113	-32.9
-0.003	-0.0315	-0.0105	-0.0113	-33.2
-0.0068	-0.0128	-0.0083	-0.0105	-33.4
-0.0128	-0.0105	-0.0083	-0.0098	-33.7
-0.012	-0.0015	-0.0046	-0.006	-33.9
-0.0083	0.0037	0.0015	-0.003	-34.1
-0.006	0.015	0.0015	-0.0038	-34.3
-0.0046	0.0247	0.0112	0.0007	-34.6
-0.0053	0.027	0.012	0.003	-34.8
-0.0068	0.018	0.0157	0.0007	-35
-0.0053	0.0022	0.0187	0.0022	-35.2
-0.006	0.003	0.0157	-0.0023	-35.5
-0.0046	0.0082	0.0195	-0.003	-35.7
0	0.03	0.0142	-0.0053	-36
0	0.063	0.018	-0.003	-36.2
0.0015	0.0787	0.0157	0.0007	-36.4
0.003	0.0555	0.0127	-0.0083	-36.7
0.003	0.0127	0.0187	-0.0098	-36.9
0.0022	-0.0143	0.0195	-0.012	-37.1
0.0052	-0.0315	0.0255	-0.0165	-37.4
0.0075	-0.0458	0.0225	-0.0158	-37.6
0.0052	-0.0436	0.0195	-0.012	-37.8
0.009	-0.012	0.0195	-0.0075	-38.1
0.012	0.0045	0.0165	-0.0046	-38.3
0.0127	0.0007	0.0187	-0.003	-38.5
0.0142	0.009	0.018	-0.0015	-38.7
0.0127	0.0097	0.0195	0	-39
0.0105	0.0142	0.0195	0.0015	-39.2
0.0112	0.0195	0.0195	0.0045	-39.5
0.0105	0.024	0.0157	0.003	-39.7
0.0067	0.0255	0.0127	0.0007	-39.9
0.0037	0.0157	0.012	0.0015	-40.2
0.0015	0.0127	0.0067	0.0007	-40.4
0	0.009	0.0045	0.0007	-40.6
0	0.0082	0.0007	-0.0015	-40.9
-0.0008	0.0082	-0.0015	0.0007	-41.1
-0.0038	0.0075	-0.0046	0.0007	-41.4
-0.0053	0.0097	-0.0046	0.0007	-41.6
-0.003	0.0105	-0.0015	0.003	-41.8
-0.0075	0.009	0.003	-0.0008	-42
-0.0068	0.0112	0.0075	0.0022	-42.3
-0.0023	0.012	0.0097	0.0037	-42.5
-0.003	0.0105	0.0105	0.0045	-42.7
0.0015	0.0105	0.0067	0.0067	-42.9
0.0007	0.0105	0.003	0.0082	-43.2
-0.0008	0.0127	0.0007	0.0082	-43.4
-0.0008	0.0135	0.0007	0.0082	-43.7
-0.003	0.0112	-0.0008	0.0082	-43.9
-0.0008	0.0112	-0.0015	0.0045	-44.1
-0.0015	0.0105	-0.0068	0.0052	-44.3
-0.0046	0.009	-0.0053	0.0015	-44.6
-0.0046	0.0082	-0.003	-0.0023	-44.8
-0.0038	0.0082	-0.006	-0.0015	-45
-0.0015	0.0067	-0.0046	-0.003	-45.2
-0.0023	0.0067	-0.0083	-0.0015	-45.5
-0.003	0.0105	-0.0053	0.0007	-45.7
-0.003	0.012	-0.003	0.0007	-45.9
-0.0038	0.012	-0.0068	-0.0015	-46.1
-0.0023	0.0112	-0.0068	-0.0015	-46.3
-0.0038	0.0105	-0.0113	-0.0038	-46.5
-0.0046	0.0097	-0.0075	-0.003	-46.8
-0.0053	0.006	-0.0068	-0.0038	-47
-0.0046	0.0045	-0.0105	-0.0068	-47.2
-0.003	0.0052	-0.0091	-0.0023	-47.4
-0.003	0.0052	-0.0098	0.0007	-47.6
0	0.0037	-0.0068	-0.0008	-47.8
-0.0015	0.0015	-0.0068	-0.0015	-48
-0.0038	-0.0023	-0.0083	-0.0023	-48.2
-0.0046	-0.0046	-0.0068	-0.003	-48.4
-0.0053	-0.0091	-0.0091	-0.0053	-48.6
-0.0023	-0.0098	-0.0113	-0.0015	-48.9
-0.0038	-0.0075	-0.0113	0.0022	-49.1
-0.0038	-0.0068	-0.0105	0.0037	-49.3
-0.0015	-0.006	-0.0075	0.0045	-49.5
0.0007	-0.0068	-0.0046	0.0037	-49.7
0.0022	-0.0046	-0.0023	0.0045	-49.9
-0.0015	-0.0053	-0.0008	0.003	-50.2
-0.0038	-0.0038	-0.0015	0.0007	-50.3
-0.0075	-0.0015	0.0037	0	-50.5
-0.0091	-0.0008	0.0022	0	-50.7
-0.003	-0.0015	0.0015	0.003	-50.9
-0.0046	-0.003	0.0015	0.0052	-51.1
-0.0015	-0.0053	-0.0053	0.003	-51.3
0.0007	-0.0083	-0.0038	0.003	-51.5
-0.0023	-0.0091	-0.0075	0.0022	-51.8
-0.0008	-0.012	-0.0053	-0.0008	-51.9
-0.0046	-0.0143	-0.0015	-0.0008	-52.2
-0.0038	-0.0165	-0.0046	-0.003	-52.3
-0.0015	-0.015	-0.003	-0.0023	-52.5
-0.0038	-0.0128	-0.0053	-0.0015	-52.7
0	-0.0105	-0.0038	-0.003	-52.9
0.0015	-0.0091	-0.0053	-0.0038	-53.1
0.0045	-0.012	-0.0053	-0.0053	-53.3
0.003	-0.0113	-0.0068	-0.0046	-53.6
0	-0.0083	-0.0046	-0.003	-53.7
0	-0.0068	0.0007	-0.003	-54
-0.0015	-0.0083	-0.0008	-0.0023	-54.2
0.0007	-0.0083	0.0022	-0.0008	-54.3
-0.0008	-0.0083	0.003	0.0007	-54.5
-0.0008	-0.0075	0.003	0.003	-54.6
-0.0015	-0.0083	0.0075	0.0052	-54.8
-0.0053	-0.0098	0.0067	0.0045	-54.9
-0.003	-0.012	0.0082	0.0052	-55.1
-0.0046	-0.012	0.003	0.0022	-55.3
-0.0068	-0.0098	-0.0008	0.0007	-55.4
-0.0046	-0.0113	0	-0.0008	-55.6
-0.0075	-0.012	-0.003	-0.003	-55.8
-0.0038	-0.012	-0.0023	-0.0015	-55.9
-0.0008	-0.0128	-0.0053	-0.0015	-56.1
-0.006	-0.0113	-0.0075	-0.0008	-56.3
-0.0053	-0.0105	-0.0091	-0.0015	-56.4
-0.003	-0.0083	-0.0113	-0.003	-56.6
-0.0023	-0.0053	-0.0068	-0.003	-56.7
0.0015	-0.0015	-0.0068	-0.0015	-56.9
0.0022	0.0015	-0.0053	0	-57.1
0.003	0.0015	-0.0046	0.0007	-57.2
0.0015	0	-0.0015	0.0045	-57.5
0.0015	0.0015	0.0015	0.0045	-57.6
0.0015	-0.0008	0.0037	0.0067	-57.7
0	-0.0015	0.0052	0.0067	-57.8
-0.0008	0.0007	0.0015	0.0022	-58
0.0015	0.0022	0.0015	0.0007	-58.1
0.0007	0.0022	-0.003	-0.0008	-58.2
-0.0008	0.0037	-0.0015	-0.0008	-58.4
0.0007	0.0067	0.0052	0.0007	-58.5
0.0007	0.0067	0.0037	0.0007	-58.6
0.0007	0.0052	0.0112	0.0015	-58.8
-0.0008	0.0037	0.0105	0.003	-58.9
-0.0008	0.003	0.0195	0.0015	-59
-0.0023	0.0015	0.024	0.0007	-59.1
-0.0023	0.0015	0.0225	0.0015	-59.3
-0.0015	0.003	0.0255	0.0015	-59.4
-0.0023	0.0037	0.0187	-0.0008	-59.5
-0.0008	0.0037	0.018	-0.0015	-59.7
-0.0008	0.003	0.0127	-0.003	-59.8
0.0007	0.0045	0.012	-0.0068	-59.9
0.0015	0.0045	0.0105	-0.0091	-60.1
-0.0008	0.0045	0.0082	-0.0083	-60.2
0	0.0045	0.012	-0.0053	-60.3
-0.0015	0.006	0.0082	-0.006	-60.3
0	0.0082	0.0082	-0.0068	-60.4
-0.0023	0.0105	0.0045	-0.0023	-60.5
-0.0046	0.0127	0.0052	-0.0015	-60.6
0.0007	0.0135	0.0067	0.0007	-60.7
-0.0008	0.0142	0.0052	0.0037	-60.8
-0.0008	0.0135	0.0105	0.003	-60.9
-0.0008	0.012	0.012	0.0015	-61
-0.0038	0.009	0.0105	0	-61
-0.0038	0.0082	0.009	-0.0023	-61.1
-0.003	0.0075	0.0075	-0.003	-61.2
-0.003	0.006	0.0082	-0.0015	-61.3
-0.0023	0.0045	0.0067	-0.0015	-61.4
0	0.0045	0.003	-0.0015	-61.5
0.0022	0.0045	0.0007	-0.0015	-61.6
0	0.0007	-0.0008	-0.0015	-61.7
0.0007	0.0022	-0.0015	-0.0008	-61.7
-0.0015	0.003	-0.0015	0.0007	-61.9
-0.0046	0.0022	-0.0015	0.0015	-61.9
-0.0008	0.0022	-0.006	0.0015	-61.9
-0.0023	0.003	-0.0068	0.0022	-62
-0.0015	0.006	-0.0046	0.0007	-62
-0.0015	0.0067	-0.0015	0.0007	-62
-0.0053	0.0067	0.0015	0	-62.1
-0.0046	0.0082	0.0022	0.0007	-62.1
-0.0046	0.0097	0.0045	0.0022	-62.1
-0.0008	0.0082	0.0045	0.003	-62.2
0.0007	0.0105	0.0045	0.003	-62.2
-0.0008	0.012	0.0082	0.0045	-62.2
0.0045	0.0127	0.006	0.0045	-62.3
0.0037	0.012	0.0052	0.0015	-62.3
0.0015	0.0105	0.0045	0	-62.4
-0.0015	0.009	0.0007	0	-62.4
-0.0046	0.009	0.0007	0.0007	-62.5
-0.0008	0.0082	-0.003	0.0015	-62.5
-0.0023	0.0045	-0.0023	0.0015	-62.5
-0.0008	0.0045	-0.003	0.0015	-62.6
0.0007	0.0082	-0.0046	0.0007	-62.6
-0.0015	0.0067	-0.0068	0.0022	-62.6
0.0022	0.0067	-0.0091	0.0015	-62.6
0.003	0.0067	-0.0046	0	-62.6
-0.0008	0.0045	-0.0038	0.0007	-62.6
0.0015	0.0045	-0.0015	0.0007	-62.6
0.0015	0.0015	-0.0015	0.0015	-62.6
-0.0008	0.0015	-0.0008	0.0007	-62.6
0.0015	0.003	0.0007	0.0007	-62.7
-0.0008	0.0022	0	0.0007	-62.7
-0.0038	0.0015	0.0015	-0.0008	-62.7
-0.003	0	-0.0008	0.0015	-62.7
-0.0046	-0.0023	-0.0023	0.0015	-62.7
-0.0015	-0.0038	-0.0046	0	-62.7
-0.0008	-0.003	-0.0053	-0.0008	-62.7
-0.0008	-0.003	-0.0023	-0.0015	-62.7
-0.0008	-0.003	0.0007	-0.0015	-62.7
-0.003	-0.003	0.003	-0.0015	-62.7
0.0007	-0.0038	0.0045	0.0007	-62.8
0	-0.0008	0.0067	0.003	-62.8
0.0007	0.0015	0.0067	0.0015	-62.8
0.003	0.003	0.0045	0.0007	-62.8
-0.0015	0.003	0.0037	-0.0008	-62.8
0.0015	0.0022	-0.0008	-0.003	-62.7
0.0037	0.0015	0.0007	-0.0008	-62.7
0.0022	0.0015	0.0015	0.0007	-62.7
0.003	0.003	0.0007	0.0007	-62.7
0.0007	0.0007	0.0045	0.0015	-62.6
0.0007	-0.0008	0	0	-62.6
-0.0008	-0.0015	0	0.0007	-62.6
-0.0015	-0.0038	-0.0023	-0.0015	-62.6
-0.0015	-0.003	-0.0046	-0.0023	-62.6
-0.0046	-0.006	-0.0023	-0.0008	-62.5
-0.0046	-0.0083	-0.0038	0	-62.5
-0.0075	-0.0075	-0.0008	0.0007	-62.5
-0.0091	-0.006	-0.0008	-0.0008	-62.5
-0.0046	-0.006	-0.003	-0.0008	-62.4
-0.0068	-0.0053	-0.0046	-0.0008	-62.4
-0.003	-0.003	-0.003	-0.0015	-62.4
-0.0008	-0.003	-0.003	-0.0023	-62.4
0.0007	-0.0015	-0.0015	-0.0008	-62.3
0.0052	-0.0015	0.0052	-0.0008	-62.2
0.0037	-0.003	0.0082	0.0007	-62.2
0.006	-0.0015	0.012	0.0015	-62.1
0.0045	-0.003	0.0097	0.0007	-62.1
0.003	-0.0023	0.0082	-0.0008	-62
0.006	-0.0015	0.009	-0.0008	-61.9
0	-0.003	0.0067	0	-61.8
0	-0.003	0.0075	0.0007	-61.7
-0.0015	-0.0053	0.0067	0.0007	-61.7
-0.0023	-0.0068	0.006	0.0022	-61.6
-0.0008	-0.0053	0.0015	0.0015	-61.5
-0.0008	-0.0053	-0.0008	-0.0008	-61.5
0.0015	-0.0053	0	-0.003	-61.4
-0.003	-0.0038	-0.0023	-0.003	-61.3
-0.0046	-0.0046	-0.0008	-0.003	-61.2
-0.0008	-0.0053	-0.0015	-0.0015	-61.2
-0.003	-0.0068	0.0007	0.0015	-61.1
0.0007	-0.0068	0.0015	0.0015	-61
0.0015	-0.0068	-0.0015	0.0015	-61
-0.0008	-0.0068	0	0.0007	-60.9
0.0007	-0.006	-0.0015	-0.0008	-60.8
-0.0046	-0.0053	-0.0008	-0.0008	-60.7
-0.0023	-0.0046	-0.0008	-0.0015	-60.5
-0.0008	-0.006	-0.0015	-0.0008	-60.4
-0.003	-0.0038	-0.0015	-0.0008	-60.3
0.0007	-0.0046	-0.0015	-0.0015	-60.1
-0.0023	-0.006	-0.0046	0	-60
0.0007	-0.0053	-0.003	-0.0008	-59.9
0	-0.0046	0.0015	-0.0015	-59.8
-0.0038	-0.0038	0.0015	-0.0008	-59.6
0.0015	-0.0046	-0.0008	0	-59.5
-0.0023	-0.0038	-0.0015	0.0015	-59.4
-0.0015	-0.0038	-0.0015	0.0015	-59.3
-0.0008	-0.0038	0.0007	0.003	-59.2
-0.0008	-0.0008	-0.0008	0.0015	-59
0.0037	-0.0015	0.0007	0.0007	-58.9
-0.0008	-0.0023	0.003	-0.0008	-58.8
0.0007	-0.0008	0.0045	-0.003	-58.6
-0.0023	-0.0023	0.0082	-0.0015	-58.5
-0.0053	-0.003	0.003	-0.0015	-58.4
-0.0008	-0.003	0.003	-0.0015	-58.3
-0.0046	0	0.0067	-0.0015	-58.1
-0.0008	0.0015	0.0052	-0.0046	-58
-0.0008	0.0037	0.0082	-0.0015	-57.8
-0.0023	0.003	0.0082	-0.0015	-57.6
0.0015	0.0022	0.009	0	-57.5
-0.0015	0.0022	0.0075	0.0015	-57.3
0	0.0022	0.0045	0.0015	-57.2
-0.0008	0.0022	0.003	0.0015	-57
-0.0046	0.0015	0.0015	0	-56.9
-0.003	0.0015	0.0037	-0.0008	-56.7
-0.0015	0.0037	0.0045	-0.0008	-56.6
-0.0008	0.0045	0.0052	-0.0008	-56.4
-0.0008	0.0052	0.0037	-0.0023	-56.3
0.0015	0.0052	0.0045	-0.0023	-56.1
0.0015	0.006	0.0045	-0.0015	-56
0.0007	0.006	0.0022	-0.003	-55.8
0	0.0037	0.0037	-0.0015	-55.7
-0.0015	0.0052	0.0007	-0.003	-55.5
-0.0008	0.003	0.0045	-0.003	-55.4
-0.003	0.0015	0.0045	-0.0008	-55.2
0	0.0045	0.0037	0	-55
0.0037	0.0045	0.0052	0	-54.9
0.003	0.0045	0.0015	-0.0015	-54.7
0.0015	0.0037	0.003	0	-54.5
-0.0015	0.0022	0.0015	0	-54.3
-0.0023	0.0007	0.0015	0	-54.1
-0.0008	0.0022	0.0007	0	-54
-0.0015	0.003	0	-0.0008	-53.8
-0.003	0.003	0.0007	-0.0008	-53.6
-0.003	0.0022	-0.0046	-0.0015	-53.5
-0.0038	0.0007	-0.0053	-0.0015	-53.3
-0.003	0.0015	-0.006	-0.0008	-53.1
-0.0046	-0.0008	-0.003	0	-53
-0.0053	-0.003	-0.0053	0.0022	-52.8
-0.0023	-0.0038	-0.0015	0.0007	-52.6
-0.0008	-0.0038	0.003	0.0015	-52.4
-0.0008	-0.0053	0.0007	0	-52.3
-0.0008	-0.0053	0.0022	-0.0008	-52.1
0	-0.0046	-0.0008	-0.0008	-51.9
0.0022	-0.0046	0	-0.0023	-51.8
0.0045	-0.0046	0.0007	-0.0008	-51.5
0.0007	-0.0046	-0.0008	0.0007	-51.3
0.0007	-0.0046	0.0015	0	-51.1
0.0045	-0.0068	-0.0008	-0.0015	-50.9
0.0022	-0.0068	0.0045	-0.0023	-50.7
0.0022	-0.0068	0.0037	-0.0023	-50.5
0	-0.0068	0.0015	-0.0023	-50.3
-0.0046	-0.0075	0.0015	-0.0015	-50.1
-0.003	-0.0075	-0.0038	-0.003	-49.9
-0.0046	-0.006	-0.0008	-0.003	-49.7
-0.0023	-0.0075	-0.0015	-0.0015	-49.5
-0.0038	-0.006	-0.0015	-0.0023	-49.3
-0.0083	-0.0053	0	-0.0008	-49.1
-0.0068	-0.0046	-0.0008	-0.0023	-48.9
-0.0053	-0.0015	0.0015	-0.0008	-48.7
0	-0.0008	0.0022	-0.0008	-48.5
0.0007	0.0015	0.0037	-0.0008	-48.3
-0.0008	0.0037	0.003	0.0022	-48.1
0	0.0045	0.0045	0.0015	-47.9
0.0007	0.0045	0.0052	0.0015	-47.7
0.0045	0.0052	0.009	0.0007	-47.5
0.0022	0.0052	0.0105	0.0007	-47.3
0.003	0.0037	0.009	0	-47.1
0.0052	0.003	0.0067	-0.0015	-46.8
0.003	0.0015	0.0037	-0.0015	-46.6
0.0007	0.0015	0.0022	-0.0008	-46.4
-0.003	0.0022	-0.0008	0.0015	-46.2
-0.003	0.0015	0	0.0022	-45.9
0	0.0022	0.003	0.0022	-45.7
0.0007	0.0007	0.0022	0.003	-45.5
0.0015	0.0007	0.0052	0.0037	-45.3
-0.003	0.0007	0.009	0.0037	-45.1
-0.003	-0.0015	0.0097	0.0015	-44.9
-0.0008	-0.003	0.0082	0.0015	-44.6
-0.003	-0.0046	0.0105	0.0007	-44.4
-0.0038	-0.0053	0.0142	-0.0008	-44.2
-0.003	-0.0046	0.0232	0	-44
-0.0091	-0.0046	0.024	-0.0008	-43.8
-0.0135	-0.0038	0.0172	-0.0015	-43.6
-0.012	-0.003	0.0097	-0.0015	-43.3
-0.0091	-0.003	-0.0015	-0.003	-43.1
0.0015	-0.003	-0.0068	-0.0023	-42.9
0.009	-0.0023	-0.015	-0.0015	-42.7
0.015	-0.0023	-0.0195	0	-42.4
0.0195	-0.0023	-0.0188	0.0015	-42.2
0.0142	-0.0038	-0.0158	0.0022	-42
0.0112	-0.003	-0.0068	0.003	-41.8
0.0052	-0.0053	-0.0015	0.0022	-41.5
-0.0008	-0.0053	0.003	0.0022	-41.3
-0.0023	-0.003	0.0037	0.0022	-41
-0.0075	-0.0023	0.0007	0.0007	-40.8
-0.0113	0.0007	-0.0015	-0.003	-40.6
-0.0165	0	-0.0008	-0.0053	-40.4
-0.0181	-0.0023	0.0015	-0.0068	-40.1
-0.0128	-0.0015	0.0022	-0.0053	-39.9
-0.0128	-0.0046	0.0075	-0.003	-39.7
-0.0075	-0.0038	0.0105	-0.0023	-39.5
-0.0046	-0.0038	0.0112	-0.003	-39.2
-0.003	-0.0091	0.0127	-0.0046	-39
0.0022	-0.0098	0.0112	-0.003	-38.7
0.0037	-0.0091	0.009	-0.0015	-38.5
0.006	-0.0075	0.009	-0.0008	-38.3
0.003	-0.0015	0.0082	-0.0015	-38
0.0007	-0.003	0.0075	-0.0015	-37.7
-0.0008	0.0015	0.0097	-0.0008	-37.5
-0.0008	0.0045	0.0075	0.0007	-37.2
0.003	0	0.0067	0.0007	-36.9
-0.0015	-0.003	0.0022	0.0007	-36.7
-0.0023	-0.0068	0	0.0007	-36.5
0.0007	-0.0105	0.0045	-0.0008	-36.2
-0.0015	-0.0113	0.0022	0.0007	-36
-0.0008	-0.0113	-0.0053	0.0007	-35.7
0.0007	-0.0113	-0.015	0.0015	-35.4
-0.0008	-0.0075	-0.0233	0.003	-35.1
-0.0053	-0.0015	-0.03	0.0052	-34.9
-0.0083	0.0015	-0.0278	0.0052	-34.7
-0.012	0.0075	-0.0181	0.003	-34.4
-0.012	0.012	-0.0015	0.003	-34.2
-0.0143	0.0045	0.0127	0	-33.9
-0.0181	-0.0008	0.0127	-0.0038	-33.6
-0.0165	-0.0053	0.009	-0.0053	-33.3
-0.0173	-0.0143	0	-0.0038	-33
-0.0173	-0.0105	-0.012	-0.0046	-32.7
-0.0143	0.0007	-0.0128	-0.006	-32.4
-0.0105	0.003	-0.0143	-0.0075	-32
-0.006	0.003	-0.0083	-0.0046	-31.8
-0.0053	0.0022	-0.0015	-0.0008	-31.5
-0.0083	-0.0068	0.0015	-0.0008	-31.1
-0.0143	-0.0091	0.012	0.0007	-30.8
-0.021	-0.0046	0.009	-0.0008	-30.6
-0.0256	-0.0008	0.0082	-0.0046	-30.2
-0.0346	0	0.009	-0.0083	-29.9
-0.0495	-0.0008	0.006	-0.0075	-29.7
-0.0615	-0.0015	0.0045	-0.0068	-29.3
-0.0465	-0.0091	0.0015	-0.0053	-29
-0.0046	-0.0256	0.003	-0.0046	-28.7
0.0345	-0.03	0.0112	-0.0038	-28.4
0.0697	-0.0158	0.0285	-0.0008	-28.1
0.096	0.0007	0.039	0.0015	-27.8
0.1065	0.0127	0.0382	0.003	-27.5
0.1125	0.0255	0.0277	0.0022	-27.2
0.102	0.024	0.0097	0	-26.8
0.0877	0.0105	-0.0038	0.0007	-26.5
0.075	0.0195	-0.0195	0.006	-26.2
0.0645	0.0262	-0.0256	0.0075	-25.8
0.0592	0.0157	-0.0256	0.0067	-25.5
0.0495	0.0067	-0.024	0.0022	-25.2
0.0405	0.0007	-0.0143	-0.0023	-24.9
0.0337	-0.0015	-0.0046	-0.0083	-24.5
0.024	-0.0068	0.0052	-0.0128	-24.2
0.0142	-0.0053	0.0105	-0.0091	-23.9
0.009	-0.0023	0.0067	-0.0083	-23.6
0.0082	-0.0046	0.006	-0.0053	-23.3
0.0075	-0.0046	0.0345	0.0007	-22.9
0.003	-0.0128	0.063	0.0015	-22.6
0.0015	-0.024	0.0667	0.0015	-22.3
0.0007	-0.0203	0.0495	0.0015	-21.9
-0.0053	-0.0083	0.003	0.0007	-21.6
-0.0091	0.0037	-0.0443	0.0022	-21.3
-0.0165	0.0157	-0.075	0.0015	-20.9
-0.027	0.0142	-0.0803	0.0007	-20.6
-0.0308	0.009	-0.0428	-0.0008	-20.3
-0.0368	0.006	0.0202	0.0007	-19.9
-0.0405	0.0082	0.054	0.0022	-19.5
-0.0443	0.0082	0.0405	0.003	-19.2
-0.0465	0.0015	0.003	0.0067	-18.9
-0.0503	-0.0068	-0.0585	0.0105	-18.5
-0.054	-0.003	-0.096	0.0127	-18.1
-0.0518	0.0052	-0.108	0.0195	-17.8
-0.0495	0.0135	-0.108	0.0277	-17.5
-0.0428	0.0217	-0.0735	0.03	-17.1
-0.042	0.0157	-0.0293	0.0255	-16.7
-0.0383	-0.0233	0.0195	0.0105	-16.4
-0.033	-0.0691	0.036	-0.015	-16.1
-0.03	-0.075	0.0382	0.0067	-15.7
-0.0256	-0.0893	0.0502	0.0367	-15.3
-0.0256	-0.126	0.054	-0.0263	-15
-0.0285	-0.1238	0.0517	-0.1223	-14.7
-0.0315	-0.0743	0.0427	-0.162	-14.3
-0.033	0.021	0.0405	-0.129	-14
-0.0315	0.1417	0.0352	-0.0503	-13.7
-0.0263	0.2625	0.0352	0.057	-13.3
-0.0158	0.3142	0.033	0.1192	-13
-0.012	0.2325	0.027	0.1237	-12.7
-0.0105	0.1072	0.024	0.1057	-12.4
-0.0068	0.0015	0.0195	0.027	-12.1
-0.003	-0.0443	0.0345	0	-11.7
-0.0046	-0.0428	0.0427	-0.0083	-11.4
-0.0075	-0.0443	0.0442	-0.0413	-11.1
-0.0053	-0.024	0.0292	-0.0638	-10.8
-0.0015	-0.0158	-0.0008	-0.0758	-10.4
0.0075	-0.0195	-0.027	-0.012	-10.1
0.0067	-0.0443	-0.0555	0.0082	-9.8
0.009	-0.0593	-0.0593	-0.0046	-9.5
0.012	-0.06	-0.0585	-0.0083	-9.1
0.0105	-0.0765	-0.0458	-0.039	-8.8
0.0142	-0.0863	-0.0256	-0.0518	-8.5
0.0142	-0.0893	-0.0135	-0.0728	-8.1
0.0202	-0.066	0.0015	-0.0375	-7.8
0.0187	-0.0443	0.006	0.0502	-7.6
0.0105	-0.0428	0.0082	0.117	-7.3
0.009	-0.0308	0.0127	0.1237	-7.1
0.0075	-0.0008	0.027	0.0232	-6.8
0.0067	0.0802	0.0615	-0.015	-6.6
-0.003	0.1965	0.0825	-0.0285	-6.3
-0.0105	0.2032	0.0615	-0.039	-6.1
-0.0113	0.1072	0.03	0.0405	-5.9
-0.0113	0.0352	-0.0053	0.0607	-5.6
-0.003	-0.0278	-0.0315	0.0847	-5.3
0.0007	-0.045	-0.0465	0.084	-5.1
0.003	-0.0458	-0.0691	0.0247	-4.8
0.0015	-0.0233	-0.0608	0.0607	-4.6
-0.0008	0.06	-0.0165	0.0952	-4.3
0	0.0892	0.0292	0.0802	-4.1
-0.003	0.0652	0.0532	0.0607	-3.8
0.0015	0.0337	0.0705	0.0427	-3.6
0.0045	0.0052	0.0615	0.0255	-3.3
0.0045	-0.0188	0.0262	-0.0256	-3.1
0.006	-0.063	0.018	-0.0473	-2.8
0.0097	-0.1298	0.0322	-0.0615	-2.7
0.0127	-0.1808	0.0457	-0.2235	-2.6
0.009	-0.2003	0.0375	-0.3436	-2.4
0.0112	-0.2123	-0.0105	-0.3038	-2.3
0.0082	-0.2198	-0.0773	-0.2258	-2.1
0.0067	-0.2153	-0.12	-0.0975	-1.9
0.0097	-0.1411	-0.1448	-0.1268	-1.8
0.0045	-0.0068	-0.1388	-0.1628	-1.7
0.0052	0.1717	-0.0968	0.0907	-1.5
0.0007	0.4102	-0.042	0.3667	-1.4
-0.0008	0.5535	0.012	0.4612	-1.2
0.0045	0.456	0.057	0.3622	-1.1
0.0022	0.1905	0.093	0.2137	-0.9
-0.0008	0.0067	0.1065	0.0787	-0.8
-0.003	-0.054	0.0982	-0.0443	-0.6
-0.0046	-0.0743	0.0727	-0.1418	-0.5
-0.012	-0.0525	0.0412	-0.1973	-0.4
-0.012	-0.0735	0.0157	-0.156	-0.2
-0.0075	-0.1065	0.0007	-0.1441	0
-0.0015	-0.1185	0.003	-0.1493	0.1
0.015	-0.0878	0.0105	-0.12	0.1
0.0247	-0.0091	0.0075	-0.1163	0.2
0.0292	0	0.0037	-0.0908	0.2
0.0277	-0.0668	-0.003	0.1582	0.3
0.0217	-0.1095	-0.0188	0.3697	0.4
0.0135	-0.1133	-0.0293	0.2497	0.4
-0.0008	-0.0968	-0.0346	0.156	0.4
-0.012	-0.0293	-0.024	-0.0248	0.5
-0.021	-0.0128	-0.0008	-0.2505	0.5
-0.024	-0.0615	0.0255	-0.186	0.6
-0.0203	-0.0885	0.0367	-0.024	0.6
-0.0165	-0.063	0.0442	0.0172	0.7
-0.0008	0.003	0.045	-0.0308	0.7
0.0165	0.066	0.0382	-0.0098	0.8
0.0307	0.1335	0.0375	0.048	0.9
