File Name: 4Npie.log
Channel 1: 'RF', 13820 values, engineering units: mV, no filters.
Channel 2: 'BF', 13820 values, engineering units: mV, no filters.
Channel 3: 'VM', 13820 values, engineering units: mV, no filters.
Channel 4: 'ST', 13820 values, engineering units: mV, no filters.
Channel 5: 'FX', 691 values, engineering units: deg, no filters, extrapolated from 50 to 1000 samples per second.

0.0007	-0.0008	0	0.0007	-18.9
-0.0181	0.0015	0.0015	0.0007	-18.9
-0.012	0.003	0.0007	0.0015	-18.9
-0.0143	0.003	0.0015	0	-18.9
-0.0083	0.0007	0.0015	-0.003	-18.9
-0.0083	-0.0008	-0.0008	-0.003	-18.8
-0.0083	-0.0008	0.0075	-0.003	-18.8
-0.003	-0.0008	0.009	-0.0015	-18.8
-0.003	0.0015	0.0142	-0.0008	-18.8
0.003	0.003	0.012	0.0015	-18.8
0.0022	0.0022	0.009	0.0007	-18.8
0.0052	0.0015	0.0082	0	-18.8
0.0015	0.0007	-0.0008	0.003	-18.7
-0.0038	0.0007	-0.0008	0.0007	-18.7
-0.0023	0	-0.0038	-0.0008	-18.7
-0.0075	-0.0015	-0.0023	-0.0023	-18.7
-0.0015	-0.0008	0.0015	-0.0008	-18.7
-0.003	0.0015	-0.0038	0.0007	-18.7
0	0.0007	-0.0015	-0.0015	-18.7
0.0022	-0.0015	-0.0015	-0.0008	-18.6
-0.0008	-0.0015	-0.0015	0.0007	-18.6
0.003	-0.0015	-0.0015	0.0015	-18.6
0.0007	-0.0015	-0.0015	0.003	-18.6
0.003	0.0007	0.0015	-0.0008	-18.6
-0.0008	-0.0008	0.0007	0.0007	-18.6
-0.0008	-0.003	0.0015	0.0007	-18.6
-0.0015	-0.0008	0.0015	0.0022	-18.6
-0.0046	-0.0008	0.0015	0.0045	-18.6
-0.0038	-0.0015	0.0045	0.0037	-18.6
-0.0046	-0.0008	0.0045	0.0007	-18.6
-0.0053	0.0015	0.003	-0.0105	-18.6
-0.0158	0.003	-0.0008	-0.0165	-18.6
-0.0195	0.0037	0	-0.0128	-18.6
-0.0158	0.0007	0.0015	-0.0181	-18.6
-0.0105	-0.0008	0.0007	-0.0143	-18.6
-0.0008	0.0015	0	-0.006	-18.6
0.0045	0.0022	-0.0008	-0.003	-18.6
0.0187	0.0015	0.0007	0.0067	-18.6
0.027	0.0007	0.0007	0.0142	-18.6
0.0255	0.0007	0.0022	0.03	-18.6
0.027	0.0015	0.0045	0.027	-18.6
0.0195	0	0.0052	0.0067	-18.6
0.0142	-0.003	0.003	0.0045	-18.6
0.006	0	0.0007	0.0007	-18.6
-0.003	0	0.003	-0.003	-18.5
-0.0068	-0.0023	0.0045	-0.0046	-18.5
-0.0188	-0.003	0.0067	-0.0091	-18.5
-0.021	-0.0023	0.006	-0.0068	-18.5
-0.0233	-0.0008	0.003	-0.0068	-18.5
-0.0233	0	0.0045	-0.0053	-18.5
-0.015	0.0007	0.003	-0.003	-18.5
-0.0143	0	0.0022	-0.006	-18.5
-0.0046	0.0015	0.0015	-0.0015	-18.5
-0.0008	0.0007	-0.0023	0.0022	-18.5
0.0007	-0.0015	-0.0023	0.0045	-18.5
0.0082	-0.0008	-0.0046	0.0052	-18.5
-0.0008	0.0007	-0.0068	0.0045	-18.5
-0.0083	0.0007	-0.006	0.0052	-18.5
-0.0158	0.0007	-0.0053	0.0007	-18.5
-0.0195	-0.0015	-0.0015	-0.0015	-18.5
-0.0143	-0.0015	-0.0008	-0.003	-18.5
-0.0105	-0.0008	0.0015	-0.0083	-18.5
0.0052	-0.0008	0.0067	-0.0083	-18.5
0.021	-0.0008	0.0105	-0.0046	-18.5
0.0345	0.0007	0.0105	-0.003	-18.5
0.045	-0.0008	0.0082	-0.0015	-18.5
0.045	0	0.0037	0	-18.5
0.0345	0.0007	0.0007	0	-18.5
0.0127	-0.0015	0.0037	0.0007	-18.5
-0.0015	-0.0046	0.0015	0.0015	-18.5
-0.0135	-0.0046	-0.0008	0.0007	-18.4
-0.0181	-0.003	0.0022	0.0007	-18.4
-0.0165	-0.0023	0.003	0.0007	-18.4
-0.0158	-0.0015	0.0037	0.0007	-18.4
-0.0083	-0.003	0.0045	0.0007	-18.4
-0.0075	-0.0015	0.0015	0	-18.4
-0.0053	0.0007	-0.0008	-0.0008	-18.4
-0.0075	-0.0008	-0.003	-0.0008	-18.4
-0.0098	-0.0008	-0.003	-0.0008	-18.4
-0.0053	0	-0.003	0.0007	-18.4
-0.0053	0.0022	0.0007	0.0007	-18.4
-0.0008	0.0015	-0.0015	0.0022	-18.4
-0.003	0.0007	-0.003	0.0015	-18.4
-0.0046	0.0015	0	0.0015	-18.4
-0.0015	0.0015	0.0052	0.003	-18.4
-0.0053	-0.0008	0.0105	0.0007	-18.4
-0.003	-0.0015	0.0112	-0.0008	-18.4
-0.0046	-0.003	0.0075	-0.0008	-18.4
-0.0046	-0.0023	0.0052	0.003	-18.4
0.0015	-0.003	0.0045	0.0022	-18.4
-0.0008	-0.0038	0.0007	0.0007	-18.4
0.0007	-0.003	0.003	-0.0015	-18.4
0.0007	-0.0008	0.0052	-0.003	-18.4
0	0.003	0.0007	-0.0008	-18.4
0.0007	0.0045	0.0007	-0.0008	-18.4
-0.003	0.0045	-0.003	-0.0008	-18.4
-0.0015	0.0045	-0.0053	-0.0015	-18.4
0.0007	0.0037	-0.0083	0.0007	-18.4
-0.0008	-0.0008	-0.0091	0	-18.4
0.0015	-0.0008	-0.0053	-0.003	-18.4
0.0007	0	-0.0038	-0.0015	-18.4
0.003	-0.0008	0.0045	-0.0023	-18.4
0.0022	0.0015	0.0082	-0.0008	-18.4
-0.0038	0.0015	0.0105	-0.0008	-18.4
-0.0053	-0.0008	0.0127	-0.0008	-18.4
-0.0083	-0.0015	0.009	0.0007	-18.4
-0.0091	-0.0023	0.0097	-0.0015	-18.4
-0.0083	-0.003	0.0082	0	-18.4
-0.006	-0.0046	0.003	0	-18.4
-0.0015	-0.003	0.0007	0	-18.4
-0.0015	-0.0008	-0.0008	0.0007	-18.3
0.003	-0.0008	-0.0015	-0.0008	-18.3
0.0045	0	-0.0015	-0.0008	-18.3
0.0052	-0.0008	-0.0053	0.0007	-18.3
0.0082	-0.0008	-0.003	0.003	-18.3
0.0037	-0.0008	-0.0023	0.0022	-18.3
0.0037	-0.0008	-0.0015	0.0007	-18.3
0.003	0	0.0007	0.0015	-18.3
0.0007	0.0007	-0.0015	0.0007	-18.3
0.0015	-0.0008	0.003	-0.0008	-18.3
0.0007	-0.0008	0.0045	-0.0046	-18.3
-0.0008	-0.0015	0.0037	-0.0068	-18.3
-0.0046	-0.0015	0.0052	-0.0015	-18.3
-0.0046	-0.0008	0.0015	0.0007	-18.3
-0.003	0	0.003	0.0022	-18.3
-0.0008	0.0007	0.0015	0.0022	-18.3
0.003	0.0015	0.0015	0.003	-18.3
0.0015	0.0015	0.0022	0.003	-18.3
0.0022	0.0022	0.0022	0	-18.3
0	0.0022	0.0007	0.0007	-18.3
-0.0008	0.0015	-0.0038	0.0007	-18.3
0.0015	0.0007	-0.0023	-0.0008	-18.3
0.0015	0.0007	-0.0015	0	-18.3
0.0045	-0.0008	0.0045	0.0022	-18.3
0.0007	-0.0008	0.0082	0.0022	-18.3
0.0022	-0.0015	0.0082	-0.0008	-18.3
-0.0015	-0.0015	0.0105	0.0015	-18.3
-0.0158	0.0015	0.009	0.0015	-18.3
-0.0218	-0.0008	0.0067	0.0007	-18.3
-0.0233	-0.0008	0.0022	-0.0008	-18.3
-0.021	-0.0008	0.0052	-0.0023	-18.3
-0.0135	-0.0008	0.0045	-0.003	-18.3
0	0.0015	0.0015	-0.0091	-18.3
0.018	0.0007	0.003	-0.0143	-18.3
0.0255	0.0015	0.0015	-0.0143	-18.3
0.0232	0.0007	0	-0.0105	-18.3
0.0225	0.0007	-0.0053	-0.006	-18.3
0.0105	-0.0008	-0.0083	-0.0008	-18.3
-0.0068	-0.0008	-0.0053	0.0165	-18.3
-0.0075	0.0007	-0.0008	0.0285	-18.3
-0.0091	-0.0015	0.003	0.0142	-18.3
-0.0068	-0.0015	0.003	0.0015	-18.3
-0.0015	-0.0015	0.003	0.0037	-18.3
0.003	-0.003	0.0037	0.0007	-18.3
0.0105	0	0.003	-0.0015	-18.3
0.015	0.0015	0.0067	-0.0046	-18.2
0.0142	-0.0008	0.0067	-0.006	-18.2
0.0075	-0.0015	0.003	-0.0038	-18.2
0.0007	-0.0015	0.003	-0.0046	-18.2
-0.006	0.0022	-0.0008	-0.003	-18.2
-0.0075	0.003	-0.0015	-0.0008	-18.2
-0.0053	0.0007	0	0	-18.2
-0.0068	-0.0015	-0.0008	-0.0015	-18.2
-0.0083	0	0	-0.003	-18.2
-0.0098	0.0015	-0.0015	-0.0015	-18.2
-0.0083	-0.0015	-0.003	-0.003	-18.2
-0.0046	-0.0008	-0.0015	-0.0015	-18.2
-0.0046	0.0007	-0.003	0.0015	-18.2
-0.0046	0.0007	-0.003	0	-18.2
-0.003	0.0007	0.0015	-0.0015	-18.2
-0.0038	-0.0008	0.0022	-0.0008	-18.2
-0.0053	-0.0008	0.0037	-0.0023	-18.2
-0.0075	-0.0008	0.0007	-0.0023	-18.2
-0.0083	-0.0015	0	-0.003	-18.2
-0.0068	-0.003	0.0022	-0.003	-18.2
-0.003	-0.0023	0.0007	0	-18.2
0	-0.0015	0.0067	-0.0008	-18.2
0.003	-0.0038	0.0067	0	-18.2
0.003	-0.0023	0.0052	0.0007	-18.2
-0.0008	-0.0008	0.0075	0	-18.2
0	0.0007	0.0067	0.0015	-18.2
-0.0023	0.0015	0.009	0.0022	-18.2
-0.0015	0.0015	0.0045	0.0045	-18.2
-0.0008	0.0007	0.003	0.0037	-18.2
-0.0008	-0.0015	0	0.003	-18.2
0	-0.0015	-0.0023	0.0045	-18.2
-0.003	-0.0008	-0.0015	0.003	-18.2
0	-0.0015	-0.0046	0.0015	-18.2
0.0015	-0.0015	-0.0008	0.003	-18.2
0.003	-0.0015	-0.0008	0.003	-18.2
0.0067	-0.0015	0.003	0.0045	-18.2
0.0037	0.0007	0.0037	0.0007	-18.2
0.003	0	0.0007	-0.0128	-18.2
-0.0015	0.0015	0.0037	-0.0218	-18.2
-0.0008	0.0015	0.003	-0.0091	-18.2
-0.0015	-0.0008	0.0052	-0.0046	-18.2
-0.0038	-0.0015	0.003	-0.0038	-18.2
-0.0015	-0.003	0	0.0052	-18.2
-0.0046	-0.0015	0.0015	0.0015	-18.2
-0.003	0	-0.0008	0.0037	-18.2
-0.0015	0	-0.0008	0.0015	-18.2
-0.0015	0.0015	-0.0008	-0.0023	-18.2
-0.0008	0.0007	0.0022	-0.0046	-18.2
-0.0015	-0.0015	0.0045	-0.003	-18.2
0	-0.0008	0.0045	0.003	-18.2
-0.0008	-0.0008	0.0052	0.0015	-18.2
-0.0008	-0.003	-0.003	0.0015	-18.2
0.0015	-0.0008	-0.0083	-0.0023	-18.2
0.0007	-0.0008	-0.0105	-0.003	-18.2
-0.0015	-0.0015	-0.0098	0	-18.2
0	0.0007	-0.0053	0	-18.2
-0.0015	0.0015	-0.0008	0.003	-18.2
-0.0015	0.0015	0.0052	0.0015	-18.2
0.0037	0.003	0.003	0.003	-18.2
0.0052	0.0045	0.0045	0.0037	-18.2
0.0015	0.0015	0.0082	0.0015	-18.2
-0.0053	0.0022	0.0082	0.0015	-18.2
-0.0165	0.0007	0.0067	-0.0046	-18.2
-0.0218	-0.0015	0.003	-0.006	-18.2
-0.0233	0	0.003	-0.0046	-18.2
-0.0218	0.0015	0.0007	-0.0023	-18.2
-0.0091	0.003	-0.0008	0.0007	-18.2
0.0037	0.0037	0.0022	0.0015	-18.2
0.021	0.0037	0.0015	0.0015	-18.2
0.0345	0.0022	0.0022	0.0015	-18.2
0.0427	-0.0008	0.0045	0.0015	-18.2
0.0442	0.0007	0.0045	-0.0008	-18.2
0.03	0.0007	0.0015	-0.0008	-18.2
0.0142	0	0.0052	-0.0008	-18.2
0.0007	0	0.0052	0	-18.2
-0.0091	0.0015	0.0015	-0.0008	-18.2
-0.0135	-0.0008	0.003	-0.003	-18.2
-0.0158	-0.0015	-0.003	-0.003	-18.2
-0.015	-0.0008	-0.0008	-0.0015	-18.2
-0.0135	-0.003	-0.0015	-0.0023	-18.2
-0.0105	-0.0015	-0.003	-0.0008	-18.2
-0.0098	0	0.0007	0.0007	-18.2
-0.0105	-0.003	0.0007	0.003	-18.2
-0.012	-0.0023	0.0037	0.0007	-18.2
-0.0128	-0.003	0.003	-0.0008	-18.2
-0.0135	-0.003	0.0052	-0.0015	-18.2
-0.0113	-0.0015	0.0045	-0.0008	-18.2
-0.0068	-0.0008	0.003	0.0015	-18.2
-0.0015	-0.0015	0.003	-0.0008	-18.2
0.003	0.0007	0.0045	0.0015	-18.2
0.0022	0.0015	0.006	0.0007	-18.2
0.0015	0.003	0.0022	-0.003	-18.2
0.0007	0.003	0	-0.0015	-18.2
-0.0008	0.0007	-0.0023	-0.0015	-18.2
0.0015	0.0007	0.0015	0.0015	-18.2
-0.0015	-0.0015	0.003	-0.0008	-18.2
-0.0008	-0.0015	0.003	-0.0015	-18.2
0.0007	-0.0015	0.0045	0.0007	-18.2
-0.003	0.0007	0.0015	-0.0008	-18.2
-0.0015	0	0.0015	0.0007	-18.2
-0.0053	-0.0008	0.0022	0.0015	-18.2
-0.0068	0.0022	0.0037	0	-18.2
-0.0068	0.0015	0.0045	0.0007	-18.2
-0.0068	0.0015	0.0015	0.0007	-18.2
-0.003	0.0015	0.0045	0.0015	-18.2
-0.003	0.0007	0.0015	0.0015	-18.2
0.0037	0.0007	0.0015	0	-18.2
0.0037	-0.0008	-0.0038	0.003	-18.2
0.0052	-0.0015	-0.0046	0.003	-18.2
0.0105	-0.0008	-0.0015	0.0052	-18.2
0.0037	-0.0008	-0.003	0.0075	-18.2
0.0045	-0.0008	0.0015	0.0052	-18.2
0.0015	-0.0008	0.0015	0.0015	-18.2
-0.0015	-0.0008	0.0045	-0.0135	-18.2
-0.0015	0	0.0052	-0.0218	-18.2
-0.0015	0	0.0037	-0.0105	-18.2
0.0007	0	0.0067	-0.0068	-18.2
-0.0008	-0.0008	0.0037	-0.003	-18.2
0.0007	-0.0008	0.0075	0.003	-18.2
0.0007	-0.0015	0.0037	0.0015	-18.2
0.0015	-0.0015	0.0007	0.0052	-18.3
0.0015	-0.0015	0.0015	0.006	-18.3
0.003	-0.0038	-0.0015	0.003	-18.3
0.0022	-0.0046	0.0015	0	-18.3
-0.0015	-0.0046	0.0007	-0.0023	-18.3
0	-0.003	0.0022	0.0015	-18.3
-0.0015	-0.0008	0.0045	0.0015	-18.3
0.0015	-0.0008	0.0022	0.0022	-18.3
0	-0.0015	0.003	0.0007	-18.3
0.0007	-0.0008	-0.0008	-0.0008	-18.3
0.0015	0	0.0037	0.0007	-18.3
-0.0023	0	0.0037	0	-18.3
0.003	0.0022	0.003	0.0007	-18.3
0	0.0037	0.0052	0.0007	-18.3
0.0007	0.0015	0.003	-0.0008	-18.3
0.0007	0.0007	0.0037	-0.0015	-18.3
-0.003	0.0007	0.0015	-0.003	-18.3
0.0007	0.0015	0.0052	-0.0015	-18.3
-0.003	-0.0015	0.0045	-0.0023	-18.3
-0.0015	-0.0015	-0.0008	-0.0015	-18.3
-0.0015	0	0.0007	-0.003	-18.3
-0.0046	0.0015	0.0007	-0.0015	-18.3
0.0015	0	0.0015	-0.0008	-18.3
-0.0053	-0.003	0.0037	-0.0015	-18.3
-0.003	-0.0068	0.0037	0	-18.3
-0.0023	-0.0083	0.0052	0.0007	-18.3
-0.0083	-0.0091	0.0052	0.0015	-18.3
-0.0023	-0.0083	0.0045	0.0015	-18.3
-0.0053	0.0037	0.0052	0.003	-18.3
-0.0038	0.0172	0.0022	0.0037	-18.3
-0.0023	0.021	-0.0023	0.0007	-18.3
-0.0068	0.012	-0.003	-0.0023	-18.3
-0.0053	0.0037	-0.006	-0.0038	-18.3
-0.006	-0.003	-0.0053	-0.0015	-18.3
-0.0008	-0.0075	-0.0075	0.0022	-18.3
-0.0023	-0.003	-0.006	0.0045	-18.3
-0.0053	0.0105	-0.003	0.0015	-18.3
-0.0015	0.0315	0.0007	0.003	-18.3
-0.0038	0.0157	0.0037	0.0037	-18.3
-0.0008	-0.0233	0.0015	0.0045	-18.3
-0.0008	-0.0375	0.0015	0.0052	-18.4
-0.0023	-0.039	0.0015	0.0015	-18.4
0.003	-0.012	-0.0015	0.0015	-18.4
0.0022	0.0127	-0.003	0.0007	-18.4
0.0052	0.018	-0.0023	0	-18.4
0.0075	0.0165	-0.0008	0.0015	-18.4
0.009	0.0142	0.003	0.0015	-18.4
0.0127	0.027	0.0075	0.0037	-18.4
0.006	0.015	0.0105	-0.003	-18.4
0.0037	-0.0015	0.0067	-0.0075	-18.4
-0.0015	-0.0075	0.0052	-0.0091	-18.4
-0.003	-0.0105	0.0052	-0.0053	-18.4
-0.0023	0.0135	0.0007	0.003	-18.4
-0.006	0.0405	-0.003	0.003	-18.4
-0.0015	0.0495	-0.0038	0.003	-18.4
-0.0046	0.0292	-0.0015	-0.0008	-18.5
-0.0038	0	0.0007	-0.0023	-18.5
-0.0015	-0.0263	0.0007	-0.003	-18.5
-0.0015	-0.0555	0.003	-0.0083	-18.5
0.0007	-0.066	0.0045	-0.0098	-18.5
-0.0053	-0.075	0.0045	-0.0143	-18.5
-0.0068	-0.0728	0.0045	-0.0143	-18.5
-0.0083	-0.0511	0.003	-0.0113	-18.5
-0.0091	-0.033	0.003	-0.0105	-18.5
-0.0038	-0.0203	0	-0.0046	-18.5
-0.0046	-0.0008	0.003	0.0007	-18.5
-0.0008	0.0232	0.0052	0.003	-18.5
0.0015	0.0277	0.003	0.0067	-18.5
-0.0008	0.015	0.0052	0.0097	-18.5
0.0045	0.0195	0.0045	0.0127	-18.5
0.0037	0.0277	0.0052	0.012	-18.5
0.006	0.0322	0.003	0.0067	-18.6
0.006	0.0405	0.0007	0.003	-18.6
0.003	0.0405	0.0015	-0.0008	-18.6
0.0022	0.051	-0.0008	-0.0046	-18.6
0.0007	0.0345	0.003	-0.003	-18.6
0	-0.0128	0.003	-0.0008	-18.6
-0.0068	-0.0293	0.0007	0.003	-18.6
-0.006	-0.039	-0.0008	0.0052	-18.6
-0.003	-0.0353	-0.0008	0.0052	-18.6
-0.0015	-0.015	0.003	0.0045	-18.7
0.003	0.0142	0.0052	0.0015	-18.7
0.0007	0.036	0.0052	0	-18.7
0.003	0.0037	0.0007	-0.0053	-18.7
0.0045	-0.015	-0.0008	-0.0083	-18.7
0.0037	-0.0158	-0.0008	-0.0068	-18.8
0.0052	-0.021	-0.0046	-0.0053	-18.8
-0.0008	-0.0046	-0.003	-0.003	-18.8
-0.003	0.009	-0.0015	0.0045	-18.8
-0.0023	0.0195	0.0007	0.009	-18.8
-0.0046	0.0202	0.003	0.0082	-18.9
-0.0015	0.0052	0.0045	0.0045	-18.9
-0.0008	-0.0233	0.0045	0.0015	-18.9
-0.003	-0.0338	0.0052	0.0045	-18.9
-0.0023	-0.0083	0.0045	0.0045	-18.9
-0.0038	-0.0128	0.0052	0.0075	-19
-0.0023	-0.027	0.0082	0.012	-19
-0.0015	-0.0015	0.0045	0.0097	-19
-0.0038	0.0165	0.003	0.0052	-19
-0.0015	0.0337	0.0037	-0.0008	-19.1
-0.003	0.0547	0	-0.003	-19.1
-0.0008	0.0495	0.0022	-0.0038	-19.1
0.0007	0.0187	-0.0015	-0.0083	-19.1
0.0007	-0.0113	-0.0008	-0.0128	-19.2
0.0015	-0.0105	-0.0008	-0.0173	-19.2
-0.003	-0.0068	-0.0046	-0.0203	-19.3
-0.0008	-0.0105	-0.0015	-0.0195	-19.3
-0.0015	-0.0135	-0.0015	-0.0165	-19.3
-0.0008	-0.0135	-0.0008	-0.0105	-19.3
-0.0015	-0.0053	-0.0015	-0.0083	-19.4
-0.003	0	0	-0.0083	-19.4
0.0045	0.0007	0.0007	-0.006	-19.4
-0.0015	0	0.0045	-0.006	-19.5
-0.0015	-0.0008	0.0067	-0.003	-19.5
-0.0023	-0.0008	0.003	0.0015	-19.5
-0.006	-0.0015	0.0045	0.003	-19.6
-0.003	-0.0038	0.0015	0.0052	-19.6
-0.006	-0.0053	0.003	0.0022	-19.7
-0.003	-0.0068	0.0052	0.0015	-19.7
-0.0053	-0.012	0.0045	0.0067	-19.7
-0.0023	-0.0293	0.003	0.0075	-19.8
-0.0008	-0.0405	0.0007	0.0105	-19.8
-0.003	-0.0285	0.0015	0.0097	-19.8
0.0045	-0.015	0.0007	0.0082	-19.8
-0.0008	0.0037	0.0015	0.0105	-19.9
0.0045	0.0292	0.0007	0.0097	-20
0.0052	0.0555	0.0007	0.0045	-20
-0.0023	0.0705	-0.0008	-0.003	-20
-0.0008	0.0787	-0.006	-0.0008	-20
-0.0053	0.0765	-0.0015	0.003	-20.1
0	0.0577	0.0015	0.0052	-20.1
0.0007	0.03	0.0052	0.0082	-20.2
-0.0008	-0.0135	0.009	0.003	-20.2
0.003	-0.0488	0.0082	0.0015	-20.2
-0.0015	-0.0683	0.0075	0.0007	-20.3
0.0037	-0.0735	0.0007	-0.0046	-20.3
-0.0008	-0.0721	-0.0023	-0.0068	-20.3
-0.0046	-0.0615	-0.0015	-0.006	-20.4
-0.003	-0.03	0.003	-0.0046	-20.4
-0.0091	-0.0083	0.0067	-0.0046	-20.4
-0.0015	0.0037	0.0105	-0.0023	-20.5
-0.0015	0.0067	0.0127	-0.0015	-20.5
0.0007	0.0105	0.009	-0.0015	-20.6
0.006	0.0097	0.012	-0.0008	-20.6
0.0022	0.0105	0.009	0	-20.6
0.0052	0.0202	0.003	0.0015	-20.7
-0.0015	0.0292	0.003	0.003	-20.7
-0.0015	0.033	-0.0023	0.0015	-20.7
-0.003	0.0262	-0.003	0.0022	-20.7
-0.006	0.0172	-0.0053	0.0052	-20.8
-0.0008	0.0112	-0.0046	0.0045	-20.8
-0.0053	0.0097	-0.0023	0.0022	-20.8
-0.0015	0.0052	-0.0038	-0.0008	-20.9
0	-0.0008	0.0007	-0.0008	-20.9
-0.0015	-0.0083	0.0007	-0.003	-20.9
0.0022	-0.0158	-0.0008	-0.0046	-21
-0.0008	-0.0105	0.003	-0.0008	-21
0.0052	0	0.0007	0.0022	-21
0.0015	0.0127	0	0.0052	-21.1
-0.0008	0.0142	0	0.0052	-21.1
0.003	0.0082	0.0015	0.003	-21.2
-0.0015	0.0007	-0.0008	-0.0008	-21.2
0.0007	-0.0158	-0.0023	-0.0046	-21.2
-0.0015	-0.0293	0.0007	-0.0046	-21.2
0	-0.0443	-0.0008	-0.0038	-21.2
0.003	-0.0503	0.0007	-0.0023	-21.3
-0.003	-0.0368	0.0015	0.0022	-21.3
0.0015	-0.0165	0.0007	0.006	-21.3
-0.0015	0.0022	0.0022	0.0052	-21.4
-0.0015	0.0022	0.0015	0.0015	-21.4
-0.0015	0.0052	0.0015	-0.0023	-21.4
-0.006	0.033	-0.0015	-0.0068	-21.5
-0.0038	0.0472	-0.0015	-0.0083	-21.5
-0.0083	0.0307	-0.0008	-0.0068	-21.5
-0.0053	0.0127	-0.0015	-0.0083	-21.5
-0.006	0.0082	0.003	-0.0091	-21.6
-0.0053	0.0022	0.0052	-0.0105	-21.6
0.0022	-0.0038	0.0037	-0.0135	-21.6
-0.0015	-0.0038	0.0022	-0.0143	-21.6
0.0007	-0.003	0	-0.0128	-21.6
-0.0023	-0.0008	0.0015	-0.012	-21.7
-0.0053	-0.0128	0.003	-0.0098	-21.7
-0.003	-0.0278	0.0045	-0.0075	-21.7
-0.0038	-0.0181	0.0052	-0.0038	-21.8
0.0015	-0.0128	0.0067	0.0007	-21.8
0	-0.0083	0.009	0.0045	-21.9
0.0037	0.0067	0.0082	0.0097	-21.9
0.0067	0.012	0.0075	0.0105	-21.9
0.0015	0.0075	0.0007	0.006	-21.9
0.0045	-0.0068	0.0015	0.006	-21.9
0.0015	-0.0046	-0.0015	0.0052	-22
0.0037	0.009	-0.003	0.006	-22
0.0052	0.0112	0.0015	0.0067	-22
0.0022	0.012	0	0.0067	-22
0.003	0.006	0.0045	0.0067	-22.1
-0.0015	0.0067	0.0007	0.0045	-22.1
-0.0008	0.009	-0.0008	0.0045	-22.1
-0.0053	0.0067	-0.0015	0.0037	-22.1
-0.0083	0.0067	-0.0053	0.003	-22.1
-0.0068	0.003	-0.0008	0.0015	-22.2
-0.0053	0.0007	-0.0008	0.0015	-22.2
-0.0008	-0.0053	0.0045	-0.0008	-22.2
-0.0015	-0.012	0.0037	-0.0046	-22.2
0.0052	-0.0143	0.003	-0.0046	-22.3
0.0015	-0.0173	0.0045	-0.0053	-22.3
-0.0015	-0.0203	-0.0015	-0.0053	-22.4
0	-0.024	-0.0015	-0.0046	-22.4
-0.0015	-0.0173	-0.0023	-0.0046	-22.4
0.0015	-0.006	0.0007	-0.003	-22.4
-0.0008	-0.0015	-0.0008	-0.0008	-22.5
-0.0015	0.0022	0.0015	0.0022	-22.5
0	0.003	0.003	0.003	-22.5
-0.0015	0.0022	-0.0008	0.0052	-22.5
-0.0008	0.0105	0.0015	0.0075	-22.6
-0.0008	0.0367	0	0.0082	-22.6
-0.0008	0.0727	0.0052	0.0075	-22.6
0.0007	0.0855	0.003	0.0067	-22.7
0.0015	0.0585	-0.0008	0.009	-22.7
0.003	0.0157	-0.0015	0.009	-22.7
0.003	-0.0233	-0.003	0.0052	-22.8
0.003	-0.0458	0.0037	0.006	-22.8
0.0015	-0.033	0.0045	0.006	-22.8
-0.0015	0.0007	0.0067	0.003	-22.9
-0.003	0	0.0075	-0.0015	-22.9
-0.0053	-0.0315	0.006	-0.0068	-22.9
-0.0091	-0.0548	0.0112	-0.006	-23
-0.0068	-0.0818	0.012	-0.0053	-23
-0.0053	-0.0938	0.0105	-0.0068	-23
-0.0038	-0.0795	0.006	-0.0075	-23
-0.0008	-0.024	0.0022	-0.006	-23.1
0.0007	0.039	-0.0015	-0.0046	-23.1
0.0015	0.0412	-0.0038	-0.006	-23.1
0.0037	0.0232	-0.003	-0.0046	-23.2
0.0037	0	-0.0015	-0.0046	-23.2
0.0045	-0.0315	0.0007	-0.0046	-23.2
0.003	-0.039	0.0015	-0.0068	-23.3
0.0007	-0.0263	0.0007	-0.0091	-23.3
-0.0015	-0.0083	-0.003	-0.0075	-23.3
-0.0046	-0.0008	-0.0046	-0.0046	-23.3
-0.0053	-0.0008	-0.0038	-0.003	-23.4
-0.006	0.0015	-0.003	-0.0015	-23.4
-0.0083	0.003	-0.0008	0.0015	-23.4
-0.0038	0.0112	-0.0023	0.003	-23.4
0.0007	0.0225	0.0007	0.009	-23.5
0	0.0285	0.003	0.0112	-23.5
0.003	0.0315	0.0067	0.006	-23.6
0.0037	0.0307	0.0075	0.0015	-23.6
0.0022	0.027	0.0067	-0.0023	-23.6
0.0015	0.0127	0.0067	-0.0008	-23.6
-0.0038	0.0015	0.003	0.003	-23.7
-0.003	0.009	0.0037	0.0082	-23.7
-0.0023	0.0382	0.003	0.0157	-23.7
-0.0038	0.06	0.003	0.0217	-23.8
-0.0015	0.0547	0.0037	0.0142	-23.8
-0.0015	0.0367	0.003	0.0022	-23.8
0.0007	0.012	0.0007	-0.0046	-23.9
-0.0008	-0.0015	-0.0046	-0.0165	-23.9
-0.0015	-0.027	-0.0053	-0.0203	-23.9
0.0007	-0.0473	-0.0046	-0.0181	-23.9
-0.003	-0.0346	0	-0.0158	-24
0.0007	-0.0278	0.0015	-0.0091	-24
0.0015	-0.0128	0.0015	-0.0046	-24
0	-0.0053	0.0037	-0.003	-24.1
0.0037	-0.0046	0.0022	-0.0046	-24.1
0.0007	0.006	0.0015	-0.0046	-24.1
0.003	0.0022	0.0022	-0.0046	-24.2
-0.0023	-0.0008	0.0022	-0.0046	-24.2
-0.003	-0.0038	0.0022	-0.0015	-24.3
-0.0008	-0.0046	0.0052	-0.0008	-24.3
-0.0083	-0.006	0.0082	0.0015	-24.3
-0.003	-0.0083	0.0067	0.0007	-24.3
-0.0046	-0.0053	0.0067	-0.0008	-24.4
-0.0038	-0.0053	0.0045	0.0015	-24.4
0.003	-0.0046	-0.0008	0.0007	-24.5
0.003	-0.0105	-0.003	0.003	-24.5
0.006	-0.0165	-0.0046	0.0015	-24.6
-0.0023	-0.0135	-0.0023	0.0007	-24.6
-0.0015	-0.0075	-0.0015	0.0015	-24.6
-0.0015	-0.003	-0.0008	0.003	-24.7
-0.0015	0.0052	0.006	0.0082	-24.7
0.0045	0.0217	0.0067	0.0112	-24.8
-0.0008	0.0352	0.009	0.0127	-24.8
0.0037	0.0352	0.0082	0.0105	-24.8
0	0.0165	0.0037	0.0067	-24.8
-0.0015	-0.0098	0.0045	0.0067	-24.9
0.0015	-0.0195	0.0052	0.0007	-25
-0.0046	-0.012	0.006	-0.0023	-25
-0.0008	0.0127	0.003	0	-25
-0.0038	0.0352	0.0045	0.0007	-25.1
0.0015	0.0255	0.0037	0.0052	-25.1
0.0052	0.0165	0.0007	0.0037	-25.1
0.0037	0.0007	-0.0023	0.0015	-25.2
0.0097	-0.0165	-0.0091	0	-25.2
-0.0015	-0.015	-0.0083	-0.0038	-25.2
-0.0008	-0.015	-0.0098	-0.0068	-25.3
-0.0008	-0.0091	-0.0083	-0.0105	-25.3
-0.0053	-0.0053	-0.0023	-0.0128	-25.3
0.0015	0.0195	-0.0015	-0.0105	-25.4
-0.003	0.042	0	-0.0083	-25.4
-0.003	0.0285	0.0015	-0.0068	-25.5
-0.0046	0.0067	0.006	-0.0046	-25.5
-0.0053	-0.0203	0.0052	-0.0008	-25.6
-0.0008	-0.0405	0.003	0	-25.6
-0.006	-0.0465	0.0045	0.003	-25.6
-0.0008	-0.0218	0.0037	0.0075	-25.7
-0.003	0.0307	0.006	0.0127	-25.7
-0.0068	0.0562	0.006	0.021	-25.7
-0.0015	0.0622	0.0067	0.021	-25.8
-0.0083	0.0667	0.0067	0.012	-25.8
-0.0046	0.0322	0.003	0.009	-25.9
-0.006	-0.0038	-0.0008	0.012	-25.9
-0.0083	-0.0181	-0.0046	-0.0008	-25.9
-0.003	-0.0458	-0.0068	-0.0105	-26
-0.0053	-0.0765	-0.0053	-0.012	-26
0.0015	-0.0803	-0.003	-0.0158	-26.1
-0.0008	-0.0428	0.003	-0.0135	-26.1
0.0037	-0.0158	0.0052	-0.0128	-26.1
0.0052	-0.006	0.006	-0.0091	-26.2
-0.0015	0.0022	0.0082	-0.0135	-26.2
0.0007	-0.0046	0.006	-0.0158	-26.3
-0.0046	-0.0143	0.0067	-0.0143	-26.3
-0.0046	-0.0233	0.0015	-0.0225	-26.3
-0.0053	-0.0225	0.0015	-0.0248	-26.4
-0.0075	-0.015	-0.0008	-0.024	-26.4
-0.003	-0.0008	-0.006	-0.0165	-26.5
-0.003	0.0097	-0.003	-0.0053	-26.6
-0.0008	0.012	-0.0053	0.0037	-26.6
-0.0015	0.0142	-0.003	0.0127	-26.6
0.0022	0.0277	0	0.012	-26.6
0.0052	0.0525	0.0015	0.009	-26.7
0.0045	0.033	0.0022	0.009	-26.7
0.0052	0.0067	0.0007	0.0105	-26.8
0.003	0.0112	0.0015	0.0142	-26.8
0.003	0.0015	-0.0038	0.0097	-26.9
0.0007	0.006	0	0.0105	-26.9
0.0007	0.018	0.0037	0.0105	-27
0	0.018	0.0045	0.0045	-27
-0.003	0.012	0.0127	-0.0015	-27
-0.006	-0.0008	0.012	-0.0038	-27
-0.0053	-0.0038	0.0127	0	-27.1
-0.0053	0.0007	0.0097	0.0007	-27.1
-0.0046	0.0052	0.003	0.0015	-27.2
0.0007	-0.0105	0.0022	-0.0023	-27.2
-0.0008	-0.0256	-0.003	-0.0053	-27.3
0.0022	-0.0233	-0.0015	-0.003	-27.3
0.0007	-0.021	-0.0053	-0.0038	-27.4
-0.0015	-0.03	-0.0075	-0.0053	-27.4
0.0007	-0.03	-0.003	-0.0075	-27.5
-0.0008	0.0015	-0.003	-0.0008	-27.5
0.0007	0.0382	0.0007	0.0045	-27.6
-0.0023	0.075	-0.0015	0.009	-27.6
-0.0008	0.078	-0.0008	0.009	-27.7
0.0007	0.024	0.0015	0.0112	-27.7
-0.0015	-0.0188	0.0015	0.015	-27.8
-0.0008	-0.066	0.0052	0.0067	-27.8
-0.0015	-0.111	0.0052	0.0007	-27.9
-0.0008	-0.09	0.0045	-0.0008	-27.9
0.0007	-0.0278	0.003	0.0015	-28
-0.003	0.0142	0.0015	0.0045	-28
-0.0008	0.0232	0.0052	0.0015	-28.1
0.003	0.0097	0.0067	0.0022	-28.1
0.0045	-0.0023	0.0097	0.0045	-28.2
0.009	0.0045	0.0067	-0.0008	-28.3
0.0045	-0.0128	0.0022	-0.0083	-28.3
0.003	0.0037	0.003	-0.0046	-28.4
0.0037	0.0255	0.0045	-0.003	-28.4
0.0015	0.0217	0.0052	-0.0015	-28.4
0.0037	0.0322	0.0045	-0.0008	-28.5
-0.0023	0.0165	0.003	-0.003	-28.6
-0.0008	0.0202	0.0015	-0.0015	-28.6
-0.0015	0.018	0.0007	-0.0053	-28.7
-0.006	0.0165	0	-0.0068	-28.8
-0.003	0.015	0	-0.006	-28.8
-0.0075	-0.0008	-0.0015	-0.006	-28.9
-0.0038	-0.0008	-0.003	-0.0046	-28.9
-0.003	-0.0091	0	-0.0075	-29
-0.0046	-0.0046	-0.0008	-0.0075	-29.1
-0.0008	0.0127	-0.0008	-0.0015	-29.1
-0.0038	0.0375	-0.0008	0.0082	-29.2
-0.003	0.039	-0.0023	0.015	-29.3
-0.0053	0.0075	-0.0015	0.0217	-29.3
-0.0015	-0.033	0.0007	0.027	-29.4
0.0045	-0.0653	0.003	0.027	-29.4
0.006	-0.0578	0.0067	0.0232	-29.5
0.0097	-0.024	0.0067	0.0157	-29.6
0.006	0.0217	0.0037	0.0015	-29.7
0.003	0.0195	0.0007	-0.0181	-29.7
0.0007	-0.0195	-0.0008	-0.0225	-29.7
-0.0038	-0.0346	-0.0008	-0.0203	-29.8
-0.0008	-0.0293	0.0007	-0.0181	-29.9
-0.0038	-0.0143	0	-0.0128	-30
-0.0015	-0.0038	-0.0008	-0.0135	-30
0.0022	0.0015	0.0015	-0.0128	-30.1
-0.0023	0.0037	0.0037	-0.0143	-30.2
0.0007	0.0082	0.0045	-0.015	-30.2
-0.0038	0.0045	0.003	-0.012	-30.3
-0.0046	0.0105	-0.0008	-0.0083	-30.3
-0.0023	0.0142	-0.0015	-0.0053	-30.4
-0.0068	0.003	-0.003	-0.0053	-30.5
0	-0.0285	-0.0046	-0.0008	-30.6
-0.003	-0.0578	-0.0023	0.0097	-30.6
-0.0008	-0.033	-0.0015	0.0217	-30.7
0.0022	-0.0053	0.0007	0.0277	-30.8
0	0.0202	0.003	0.0285	-30.8
0.0052	0.0832	0.0045	0.03	-30.9
0.0015	0.1365	0.0037	0.0232	-31
0	0.159	0.0015	0.015	-31.1
-0.0046	0.1522	0.0007	0.0067	-31.1
-0.006	0.0945	0.0022	0	-31.2
-0.003	-0.0098	0.0045	0	-31.2
-0.0068	-0.084	0.0045	0.0007	-31.3
-0.0008	-0.0803	0.0052	-0.0038	-31.4
-0.0015	-0.048	0.0067	-0.0128	-31.5
-0.0008	-0.0135	0.0067	-0.0233	-31.5
0	-0.0278	0.0067	-0.0225	-31.6
-0.0053	-0.075	0.003	-0.0091	-31.7
-0.006	-0.0848	0	-0.0091	-31.8
-0.0105	-0.0885	0.003	-0.012	-31.8
-0.006	-0.0653	0.003	-0.006	-31.9
-0.0083	-0.0413	0.0015	-0.0038	-32
-0.0053	-0.048	0.003	-0.003	-32
0.0007	-0.057	0.003	-0.0046	-32.1
0.0015	-0.0443	0.003	-0.0015	-32.2
0.0067	-0.0068	0.0015	0.0007	-32.3
0.006	0.0045	0.003	-0.0075	-32.3
0.0067	-0.0008	0.0007	-0.0091	-32.4
0.0045	-0.0015	0	-0.0083	-32.5
0.0015	0.0097	0.0045	-0.0105	-32.5
0.0015	0.0217	0.003	-0.0188	-32.6
-0.0015	0.018	0.0007	-0.0248	-32.7
-0.0008	-0.006	0	-0.027	-32.8
-0.0046	-0.0353	-0.0023	-0.0293	-32.9
-0.0038	-0.0383	-0.0038	-0.0308	-32.9
-0.0046	-0.0383	-0.0015	-0.0218	-33
-0.0053	-0.0015	0.0007	-0.003	-33
-0.0008	0.0997	0.0037	0.0195	-33.1
-0.0008	0.1545	0.0052	0.033	-33.2
0.003	0.1342	0.006	0.0352	-33.3
-0.0008	0.0907	0.0015	0.0345	-33.3
-0.003	0.0427	-0.0008	0.033	-33.4
-0.0008	0.0202	0.0007	0.0345	-33.5
-0.0015	-0.021	0.0015	0.0315	-33.6
0.0045	-0.0758	0.0045	0.0292	-33.6
0.003	-0.1021	0.0052	0.027	-33.7
0.0037	-0.0871	0.006	0.0217	-33.8
0.0052	-0.0353	0.0052	0.0157	-33.9
0.0007	0.0172	0.0075	0.015	-33.9
0.0037	0.0615	0.006	0.0135	-34
0.0015	0.0712	0.0037	0.0075	-34.1
0.0015	0.0682	0.0052	-0.0015	-34.2
0.003	0.0495	0.0022	-0.0195	-34.2
-0.0008	0.0105	0.003	-0.0278	-34.3
0.0007	-0.0263	0.0022	-0.0375	-34.4
-0.0015	-0.0383	0.0045	-0.0495	-34.5
-0.0046	-0.021	0.0052	-0.0518	-34.6
-0.0015	-0.0143	0.0052	-0.0533	-34.7
-0.003	-0.0038	0.0045	-0.0458	-34.7
-0.0053	-0.0015	0.0037	-0.0428	-34.8
-0.006	-0.003	0.0045	-0.0346	-34.9
-0.0091	-0.003	0.003	-0.0233	-35
-0.0068	0.0067	0.0007	-0.0165	-35
-0.0075	0.0382	-0.0053	-0.0053	-35.1
-0.0068	0.0195	-0.0083	0.0075	-35.2
-0.003	-0.0368	-0.0083	0.027	-35.2
-0.003	-0.054	-0.0083	0.0405	-35.3
0.003	-0.0436	-0.0053	0.0562	-35.5
0.0045	-0.027	-0.0015	0.0682	-35.5
0.0052	0.0052	-0.0008	0.0675	-35.6
0.0075	0.0352	0.0015	0.057	-35.7
0.0052	0.0495	0.0067	0.0457	-35.8
0.0037	0.0307	0.0067	0.0397	-35.9
-0.0008	0.0262	0.0067	0.033	-35.9
-0.0023	0.0367	0.0082	0.0255	-36
-0.0046	0.021	0.0097	0.0142	-36.1
-0.0046	0.0142	0.0112	0.0007	-36.2
-0.0008	-0.003	0.0127	-0.0098	-36.3
0.003	-0.0195	0.012	-0.0181	-36.4
0.0052	-0.0233	0.0105	-0.0181	-36.5
0.0052	-0.0293	0.0105	-0.0158	-36.5
0.0045	-0.0218	0.0097	-0.0143	-36.6
0.0015	-0.0233	0.0075	-0.0158	-36.7
0	-0.0158	0.0007	-0.0195	-36.8
0	-0.0008	-0.0053	-0.0293	-36.9
0	0.0045	-0.0105	-0.0353	-36.9
-0.0023	0.009	-0.0143	-0.0361	-37
-0.0015	0.0127	-0.0143	-0.0353	-37.2
-0.0046	0.015	-0.0173	-0.0346	-37.2
-0.0068	0.0022	-0.0143	-0.0353	-37.3
-0.0075	-0.0015	-0.0091	-0.0405	-37.4
-0.0113	-0.0023	-0.0091	-0.048	-37.5
-0.0098	-0.0346	-0.0015	-0.0548	-37.6
-0.0075	-0.0578	0.0015	-0.0495	-37.7
-0.0053	-0.0518	0.0045	-0.0368	-37.8
-0.0015	-0.0293	0.009	-0.021	-37.8
-0.0046	-0.0128	0.0075	-0.0068	-37.9
-0.0038	-0.0203	0.009	0.0037	-38.1
-0.003	-0.0128	0.009	0.0187	-38.2
-0.003	0.042	0.0112	0.033	-38.3
0.0007	0.0742	0.006	0.0472	-38.3
-0.003	0.0592	0.0022	0.0622	-38.4
-0.0008	0.0495	0.003	0.0727	-38.5
0.0007	0.06	0	0.0735	-38.6
0.0007	0.0907	0.0015	0.0667	-38.7
0.0045	0.0892	-0.0008	0.0495	-38.8
0.0015	0.0165	-0.0015	0.0262	-38.9
0.0045	-0.0728	-0.0015	0.0127	-39
0.0015	-0.129	-0.0023	0.006	-39.1
-0.003	-0.1088	0.0015	0.0127	-39.2
-0.0008	-0.0278	0.003	0.0165	-39.3
-0.0008	0.0217	0.0067	0.0052	-39.4
0.0037	0.039	0.0082	-0.0053	-39.5
0.0037	0.0337	0.009	-0.0218	-39.6
0.0007	0.024	0.009	-0.0315	-39.7
0.0007	0.0142	0.0067	-0.0383	-39.8
-0.0083	-0.0263	0.0067	-0.0436	-39.9
-0.0091	-0.0578	0.0015	-0.0368	-40.1
-0.0083	-0.0713	0	-0.03	-40.1
-0.006	-0.033	-0.0038	-0.0195	-40.2
-0.0015	0.0427	-0.0046	-0.0105	-40.4
-0.0008	0.057	-0.0008	-0.0053	-40.5
0.003	0.0105	-0.0068	0.003	-40.5
0.0007	-0.0173	-0.0083	0.0067	-40.7
-0.003	-0.0195	-0.012	0.0067	-40.8
-0.0015	-0.015	-0.0113	0.0105	-40.9
-0.0015	-0.0128	-0.0053	0.0127	-41
0.003	-0.048	0	0.0165	-41.1
0.0022	-0.06	0.009	0.0187	-41.2
0.0045	-0.0158	0.0142	0.0202	-41.3
0.0052	-0.0046	0.0172	0.027	-41.4
0.003	-0.0225	0.0187	0.03	-41.6
0.003	-0.0203	0.0157	0.0217	-41.7
-0.003	-0.0105	0.0105	0.0075	-41.8
-0.003	0.003	0.0037	-0.0008	-41.9
-0.003	0.003	-0.0038	-0.0046	-42.1
-0.0023	-0.0091	-0.0053	0.003	-42.2
-0.0008	-0.0008	-0.003	0.0112	-42.3
-0.003	0.0202	0.0007	0.0067	-42.4
-0.003	0.03	0.003	0.0075	-42.5
-0.003	0.0337	0.0037	0.009	-42.7
0.0007	0.0345	0.0075	-0.003	-42.8
-0.0008	0.0307	0.0082	-0.0195	-42.9
-0.0023	0.0082	0.006	-0.0353	-43
-0.0053	-0.024	0.0052	-0.0353	-43.2
-0.0068	-0.0218	0.0007	-0.0346	-43.3
-0.0015	-0.0083	-0.0038	-0.0405	-43.4
-0.0038	-0.0053	-0.003	-0.0346	-43.6
0	0.006	-0.0053	-0.0353	-43.7
-0.0008	0.0045	-0.0083	-0.0383	-43.8
-0.0046	-0.0046	-0.0083	-0.0353	-43.9
-0.0023	0.0037	-0.0083	-0.0315	-44.1
-0.0046	0.0202	-0.0053	-0.0195	-44.2
-0.0015	0.018	-0.0038	-0.0143	-44.3
-0.003	-0.033	0.0007	-0.0091	-44.5
-0.0023	-0.0743	0.0045	0.0015	-44.6
0.0007	-0.0585	0.0082	0.0127	-44.7
0.0015	-0.0091	0.0082	0.0307	-44.9
0.0075	0.039	0.0022	0.0427	-45
0.009	0.0832	0.0015	0.0555	-45.2
0.0082	0.1342	0.003	0.0592	-45.3
0.0015	0.15	0.0045	0.0517	-45.5
-0.003	0.1095	0.006	0.042	-45.6
-0.0046	0.0052	0.0067	0.024	-45.7
-0.003	-0.0818	0.0105	0.0105	-45.9
-0.0008	-0.0765	0.0097	0.0015	-46
-0.0008	-0.0458	0.0082	-0.0068	-46.1
0.0045	-0.0308	0.0052	-0.0105	-46.3
0.003	-0.0098	-0.0008	-0.0105	-46.4
0.0045	0.0075	-0.003	-0.0128	-46.6
0.0045	0.015	-0.0046	-0.0143	-46.7
0	0.024	-0.0083	-0.0015	-46.8
0.0022	0.0277	-0.0046	0.0127	-47
-0.0023	0.027	-0.003	0.024	-47.2
-0.0046	0.0405	-0.0023	0.018	-47.3
-0.0053	0.039	0.0015	0.0082	-47.5
-0.006	0.0015	0.0022	0.0037	-47.6
-0.0038	-0.012	0.0082	0.0015	-47.8
-0.0023	0.0045	0.0105	-0.003	-47.9
0.0045	0.0165	0.0127	-0.0113	-48.1
0.0045	0.009	0.0135	-0.0181	-48.2
0.0075	-0.0203	0.0135	-0.0263	-48.4
0.0067	-0.0128	0.0142	-0.0368	-48.5
0.0007	-0.0143	0.0082	-0.0436	-48.7
0.0015	-0.0503	0.0007	-0.039	-48.8
-0.006	-0.0743	-0.0015	-0.0278	-49
-0.003	-0.0743	-0.0046	-0.0165	-49.1
-0.0023	-0.033	-0.006	-0.003	-49.3
-0.0015	-0.0046	-0.0075	0.009	-49.4
0.0045	0.0007	-0.0083	0.0195	-49.6
0.0007	0.0015	-0.0105	0.0307	-49.7
0.0045	-0.003	-0.0083	0.033	-49.9
0.0022	0	-0.0053	0.0277	-50.1
-0.0008	-0.0091	-0.0068	0.0172	-50.2
-0.0008	0.0015	-0.0091	0.0067	-50.4
-0.003	-0.0113	-0.0105	0.0015	-50.5
0.0007	-0.0436	-0.0046	-0.006	-50.7
0.0007	-0.048	-0.0023	-0.0105	-50.9
0.003	-0.054	0.003	-0.0083	-51
0.006	-0.0315	0.009	-0.0105	-51.2
0.0052	0.015	0.0127	-0.0128	-51.3
0.003	0.0555	0.0157	-0.0128	-51.5
0.0015	0.0532	0.0142	-0.0068	-51.7
0.0007	0.0495	0.0142	0.003	-51.8
-0.003	0.0622	0.0067	0.0037	-52
-0.0083	0.0352	0.0007	0.0135	-52.1
-0.0091	0.0292	-0.0015	0.0165	-52.3
-0.0083	0.0427	-0.003	0.003	-52.5
-0.0053	0.0337	-0.0046	-0.003	-52.6
-0.0053	-0.0075	-0.0053	-0.0098	-52.8
-0.0038	-0.0405	-0.0008	-0.0113	-52.9
-0.0015	-0.042	-0.0015	-0.0143	-53.1
-0.0008	-0.0256	0.0007	-0.0173	-53.3
0.0015	0.0232	0.0052	-0.0225	-53.4
0.0037	0.0592	0.0045	-0.0323	-53.6
0.003	0.063	0.0045	-0.0323	-53.8
0	0.018	0.0007	-0.0293	-54
-0.0038	-0.033	0	-0.0195	-54.1
-0.003	-0.0383	0.003	-0.0008	-54.3
-0.0015	-0.024	-0.0008	0.0157	-54.5
-0.0023	-0.0008	-0.0015	0.0112	-54.6
-0.003	-0.0278	0	0.0082	-54.8
-0.0053	-0.0511	0.0067	0.0225	-54.9
-0.003	-0.0233	0.009	0.0307	-55.1
0	-0.0046	0.0105	0.036	-55.3
-0.0008	0.03	0.0097	0.0337	-55.4
-0.0015	0.0562	0.0067	0.0202	-55.6
-0.003	0.0607	0.009	0.0052	-55.8
-0.0046	0.0367	0.0052	-0.0008	-56
-0.0015	-0.0135	0.0067	0.0045	-56.2
-0.003	-0.0368	0.0045	0.012	-56.3
-0.0015	-0.0278	-0.0023	0.0157	-56.5
-0.0008	-0.015	0.0007	0.0157	-56.7
-0.0023	-0.03	-0.0008	0.012	-56.9
0.0007	-0.0293	0.0007	0.0045	-57.1
-0.003	-0.039	0.0007	-0.0091	-57.2
-0.003	-0.0893	0.0007	-0.0353	-57.4
-0.0023	-0.1365	0	-0.0533	-57.6
-0.003	-0.1373	-0.0053	-0.054	-57.8
0.0037	-0.0923	-0.0083	-0.0383	-58
0.0037	-0.027	-0.0075	-0.0203	-58.2
-0.0008	0.054	-0.0068	-0.0105	-58.4
-0.0015	0.1057	-0.0046	0.0067	-58.5
-0.0038	0.0937	0	0.0277	-58.7
-0.0015	0.057	0.0112	0.0457	-58.9
-0.0053	0.036	0.0232	0.042	-59.1
-0.0053	-0.0248	0.0217	0.0277	-59.3
-0.0008	-0.0788	0.0157	0.0195	-59.5
0.0037	-0.0361	0.0105	0.0082	-59.6
0.0105	0.024	0	0.018	-59.9
0.0105	0.0952	-0.0053	0.0195	-60
0.0075	0.123	-0.0128	0.0045	-60.3
0.0037	0.0615	-0.0165	0.0015	-60.4
0.0015	0.036	-0.0098	-0.0015	-60.7
0.0015	0.027	-0.0068	-0.0083	-60.8
-0.0015	0.006	0.0007	-0.021	-61.1
-0.003	0.0045	0.0045	-0.027	-61.2
-0.0053	0.0135	0.009	-0.027	-61.5
-0.0068	-0.0008	0.0097	-0.033	-61.7
-0.0068	-0.0623	0.009	-0.027	-61.8
-0.0053	-0.096	0.0082	-0.0158	-62.1
-0.0075	-0.0743	0.0045	-0.0053	-62.2
-0.0015	-0.0263	0.0045	0.009	-62.5
0.0015	0.054	-0.0038	0.021	-62.6
-0.0008	0.15	-0.0053	0.0397	-62.9
0.0037	0.162	-0.0068	0.042	-63
-0.0023	0.0862	-0.0068	0.0397	-63.3
-0.0008	0.0255	-0.0015	0.048	-63.5
0.0015	-0.0308	-0.0015	0.0405	-63.6
0.0007	-0.0885	0.0037	0.0397	-63.9
0.0075	-0.0315	0.006	0.0405	-64
0.0015	0.0412	0.0097	0.0247	-64.2
0.0045	0.039	0.0105	0.0135	-64.4
0.0007	0.0802	0.009	-0.0068	-64.6
-0.0038	0.0675	0.0105	-0.0495	-64.8
-0.0038	0.0015	0.0067	-0.0848	-65
-0.0083	-0.0668	0.003	-0.1006	-65.2
-0.003	-0.1253	-0.0015	-0.0983	-65.4
-0.0046	-0.111	-0.0046	-0.0706	-65.6
-0.0008	-0.0825	-0.0046	-0.033	-65.8
-0.0023	-0.039	-0.0015	-0.0091	-66
-0.003	-0.0158	0.0045	0.006	-66.2
0.0015	-0.0173	0.0022	0.009	-66.4
-0.003	-0.0218	0.0015	0.0105	-66.6
0.0007	-0.0181	0.0007	0.018	-66.8
-0.0015	0.006	0.0022	0.0217	-67
-0.0008	0.0195	0.0067	0.0217	-67.2
0.0015	0.0285	0.0067	0.015	-67.4
-0.0008	-0.0015	0.0082	0.0127	-67.5
0.003	0.0045	0	0.0172	-67.7
0.0007	0.0705	-0.0046	0.0262	-68
-0.0015	0.0727	-0.0046	0.0427	-68.1
-0.003	0.0202	-0.0008	0.0562	-68.3
-0.003	-0.021	0.0075	0.0502	-68.5
-0.0046	-0.0158	0.0037	0.0232	-68.7
-0.0053	0.0165	0.0022	-0.0091	-68.9
-0.0068	-0.0278	-0.0023	-0.024	-69.1
-0.0053	-0.1028	-0.0068	-0.0188	-69.3
0.0015	-0.0915	-0.0053	-0.0068	-69.4
0.0015	-0.0653	-0.0046	0.003	-69.6
0.0067	-0.0353	0.0015	0.0075	-69.8
0.0105	-0.0008	0.0067	0.0067	-70
0.012	0.0442	0.0097	0.003	-70.2
0.0112	0.1057	0.0097	-0.0135	-70.4
0.003	0.0967	0.006	-0.0518	-70.6
0.0007	0.0045	0.0037	-0.0593	-70.8
0.0007	-0.0871	-0.0015	-0.0278	-71
-0.0015	-0.0743	-0.0023	-0.0008	-71.2
0.0037	-0.0263	0.0015	0.0195	-71.3
0.0015	0.0202	0.003	0.0142	-71.5
0.0022	0.0592	0.0052	0.0007	-71.7
0.0015	0.0442	0.0067	-0.0128	-71.9
-0.0015	-0.0158	0.0082	-0.0248	-72
0.0007	-0.0548	0.0097	-0.0158	-72.2
-0.0008	-0.0195	0.0105	-0.0091	-72.4
0	0.0082	0.0082	-0.0188	-72.6
-0.0046	0.0105	-0.0015	-0.0375	-72.8
-0.012	-0.0248	-0.0053	-0.0623	-73
-0.0128	-0.0623	-0.0083	-0.0608	-73.2
-0.0143	-0.057	-0.0068	-0.0353	-73.4
-0.0135	-0.0706	-0.0015	-0.0015	-73.5
-0.0091	-0.0495	-0.0023	0.039	-73.7
-0.006	0.042	0.0022	0.063	-73.9
-0.0068	0.0817	0.0007	0.0645	-74.1
-0.0038	0.0255	0	0.0667	-74.3
-0.0023	0.0067	-0.0008	0.0682	-74.4
0.0007	0.0472	0.0007	0.0532	-74.6
0.0015	0.0637	0	0.0187	-74.8
0.0007	0.0352	-0.0046	-0.0105	-75
0.0067	0.0292	-0.0008	-0.0233	-75.2
0.0022	0.0367	-0.003	-0.039	-75.3
-0.0015	0.0405	0.0015	-0.0248	-75.5
-0.0008	0.084	0.0075	0.0007	-75.7
-0.0038	0.0787	0.0082	0.009	-75.8
-0.0008	0.0247	0.012	0.0315	-76
-0.0038	-0.0068	0.0105	0.051	-76.2
-0.0008	-0.0293	0.0105	0.0495	-76.4
0	-0.0428	0.0082	0.036	-76.5
-0.0023	-0.0323	0.006	0.0142	-76.7
0.0007	-0.0158	0.0052	-0.015	-76.9
0.0007	-0.0068	0.0007	-0.0443	-77.1
0.0015	-0.0256	-0.0015	-0.0668	-77.3
-0.0008	-0.039	0	-0.0675	-77.4
-0.0023	-0.0263	0.0007	-0.0428	-77.6
-0.003	-0.0248	-0.0015	-0.0293	-77.8
-0.006	-0.021	-0.003	-0.0285	-77.9
-0.0053	-0.0368	-0.0038	-0.0165	-78.1
-0.0046	-0.057	-0.003	-0.0046	-78.3
-0.0008	-0.033	0.0007	0.0217	-78.5
0.0022	0.0322	0.0007	0.0405	-78.6
0.0015	0.078	-0.0046	0.0345	-78.8
-0.0008	0.0345	-0.0105	0.024	-79
-0.0008	0.0217	-0.012	-0.0008	-79.1
0	0.0397	-0.0068	-0.012	-79.3
0.0015	0.0322	-0.0015	0	-79.5
0.0045	0.0157	-0.0015	0.0187	-79.6
0.0045	0.0082	-0.0015	0.0502	-79.8
0.003	0.0765	-0.0008	0.0645	-80
-0.0015	0.0997	0.0022	0.0435	-80.1
-0.0068	0.021	0.0067	0.0045	-80.3
-0.0068	-0.0675	0.0097	-0.0128	-80.4
-0.012	-0.0765	0.0135	-0.0165	-80.6
-0.0091	-0.0818	0.0127	-0.0361	-80.8
-0.0075	-0.0953	0.0105	-0.039	-80.9
-0.006	-0.0098	0.0082	-0.0503	-81.1
-0.006	0.0712	0.0007	-0.0668	-81.3
-0.0105	0.0765	0.003	-0.0578	-81.4
-0.0023	0.018	0.0052	-0.0458	-81.6
0	-0.0181	0.0082	-0.027	-81.7
0	-0.0083	0.0067	-0.0091	-81.9
0.0045	-0.054	0.003	-0.0008	-82
0.0067	-0.1268	0.0052	0.0247	-82.2
0.0105	-0.1253	0.0052	0.0495	-82.4
0.0127	-0.0758	0.0082	0.063	-82.5
0.0142	-0.0195	0.0067	0.0637	-82.6
0.0082	0.0352	0.0037	0.057	-82.8
0.0015	0.0892	0.0082	0.087	-82.9
-0.0008	0.1312	0.009	0.1012	-83.1
-0.0046	0.0952	0.0082	0.0555	-83.2
-0.0068	0.036	0.003	-0.0165	-83.4
-0.0083	-0.0548	-0.0068	-0.1006	-83.5
-0.0053	-0.1058	-0.012	-0.135	-83.7
-0.0046	-0.0428	-0.0165	-0.1125	-83.8
-0.0038	0.0052	-0.0128	-0.093	-84
0.0007	0.0277	-0.0075	-0.0525	-84.1
0.0045	-0.0083	0.003	-0.0248	-84.2
0.0082	-0.0465	0.0105	-0.0083	-84.4
0.0082	-0.0105	0.0082	0.039	-84.6
0.006	0	0.012	0.0577	-84.7
0.0045	-0.012	0.0105	0.0667	-84.8
0.003	0.0045	0.0082	0.069	-85
-0.0008	0.0615	0.003	0.0457	-85.1
-0.0046	0.099	-0.003	0.0067	-85.3
-0.006	0.0405	-0.006	-0.039	-85.4
-0.0098	-0.0375	-0.0083	-0.0533	-85.5
-0.0083	-0.0413	-0.0015	-0.039	-85.7
-0.0091	-0.0233	0	-0.0203	-85.8
-0.0091	0.0075	0	-0.0008	-86
-0.0053	0.069	0.0007	0.0015	-86.1
-0.0053	0.075	-0.0008	0.0015	-86.2
0.0015	0.0592	0.003	0.0067	-86.4
0.0037	0.0727	0.0007	-0.0015	-86.5
0.0022	0.0315	0	0.0007	-86.7
0.003	-0.0293	0.003	0.018	-86.8
-0.0038	-0.048	-0.0008	0.0082	-86.9
-0.0015	-0.0548	0	-0.0046	-87.1
-0.0046	-0.0645	-0.0008	-0.0053	-87.2
-0.0053	-0.0788	-0.0023	0.0067	-87.4
0.0007	-0.0413	-0.003	0.027	-87.5
0.0007	0.048	-0.0023	0.039	-87.6
0.006	0.108	-0.0046	0.039	-87.8
0.003	0.1102	-0.012	0.0195	-87.9
0.0045	0.0255	-0.0105	0.0217	-88
0.0105	-0.12	-0.006	0.033	-88.2
0.0075	-0.2318	-0.0046	0.0352	-88.3
0.0097	-0.222	0.0022	0.0345	-88.4
0.0052	-0.0953	0.006	0.012	-88.6
0.0015	0.1125	0.009	-0.0173	-88.7
-0.0046	0.3202	0.0142	-0.0638	-88.8
-0.0091	0.2722	0.0157	-0.0713	-89
-0.0068	0.0937	0.0172	-0.0091	-89.1
-0.0068	0.0285	0.0165	0.0382	-89.2
-0.006	-0.0368	0.0127	0.0247	-89.4
-0.0083	-0.126	0.0082	0.0082	-89.5
-0.0015	-0.1613	0.0045	0.027	-89.6
0.0067	-0.0788	0.0082	0.0165	-89.8
0.0097	0.0007	0.012	-0.0135	-89.9
0.009	-0.0008	0.0112	-0.0563	-90.1
0	0.0195	0.0082	-0.0871	-90.2
-0.0038	0.0367	0.0045	-0.09	-90.3
-0.0046	0.009	-0.0015	-0.0975	-90.5
-0.0083	-0.0293	-0.0083	-0.0653	-90.6
-0.0113	-0.0323	-0.0091	-0.0405	-90.7
-0.0128	-0.0308	-0.012	-0.0181	-90.8
-0.0105	-0.0308	-0.0098	0.0127	-90.9
-0.0083	0.0007	-0.0083	0.0165	-91.1
-0.0046	-0.0075	-0.0105	0.0405	-91.2
0.0015	-0.0135	-0.0083	0.051	-91.4
0.0052	0.0022	-0.0053	0.0472	-91.5
0.0067	-0.0008	-0.0008	0.0532	-91.6
0.0067	-0.0405	0.0052	0.0547	-91.8
0.0105	-0.1028	0.012	0.0592	-91.9
0.0105	-0.0683	0.0142	0.0495	-92
0.0037	0.0367	0.0142	0.0337	-92.1
0.0045	0.0742	0.0142	-0.0015	-92.3
0.0037	0.054	0.0097	-0.0443	-92.4
0.0007	0.0405	0.0045	-0.0465	-92.5
0.003	0.0322	-0.0015	-0.0083	-92.7
0	0.0675	-0.0053	0.0217	-92.8
-0.0008	0.0712	-0.006	0.0255	-92.9
-0.003	-0.0323	-0.0053	0.0562	-93
0	-0.0923	-0.0038	0.084	-93.2
0.0015	-0.0675	0.0015	0.081	-93.3
-0.0008	0.0292	0.0082	0.015	-93.4
0.0022	0.12	0.012	-0.0728	-93.5
-0.0053	0.1162	0.0067	-0.1185	-93.6
-0.0053	0.0412	-0.0023	-0.1215	-93.7
-0.0046	-0.0893	-0.0046	-0.0871	-93.9
-0.0068	-0.1238	-0.0068	-0.0698	-94
-0.0046	-0.108	-0.0053	-0.0436	-94.1
-0.006	-0.1013	-0.0113	-0.0218	-94.2
-0.0046	-0.0878	-0.0128	-0.0023	-94.4
-0.0015	-0.075	-0.0105	0.021	-94.5
0.0015	0.009	-0.0173	0.0412	-94.6
0.0037	0.1102	-0.0091	0.0862	-94.7
0.003	0.2212	-0.003	0.0855	-94.9
0.003	0.2407	0.0105	0.042	-95
-0.0008	0.1192	0.0255	0.0195	-95.1
-0.0008	-0.0165	0.0345	0.0352	-95.2
0.0015	-0.084	0.0405	0.0367	-95.3
0.0015	-0.1658	0.036	0.0315	-95.4
0.0052	-0.207	0.0292	0.0315	-95.5
0.0045	-0.0706	0.0142	-0.0165	-95.7
-0.0008	-0.012	-0.003	-0.0375	-95.8
-0.0038	0.0787	-0.0165	-0.045	-95.9
-0.0053	0.2145	-0.0218	-0.0788	-96
-0.0105	0.1147	-0.0195	-0.0653	-96.1
-0.0075	0.0337	-0.0143	-0.0218	-96.3
-0.006	0.0495	-0.0046	-0.0083	-96.4
-0.0053	0.0157	0.0015	0.0045	-96.5
0	0.0052	0.0067	0.0105	-96.6
-0.0015	-0.0068	0.0142	0.0045	-96.7
0.003	-0.0405	0.0165	-0.0015	-96.8
0.0022	-0.0368	0.0172	-0.0181	-97
0.003	-0.054	0.012	-0.0405	-97.1
0.0037	-0.126	0.009	-0.0525	-97.2
0.0015	-0.1523	0.0075	-0.0143	-97.3
0.0037	-0.0675	0.0007	0.006	-97.5
-0.0023	0.0292	-0.003	0.0157	-97.5
-0.0038	0.078	-0.006	0.0307	-97.7
-0.0046	0.0727	-0.0105	0.0217	-97.7
-0.0075	-0.021	-0.0128	0.018	-97.8
-0.0053	-0.0825	-0.012	0.0157	-98
-0.0053	-0.0968	-0.012	0.0112	-98.1
-0.0046	-0.0735	-0.0188	0.0195	-98.1
-0.0008	0.0142	-0.0135	0.0135	-98.3
0.0007	0.0795	-0.0083	-0.0068	-98.4
-0.0015	0.1245	-0.0075	0.0015	-98.5
0.0007	0.1365	0.0007	-0.0105	-98.6
0.0015	0.072	0.0052	-0.0165	-98.7
0.003	-0.0225	0.012	-0.0098	-98.8
0.006	-0.0578	0.015	-0.0015	-98.9
0.003	-0.09	0.012	0.0225	-99
-0.0015	-0.06	0.0142	0.0135	-99.1
-0.0053	0.0112	0.0142	0.0067	-99.2
-0.003	0.0067	0.0135	0.0255	-99.3
-0.003	0.0352	0.0105	0.0352	-99.5
-0.0008	0.0405	0.0082	0.0645	-99.6
-0.003	0.0742	0.006	0.1087	-99.6
-0.006	0.1762	0.0037	0.1192	-99.8
-0.0053	0.1545	0.0022	0.0645	-99.9
-0.006	0.0195	-0.003	-0.0368	-99.9
0	-0.1028	-0.0015	-0.1328	-100
-0.003	-0.1703	-0.0038	-0.1868	-100.1
-0.0038	-0.2295	-0.0053	-0.1448	-100.3
-0.0008	-0.1808	-0.0015	-0.0825	-100.4
-0.0015	-0.0346	-0.0053	-0.0233	-100.4
0.006	0.0232	-0.0075	0.0465	-100.6
0.0052	0.075	-0.0091	0.0495	-100.7
0.0075	0.0847	-0.0091	0.0502	-100.8
0.0075	-0.0413	-0.0068	0.0442	-100.8
0.0022	-0.075	-0.0008	0.012	-101
0.0045	0.027	0.0075	-0.0181	-101.1
-0.0023	0.0787	0.0127	-0.039	-101.2
-0.0046	0.1125	0.0165	-0.0233	-101.3
-0.0046	0.1215	0.018	-0.0233	-101.3
-0.0083	0.0585	0.0127	-0.0165	-101.5
-0.0083	-0.0083	0.0045	-0.0046	-101.6
-0.0053	-0.0256	-0.0046	0.006	-101.7
-0.0015	0.0142	-0.0105	0.033	-101.7
0.0007	0.042	-0.0105	0.0517	-101.8
0	0.0645	-0.0083	0.0397	-101.9
0.0022	-0.0023	-0.0053	0.0015	-102.1
0.0007	-0.123	-0.003	-0.015	-102.2
0.0015	-0.2153	0.0037	-0.0263	-102.2
0.006	-0.2423	0.0127	0.0172	-102.3
0.0052	-0.0863	0.0165	0.0787	-102.4
0.009	0.0885	0.0195	0.087	-102.5
0.0045	0.2025	0.0135	0.0667	-102.6
0.0007	0.192	0.0082	0.0135	-102.7
-0.0038	0.0307	0.0045	0.0007	-102.8
-0.0068	-0.0915	0.003	0.0052	-102.9
-0.0015	-0.1328	0.003	0.0067	-103
-0.0083	-0.0803	0	0.0015	-103.1
-0.0053	0.0172	-0.0023	-0.0361	-103.2
-0.0046	0.0975	-0.003	-0.0856	-103.3
-0.0068	0.1155	-0.0068	-0.1396	-103.4
-0.0008	0.0127	-0.0053	-0.1343	-103.5
-0.0023	-0.0758	-0.003	-0.1013	-103.5
0.0007	-0.0495	-0.0068	-0.0623	-103.6
-0.0023	-0.0105	-0.0053	-0.012	-103.7
-0.0008	0.0532	-0.0083	0.0082	-103.8
0.0022	0.0915	-0.006	0.0307	-103.9
-0.0046	-0.0105	-0.006	0.0345	-104
-0.0015	-0.1313	-0.006	0.015	-104.1
-0.0053	-0.189	0.0015	0.0322	-104.2
0.0007	-0.1538	0.003	0.048	-104.3
0.0067	0.0202	0.0045	0.045	-104.4
0.0045	0.1672	0.003	0.0457	-104.5
0.0082	0.1627	0.0052	0.0277	-104.6
-0.0008	0.0232	0.0142	0.0382	-104.7
0.003	-0.1703	0.0232	0.0817	-104.8
0.0015	-0.1635	0.0292	0.1057	-104.9
-0.0053	0.012	0.0277	0.0967	-104.9
-0.003	0.1012	0.0217	0.0502	-105
-0.0113	0.1957	0.0105	0.0082	-105.1
-0.0046	0.222	0.0015	-0.0398	-105.2
-0.0053	0.135	-0.0023	-0.0668	-105.3
-0.0023	0.1222	-0.0075	-0.0578	-105.4
0.0045	0.105	-0.0128	-0.0863	-105.5
-0.003	0.045	-0.0181	-0.0825	-105.6
0.0022	-0.0135	-0.0218	-0.0315	-105.7
-0.0023	-0.0563	-0.0181	-0.015	-105.8
-0.003	-0.1485	-0.0105	-0.0143	-105.8
0.0015	-0.237	0	0.0105	-105.9
0	-0.1658	0.012	0.0675	-106
0.0067	-0.0195	0.0135	0.087	-106.1
0.0007	0.105	0.006	0.0075	-106.2
-0.0023	0.129	-0.0053	-0.0713	-106.3
-0.0075	0.0277	-0.0128	-0.1215	-106.4
-0.0143	-0.1185	-0.0143	-0.1268	-106.5
-0.012	-0.1583	-0.0158	-0.0885	-106.6
-0.0128	-0.1163	-0.0091	-0.0788	-106.7
-0.0053	-0.0818	0.0007	-0.0195	-106.8
0	-0.0353	0.0082	0.069	-106.9
0.0007	-0.0975	0.015	0.1342	-107
0.0067	-0.0368	0.018	0.1327	-107.1
0.0052	0.105	0.024	0.1102	-107.2
0.0082	0.12	0.024	0.1177	-107.2
0.009	0.198	0.0225	0.0367	-107.3
0.0022	0.1605	0.0217	-0.0398	-107.4
0.0015	0.0367	0.0142	-0.078	-107.5
-0.0075	-0.027	-0.0008	-0.1043	-107.6
-0.012	-0.0338	-0.0143	-0.0856	-107.7
-0.0091	-0.0008	-0.0173	-0.0818	-107.8
-0.0075	0.0015	-0.0233	-0.063	-107.9
-0.0008	0.0375	-0.024	-0.0181	-108
0.0015	0.0675	-0.015	0.0382	-108.1
0.0067	0.0742	-0.0015	0.0787	-108.2
0.0082	0.0277	0.0127	0.093	-108.3
0.0105	-0.0075	0.0195	0.0915	-108.4
0.012	0.018	0.0195	0.0585	-108.5
0.0067	-0.042	0.0195	0.0225	-108.6
0.0045	-0.0323	0.0127	-0.0091	-108.7
-0.0046	0.0367	0.0075	-0.033	-108.8
-0.006	-0.0555	0.0015	-0.0548	-108.9
-0.0083	-0.219	0.0015	-0.075	-108.9
-0.0105	-0.309	0.003	-0.0428	-109.1
-0.006	-0.237	0.0007	0.0105	-109.1
-0.0075	-0.0405	-0.0068	0.0315	-109.2
-0.0053	0.1357	-0.0113	0.018	-109.3
-0.0053	0.0915	-0.0113	-0.0008	-109.4
-0.0023	-0.0188	-0.012	0.0345	-109.5
0.0037	0.0727	-0.006	0.0652	-109.6
0.0007	0.1372	0.003	0.066	-109.7
0.0037	0.144	0.009	0.0517	-109.8
0.003	0.1732	0.0157	0.0217	-109.8
0.0022	0.057	0.0165	0.0007	-109.9
0.006	-0.0346	0.0142	-0.0323	-110
0.0045	-0.0225	0.0082	-0.0706	-110.1
0.006	-0.075	-0.0015	-0.075	-110.2
0.0015	-0.078	-0.0083	-0.033	-110.3
-0.003	-0.0023	-0.0165	0.0007	-110.4
-0.0105	0.006	-0.015	-0.0353	-110.5
-0.0128	0.0172	-0.0098	-0.0706	-110.6
-0.0068	0.0442	-0.0053	-0.0593	-110.7
-0.0091	-0.0495	0.003	-0.0548	-110.7
-0.006	-0.1373	0.0052	-0.0053	-110.9
-0.0015	-0.0278	0.0105	0.039	-110.9
0.0007	0.165	0.0082	0.0322	-111
-0.0008	0.2295	0.0045	0.0075	-111.1
-0.003	0.204	0.003	-0.039	-111.2
-0.0008	0.0382	-0.0008	-0.0608	-111.3
0.0015	-0.108	0.003	-0.0638	-111.3
0.0105	-0.0818	-0.0015	-0.021	-111.4
0.0157	-0.1148	-0.0008	0.0592	-111.5
0.0172	-0.1238	0.0037	0.12	-111.6
0.0135	-0.2048	0.0007	0.135	-111.7
0.0052	-0.297	0.0015	0.1162	-111.8
-0.0008	-0.1403	-0.0008	0.1005	-111.9
-0.006	0.1755	-0.0015	0.0645	-112
-0.012	0.444	-0.003	0.0277	-112.1
-0.0143	0.3705	-0.0068	-0.0091	-112.1
-0.0143	0.0735	-0.0075	-0.0375	-112.2
-0.0105	-0.2078	-0.0068	-0.0353	-112.3
-0.0046	-0.2708	0.0022	0.009	-112.4
-0.0023	-0.0765	0.0105	0.0615	-112.5
0.0037	0.03	0.0195	0.0045	-112.6
0.006	0.057	0.027	-0.0998	-112.6
0.0082	0.0667	0.024	-0.1335	-112.7
0.0082	-0.0683	0.0247	-0.1381	-112.8
0.006	-0.261	0.018	-0.0938	-112.9
0.0052	-0.2483	0.0142	-0.0465	-113
-0.0038	-0.048	0.0142	-0.0203	-113
-0.0091	0.0607	0.0067	-0.0165	-113.1
-0.0128	0.15	0.0045	-0.0458	-113.2
-0.0105	0.0652	-0.0008	-0.015	-113.3
-0.0053	-0.1253	-0.003	0.0292	-113.4
-0.0023	-0.0083	-0.003	0.0532	-113.4
0.0015	0.189	-0.0083	0.069	-113.5
-0.0008	0.261	-0.0105	0.0697	-113.6
0.0007	0.1822	-0.0143	0.0382	-113.7
0.0007	-0.0293	-0.0181	-0.0285	-113.8
0.003	-0.2498	-0.0165	-0.0495	-113.9
0.0082	-0.4133	-0.0098	-0.0098	-113.9
0.0082	-0.3068	-0.0015	0.0517	-114
0.0067	-0.0436	0.0067	0.0825	-114.1
0.0022	-0.0285	0.0082	0.141	-114.3
0.0045	0.0135	0.003	0.1507	-114.3
-0.0015	0.354	-0.003	0.0532	-114.4
-0.0068	0.444	-0.0143	-0.027	-114.5
-0.0053	0.3097	-0.0338	-0.1305	-114.5
-0.0083	0.3187	-0.0473	-0.1215	-114.6
-0.003	0.1297	-0.0458	-0.03	-114.7
0.0022	-0.0518	-0.0308	-0.0046	-114.8
0.0037	-0.0263	-0.0091	0.0277	-114.9
0.0097	-0.1118	0.0165	0.018	-115
0.0112	-0.1478	0.0412	0.009	-115.1
0.0105	-0.135	0.063	0.0105	-115.1
0.0052	-0.0615	0.0682	-0.0225	-115.2
-0.0075	0.0337	0.0592	-0.0405	-115.3
-0.0173	0.054	0.0442	-0.0465	-115.4
-0.0218	0.1575	0.027	-0.0368	-115.5
-0.0218	0.1395	0.0195	-0.0203	-115.6
-0.015	0.0645	0.0105	-0.0203	-115.6
-0.0091	0.027	0.0052	-0.0098	-115.7
-0.0053	-0.0053	0.0022	-0.0015	-115.8
-0.0015	-0.0698	-0.0098	-0.0135	-115.9
-0.0015	-0.2588	-0.0195	-0.027	-116
0.0015	-0.3668	-0.024	-0.027	-116.1
0.0037	-0.3518	-0.027	-0.0315	-116.1
0.0045	-0.2273	-0.024	-0.039	-116.2
0.0052	-0.0046	-0.0181	-0.015	-116.3
0.0037	0.2062	-0.0143	0.039	-116.4
0.0015	0.252	-0.0135	0.0667	-116.5
0.0015	0.0652	-0.0105	0.0067	-116.5
0.006	-0.1575	-0.0068	-0.0315	-116.6
0.0105	-0.2573	0	0.006	-116.7
0.0127	-0.3135	0.0037	0.0157	-116.8
0.0075	-0.3128	-0.0008	0.048	-116.9
0.0015	-0.1575	0.0037	0.1102	-116.9
0.0015	-0.0038	-0.0015	0.1387	-117
-0.003	0.141	-0.0038	0.0802	-117.1
-0.003	0.2595	-0.0083	-0.0075	-117.2
-0.0091	0.2482	-0.015	0.009	-117.3
-0.0113	0.2872	-0.0083	-0.0233	-117.3
-0.0105	0.4147	-0.0023	-0.084	-117.4
-0.0188	0.4965	0.0112	-0.0765	-117.5
-0.0128	0.4252	0.0285	-0.075	-117.6
-0.0098	0.2002	0.042	-0.0308	-117.6
-0.0053	-0.0015	0.0457	0.0015	-117.7
0.0007	-0.0765	0.042	0.0555	-117.8
0.0015	-0.0083	0.0367	0.0705	-117.9
0.0075	0.0015	0.0217	0.0082	-117.9
0.0052	-0.15	0.0075	-0.0218	-118
0.0045	-0.3045	-0.0015	-0.06	-118.1
0.003	-0.3885	-0.0046	-0.0405	-118.1
0.0007	-0.2385	-0.0053	-0.0181	-118.2
0.0015	-0.0675	-0.0075	-0.0203	-118.3
0	0.0045	-0.0038	0.0195	-118.4
0.0022	0.0787	0.0022	0.042	-118.4
0.0015	0.057	0.0142	0.0607	-118.5
0.003	-0.003	0.0202	0.0465	-118.6
0.0045	-0.1688	0.015	-0.0353	-118.7
0.0007	-0.3593	0.0052	-0.1058	-118.7
0.003	-0.4575	-0.0083	-0.0983	-118.8
0.0007	-0.3068	-0.024	-0.0518	-118.8
-0.003	0.0427	-0.0405	-0.0023	-119
-0.0068	0.3232	-0.0428	0.003	-119
-0.012	0.4042	-0.0323	0.0105	-119.1
-0.0068	0.2647	-0.0113	0.078	-119.2
-0.0053	0.3352	0.0052	0.1005	-119.3
-0.0053	0.3952	0.0052	0.09	-119.3
-0.0015	0.1297	0.009	0.0705	-119.4
0.0007	-0.1245	0.0105	0.042	-119.5
0.009	-0.3406	0.0105	0.0127	-119.5
0.0105	-0.5648	0.0112	-0.03	-119.6
0.012	-0.6615	0.012	-0.0315	-119.7
0.0105	-0.4238	0.012	0.0105	-119.7
0.0015	-0.0608	0.0097	0.03	-119.8
-0.0046	0.3652	0.0127	-0.0263	-119.9
-0.0128	0.7845	0.0067	-0.0856	-120
-0.012	0.711	-0.0023	-0.0953	-120.1
-0.0113	0.4065	-0.0068	-0.1028	-120.1
-0.012	0.1245	-0.0091	-0.0998	-120.2
-0.0075	-0.1373	-0.0075	-0.0968	-120.3
-0.0046	-0.1223	-0.0053	-0.06	-120.3
0.0015	0.0015	-0.0008	-0.0135	-120.5
0.003	0.0337	0.003	0.0112	-120.5
0.0022	0.0547	0.003	0.0607	-120.6
0.0045	0.0135	0.0045	0.0727	-120.6
0.0022	-0.1148	0.003	0.0667	-120.7
0.0022	-0.18	-0.0008	0.0727	-120.8
0.0015	-0.2033	-0.0023	0.0682	-120.8
0.0007	-0.1426	-0.0015	0.0525	-120.9
0.0045	-0.042	0.0037	0.0382	-121
0.0015	0.078	0.0067	0.063	-121.1
0.0037	0.1822	0.0045	0.0532	-121.1
0.0015	0.0757	0.0007	-0.0278	-121.2
-0.006	0.0052	-0.0075	-0.0608	-121.3
-0.0098	-0.1103	-0.0158	-0.0473	-121.3
-0.0113	-0.2888	-0.0203	-0.0375	-121.4
-0.0068	-0.2183	-0.0233	0.0195	-121.5
-0.0015	-0.0375	-0.0165	0.0472	-121.5
0.0045	0.144	-0.0038	0.069	-121.6
0.0067	0.1905	0.015	0.1192	-121.7
0.009	0.0075	0.0292	0.0855	-121.7
0.0105	-0.1958	0.0352	0.0172	-121.9
0.0097	-0.1988	0.0405	-0.0256	-121.9
0.012	-0.012	0.0405	-0.0608	-122
0.0052	0.0495	0.033	-0.0525	-122
0.0052	-0.057	0.03	-0.0563	-122.1
0.0105	-0.3473	0.027	-0.0721	-122.2
0.0082	-0.5618	0.018	0.0105	-122.2
0.0067	-0.2041	0.0082	-0.0068	-122.3
-0.003	0.2842	-0.0068	-0.1028	-122.4
-0.015	0.645	-0.0203	-0.1463	-122.4
-0.024	0.5572	-0.0308	-0.1515	-122.5
-0.027	0.0322	-0.0353	-0.0555	-122.6
-0.0203	-0.0593	-0.0323	-0.0053	-122.7
-0.0158	-0.0503	-0.0233	0.0367	-122.7
-0.0083	0.0315	-0.0128	0.072	-122.8
-0.003	0.2715	-0.0038	0.0675	-122.9
0.0022	0.1365	0.0075	0.066	-122.9
0.0045	0.0517	0.0105	0.0465	-123
0.006	0.0472	0.0142	0.0097	-123.1
0.003	0.0315	0.0127	-0.0383	-123.1
0.0015	0.0592	0.003	-0.0046	-123.3
0.003	-0.078	-0.0023	0.0307	-123.3
0.0007	-0.1756	-0.0046	0.042	-123.3
0.006	-0.2085	-0.0046	0.09	-123.4
0.0067	-0.2063	-0.0113	0.0817	-123.4
0.0045	-0.1253	-0.0181	0.0015	-123.5
0.0052	-0.039	-0.0218	-0.0721	-123.6
0.0015	-0.0495	-0.0218	-0.1118	-123.6
0.0037	-0.0721	-0.0053	-0.0585	-123.7
0.0097	0.0405	0.0075	0.0472	-123.8
0.0037	0.3	0.0172	0.1012	-123.8
-0.0008	0.306	0.0255	0.084	-123.8
-0.0046	0.171	0.03	-0.033	-123.9
-0.012	0.252	0.0307	-0.0653	-124
-0.0098	-0.0405	0.0262	-0.0623	-124
-0.0068	-0.3015	0.0217	-0.0825	-124.1
-0.0068	-0.372	0.0127	-0.0308	-124.2
-0.0053	-0.3413	0.0067	-0.0105	-124.2
-0.006	0.012	-0.0008	0.0232	-124.2
-0.0091	0.1492	-0.0015	0.0742	-124.3
-0.0091	0.144	-0.0046	0.0862	-124.4
-0.0068	0.0217	-0.0105	0.0345	-124.4
0.0007	-0.15	-0.0143	0.0202	-124.5
0.0045	-0.2761	-0.0195	0.0315	-124.5
0.0082	-0.3496	-0.0233	-0.0323	-124.6
0.0052	-0.1035	-0.0233	-0.0473	-124.7
0.0015	0.1005	-0.0068	-0.003	-124.7
0.0045	0.1785	0.006	0.024	-124.7
-0.0008	0.363	0.0157	0.0502	-124.8
-0.0023	0.3997	0.03	0.066	-124.8
-0.0023	0.3645	0.0405	0.0675	-124.9
-0.0046	0.405	0.0495	0.0577	-124.9
0	0.3142	0.048	0.018	-125
-0.003	0.0877	0.0352	-0.0691	-125
-0.0015	-0.1441	0.0127	-0.1808	-125.1
-0.0015	-0.252	-0.0075	-0.189	-125.1
-0.0046	-0.2318	-0.0278	-0.1815	-125.2
-0.0015	-0.1875	-0.0383	-0.129	-125.2
-0.003	-0.1665	-0.0353	-0.0308	-125.3
0.0037	-0.1711	-0.0308	0.0315	-125.3
0.0052	-0.129	-0.0181	0.1477	-125.4
0.0052	0.0187	-0.0091	0.1725	-125.4
0.0067	0.105	-0.0038	0.1072	-125.5
-0.0008	-0.0458	-0.003	0.054	-125.5
-0.0015	-0.3713	-0.0008	0.0075	-125.5
-0.0015	-0.5445	0	0.042	-125.6
-0.0008	-0.207	-0.0053	0.072	-125.6
-0.0068	0.312	-0.0053	0.018	-125.6
-0.0091	0.5445	-0.0105	-0.0728	-125.6
-0.012	0.3097	-0.0075	-0.132	-125.7
-0.0128	-0.0248	0.0015	-0.0871	-125.7
-0.0053	-0.0165	0.0097	-0.0608	-125.8
-0.0105	-0.0975	0.0135	-0.0315	-125.8
-0.0083	-0.291	0.0007	-0.0046	-125.8
-0.0015	-0.2761	-0.0053	-0.03	-125.9
-0.0008	-0.1343	-0.0143	-0.0165	-125.9
0.0052	0.0487	-0.015	0.0135	-126
0.0045	0.084	-0.012	0.1087	-126
0.0127	-0.1935	-0.0053	0.1665	-126
0.0202	-0.2903	0.0105	0.0952	-126
0.0172	0.063	0.0187	0.0367	-126.1
0.0142	0.2805	0.03	0.003	-126.1
0.0052	0.438	0.0345	-0.0871	-126.1
0.0015	0.5782	0.0322	-0.1118	-126.2
-0.0015	0.4267	0.03	-0.0278	-126.2
-0.0015	0.1612	0.0217	0.0525	-126.2
0.0015	-0.1538	0.0225	0.0622	-126.3
0.0007	-0.2648	0.0127	-0.0128	-126.3
0.0037	-0.1568	0.0007	-0.048	-126.3
-0.0015	0.06	-0.0053	-0.0436	-126.3
-0.0068	0.246	-0.012	-0.0503	-126.4
-0.006	0.0825	-0.0083	-0.0405	-126.4
-0.0053	-0.0871	-0.0091	-0.0053	-126.4
-0.0008	-0.1073	-0.0083	0.0442	-126.5
-0.0075	-0.093	-0.0105	0.0765	-126.5
-0.0083	-0.0353	-0.0143	0.0742	-126.5
-0.0091	-0.0038	-0.0135	-0.0143	-126.5
-0.0188	0.0457	-0.0195	-0.057	-126.5
-0.0181	0.0765	-0.0165	-0.057	-126.6
-0.0188	-0.0135	-0.0181	-0.1035	-126.6
-0.0143	-0.2415	-0.0285	-0.0878	-126.7
-0.0075	-0.2843	-0.039	-0.0278	-126.7
0	-0.0563	-0.0413	0.0367	-126.7
0.0127	0.1177	-0.0165	0.078	-126.7
0.0165	0.0517	0.0037	0.114	-126.7
0.0202	-0.2348	0.0322	0.1372	-126.7
0.0195	-0.2978	0.0532	0.0682	-126.7
0.0142	-0.1875	0.0585	-0.0188	-126.7
0.0142	-0.0068	0.063	-0.09	-126.7
0.0067	0.2085	0.0472	-0.12	-126.8
-0.0008	0.0225	0.0405	-0.0518	-126.8
-0.0046	-0.2085	0.0307	0.0007	-126.8
-0.0075	-0.1185	0.018	0.0487	-126.8
-0.0068	0.1237	0.0127	0.0802	-126.8
-0.003	0.3037	0.0015	0.051	-126.8
-0.0053	0.2175	-0.0008	0.0555	-126.9
-0.0053	-0.1006	-0.0128	0.009	-126.9
-0.0068	-0.213	-0.0113	-0.0053	-126.9
-0.0075	-0.039	-0.0008	0.0555	-126.9
-0.0015	0	0.0015	0.0442	-126.9
-0.0015	0.0105	0.0105	-0.0173	-126.9
-0.0015	0.0615	0.0052	-0.0495	-126.9
-0.0008	-0.039	-0.0046	-0.054	-126.9
-0.006	-0.0375	-0.0203	-0.1298	-126.9
-0.0091	0.0667	-0.0308	-0.1275	-126.9
-0.0105	0.186	-0.024	-0.057	-126.9
-0.0083	0.2857	-0.0188	-0.0105	-126.9
-0.0046	0.2857	-0.0015	0.0277	-126.9
-0.0008	0.216	0.0075	-0.012	-126.9
0.003	-0.1185	0.0127	-0.042	-126.9
0.009	-0.3338	0.0127	-0.0173	-126.9
0.0127	-0.1913	0.0037	0.0442	-126.9
0.0067	-0.003	-0.0046	0.078	-126.9
0.0022	0.144	-0.015	0.1327	-126.9
-0.0046	0.1725	-0.0203	0.1785	-126.9
-0.0098	0.1117	-0.024	0.0997	-127
-0.0091	0.1005	-0.0203	-0.0165	-127
-0.0105	0.093	-0.0188	-0.0706	-127
-0.0105	0.1147	-0.0203	-0.045	-127
-0.0105	0.1515	-0.0143	-0.0346	-127
-0.0053	0.0015	-0.0113	-0.0323	-127
0.0007	-0.1441	-0.0008	-0.0053	-127
0.0067	-0.2963	0.003	-0.0105	-127
0.0105	-0.4628	0.012	0.009	-127
0.009	-0.336	0.03	0.0607	-127
0.0082	-0.0383	0.0352	0.0045	-127
0.0082	0.1665	0.0352	-0.123	-127
0.009	0.1755	0.0292	-0.1478	-127
0.0067	0.0202	0.03	-0.0743	-127
0.0045	-0.1958	0.0247	0.024	-127
-0.0008	-0.2235	0.0157	0.054	-126.9
-0.0038	-0.0308	0.0112	0.0262	-126.9
-0.0046	0.189	0.003	0.033	-126.9
-0.0046	0.3825	0	0.0232	-126.9
-0.003	0.2452	-0.0015	0.048	-126.9
-0.0015	0.0345	-0.0008	0.039	-126.9
-0.0023	0.0307	-0.0091	-0.0218	-126.9
-0.0038	-0.0278	-0.0195	-0.048	-126.9
-0.0068	-0.0038	-0.024	-0.0833	-126.9
-0.0075	-0.0346	-0.0285	-0.0803	-126.9
-0.0091	-0.114	-0.0293	-0.0668	-126.9
-0.0053	-0.1403	-0.0383	-0.048	-126.9
0.0045	-0.267	-0.039	-0.0008	-126.9
0.0082	-0.3128	-0.0278	0.0442	-126.9
0.0142	-0.2048	-0.0181	0.0577	-126.9
0.012	0.0082	-0.0015	0.042	-126.9
0.0045	0.1125	0.012	0.0307	-126.9
0.0007	-0.1125	0.0232	0.0232	-126.9
-0.0046	-0.3968	0.0337	0.0922	-126.9
-0.0038	-0.3458	0.0382	0.1635	-126.9
-0.012	-0.0195	0.0375	0.1665	-126.8
-0.0165	0.324	0.033	0.1155	-126.8
-0.0113	0.528	0.0232	0.0082	-126.8
-0.0128	0.4867	0.0157	-0.0533	-126.8
-0.0046	0.42	0.0082	-0.0675	-126.8
-0.0015	0.246	-0.0068	-0.078	-126.8
-0.0015	-0.0465	-0.0188	-0.0856	-126.8
0.0045	-0.0361	-0.027	-0.0465	-126.8
0.0015	0.1177	-0.03	-0.0795	-126.8
0.003	0.147	-0.0218	-0.0945	-126.8
0.0045	0.204	-0.003	-0.0293	-126.8
0.0015	0.2085	0.0187	-0.0346	-126.8
0.003	-0.0315	0.0375	0.0105	-126.8
0.003	-0.1875	0.0457	-0.0046	-126.7
0.003	-0.3428	0.0315	-0.0563	-126.7
0.0022	-0.5408	0.0082	-0.0743	-126.7
0.0007	-0.441	-0.0105	-0.0788	-126.7
-0.0046	-0.2235	-0.0203	-0.0008	-126.7
-0.0083	0.1432	-0.024	0.042	-126.7
-0.0091	0.4042	-0.0225	0.0277	-126.7
-0.0091	0.3052	-0.0128	-0.015	-126.6
-0.0053	0.1987	-0.0046	-0.0008	-126.6
-0.0015	0.0667	0.0037	0.078	-126.6
0.006	-0.012	0.012	0.111	-126.6
0.0097	-0.0488	0.015	0.1087	-126.6
0.0067	-0.1988	0.0097	0.1147	-126.6
0.0045	-0.2858	-0.0015	0.1087	-126.6
0.0007	-0.261	-0.0098	0.0322	-126.6
-0.0038	-0.0788	-0.0105	-0.0315	-126.5
-0.0083	0.1612	-0.0098	-0.0668	-126.5
-0.0098	0.231	-0.0008	-0.0878	-126.5
-0.006	0.1927	0.012	-0.042	-126.5
-0.0023	0.1635	0.0232	-0.0128	-126.5
0.003	0.048	0.0307	-0.0195	-126.5
0.0037	-0.0975	0.0262	-0.0165	-126.5
0.0045	-0.0938	0.0195	0.0435	-126.5
0.0052	-0.0683	0.009	0.0705	-126.5
0.0067	-0.0555	0	0.0157	-126.5
0.006	-0.027	-0.0053	-0.0308	-126.5
0.0007	-0.0308	-0.012	-0.0233	-126.4
-0.0008	0.0367	-0.012	-0.0293	-126.4
-0.0053	0.081	-0.012	-0.0578	-126.4
-0.0105	-0.0308	-0.0091	-0.027	-126.4
-0.0083	-0.0691	-0.0015	-0.0248	-126.4
-0.006	-0.0743	0.015	-0.057	-126.4
-0.0015	-0.1635	0.024	-0.084	-126.3
-0.0015	-0.1688	0.0202	-0.0615	-126.3
-0.0008	-0.162	0.0187	-0.0083	-126.3
0.003	-0.1628	0.0105	-0.0046	-126.3
0.0015	-0.1028	0.0045	-0.0195	-126.3
0.0067	0.0915	-0.003	-0.024	-126.3
0.0067	0.21	-0.0091	0.0015	-126.3
0.009	0.042	-0.0008	0.0202	-126.3
0.015	-0.1283	0.0045	0.054	-126.3
0.0127	-0.3233	0.006	0.1297	-126.2
0	-0.4005	0	0.174	-126.2
-0.0105	-0.2258	-0.006	0.1252	-126.2
-0.0181	0.1912	-0.0158	0.072	-126.2
-0.027	0.669	-0.0233	0.0765	-126.2
-0.0233	0.6427	-0.0188	0.018	-126.2
-0.0188	0.2722	-0.0165	-0.0248	-126.2
-0.0091	-0.0263	-0.006	-0.0278	-126.2
0.0045	-0.0105	0.0015	-0.0233	-126.2
0.0082	0.2745	0.0127	-0.0053	-126.2
0.015	0.4027	0.027	0.003	-126.2
0.0165	0.1155	0.0292	-0.0173	-126.2
0.0157	-0.0893	0.033	-0.084	-126.2
0.015	-0.0458	0.0255	-0.1155	-126.1
0.006	-0.0833	0.0112	-0.1515	-126.1
-0.0008	-0.0008	-0.003	-0.135	-126.1
-0.0098	-0.0503	-0.0105	-0.0825	-126.1
-0.0083	-0.2273	-0.0083	-0.054	-126.1
-0.0068	-0.3008	-0.003	0.0015	-126.1
-0.0105	-0.3406	0.0082	0.0367	-126.1
-0.0105	-0.1418	0.012	0.0652	-126.1
-0.0083	0.1275	0.0127	0.0352	-126.1
-0.0046	0.2617	0.0075	-0.0195	-126.1
-0.0015	0.2512	0.003	-0.0083	-126.1
0.0007	0.0592	-0.0046	0.0097	-126.1
0.0052	-0.0691	-0.0091	0.0195	-126.1
0.009	-0.0698	-0.006	0.0277	-126
0.0082	-0.078	-0.0135	0.0142	-126
0.0067	-0.099	-0.0143	0.0487	-126
0.0052	-0.1208	-0.012	0.0922	-126
0.003	-0.0653	-0.0038	0.0742	-126
0.003	-0.027	0.0015	0.0622	-126
0.0022	-0.0173	-0.0008	0.0412	-126
0.0015	-0.0346	0.0045	0.0352	-126
0.0015	-0.0173	0.0045	0.0487	-126
0.0022	0.0937	0.0067	0.0487	-126
0.0015	0.1717	0.006	0.0607	-126
0.0015	0.1417	0.0007	0.0082	-126
0	-0.0091	0	-0.078	-126
-0.0038	-0.0398	-0.0083	-0.105	-126
-0.006	-0.0968	-0.0068	-0.1118	-126
-0.0113	-0.1995	-0.0008	-0.0833	-126
-0.0105	-0.1778	-0.0008	-0.0473	-126
-0.012	-0.0968	0.0067	-0.0218	-126
-0.0135	0.1327	0.0082	0.0172	-126
-0.0068	0.198	0.009	0.0405	-126
-0.0023	0.063	0.012	0.075	-126
0.0067	-0.0225	0.012	0.0592	-126
0.0105	-0.0383	0.0127	-0.0256	-126
0.012	-0.2145	0.0165	-0.0885	-126
0.0142	-0.4545	0.0165	-0.09	-126
0.0082	-0.3293	0.0105	-0.0256	-126
0.003	-0.1845	0.0075	0.084	-126
-0.0113	0.1027	0.003	0.0952	-126
-0.0218	0.522	0.0015	0.0352	-126
-0.0233	0.5887	-0.0038	0.0202	-126
-0.027	0.552	-0.0098	-0.0361	-126
-0.015	0.2497	-0.0158	-0.0668	-126
-0.0053	-0.027	-0.0308	-0.081	-126
0.003	-0.0518	-0.0398	-0.078	-126
0.0142	-0.0938	-0.0361	-0.0436	-126
0.0142	-0.0833	-0.0181	-0.0008	-126
0.0202	-0.2648	0.0127	0.0405	-126
0.0187	-0.4485	0.0352	0.036	-126
0.0127	-0.4748	0.0495	0.0727	-126
0.0037	-0.2693	0.0547	0.0367	-126
-0.0068	0.1605	0.0502	-0.0091	-126
-0.012	0.441	0.0382	0.0015	-126
-0.0158	0.414	0.0157	0.0037	-126
-0.0091	0.1462	-0.0015	0.0075	-126
-0.0046	-0.0706	-0.0203	-0.0368	-126
-0.0008	-0.117	-0.0338	-0.0143	-126
0.0007	-0.0068	-0.0353	0.0165	-126
-0.0023	0.0885	-0.0308	0.021	-126
-0.0008	0.219	-0.0158	0.027	-126
0.0007	0.2077	-0.0075	0.0255	-126
0	-0.0436	-0.0068	0.0142	-126
-0.0023	-0.054	-0.0143	-0.033	-126
-0.0038	-0.0128	-0.0203	-0.027	-126
-0.0068	-0.024	-0.0158	-0.0046	-126
-0.0015	-0.1043	-0.0128	-0.027	-126
-0.0008	-0.1665	-0.003	-0.0503	-126
-0.0015	-0.0706	0.009	-0.039	-126
0.0022	0.0442	0.0165	-0.0173	-126
-0.003	0.1005	0.0187	0.0217	-126
0.0045	0.0105	0.018	0.0352	-126
0.0075	-0.0285	0.0187	0.0255	-126
0.0082	-0.0458	0.0112	0.0465	-126
0.0142	-0.0668	0.0112	0.0427	-126
0.0067	-0.0593	0.0052	0.0277	-126
0.0112	-0.099	0.0007	0.0195	-126
0.006	-0.0893	0.0045	-0.0091	-126
-0.0015	-0.0683	0.0067	-0.0338	-126
0.0007	-0.0721	0.015	-0.0233	-126
-0.0083	-0.084	0.012	0.003	-126
-0.0083	-0.0068	0.0127	-0.0038	-126
-0.0135	0.1222	0.0142	-0.048	-126.1
-0.012	0.1552	0.0075	-0.0436	-126.1
-0.0068	0.153	0.0015	-0.0308	-126.1
-0.0091	0.1297	-0.006	-0.0233	-126.1
-0.0008	-0.0128	-0.0015	0.03	-126.1
-0.0008	-0.0998	0.0037	0.063	-126.1
0.0007	-0.045	0.0007	0.0615	-126.1
0.003	-0.096	0.003	0.0105	-126.1
-0.003	-0.1365	-0.0068	0.012	-126.1
-0.0038	-0.0773	-0.0143	0.0202	-126.1
-0.0091	-0.0181	-0.0113	-0.024	-126.1
-0.006	0.0885	-0.0068	-0.0233	-126.1
-0.0068	0.0877	-0.0008	-0.0023	-126.1
-0.0091	-0.195	-0.0008	0.0322	-126.1
-0.003	-0.36	0.0045	0.0172	-126.1
-0.0015	-0.1313	-0.0008	0.0045	-126.1
0.003	0.114	-0.0091	-0.0091	-126.1
0.003	0.3255	-0.0105	-0.0323	-126.2
0.0022	0.4087	-0.0181	-0.0308	-126.2
0.0007	0.135	-0.0165	-0.057	-126.2
-0.0015	-0.1726	-0.0083	-0.0158	-126.2
0.0052	-0.2295	0.0052	0.0495	-126.2
0.0022	-0.1013	0.0172	0.0742	-126.2
0.0037	0.1185	0.027	0.051	-126.2
0.0015	0.2962	0.0322	-0.0256	-126.2
-0.0038	0.1747	0.0292	-0.0458	-126.2
0.0007	0.051	0.0285	-0.0368	-126.2
-0.0046	0.1185	0.0157	-0.0173	-126.2
-0.003	0.0217	0.003	0.0037	-126.2
0.0007	0.0127	-0.0075	0.0075	-126.2
0.003	0.0067	-0.0203	0.0052	-126.2
0.0097	0.0015	-0.0203	-0.0225	-126.2
0.0082	0.078	-0.0195	-0.0195	-126.2
0.0105	-0.0728	-0.0091	-0.0068	-126.2
0.0075	-0.1088	-0.0038	0.0045	-126.2
-0.0008	-0.1275	-0.0038	0.0225	-126.2
-0.003	-0.207	-0.0008	-0.0203	-126.2
-0.0083	-0.123	-0.0053	-0.0443	-126.2
-0.0113	-0.039	-0.0023	-0.0503	-126.2
-0.0091	0.0217	0.0052	-0.0691	-126.2
-0.0091	0.0757	0.015	0.009	-126.3
-0.0053	0.069	0.021	0.0802	-126.3
-0.0038	0.0585	0.018	0.0712	-126.3
-0.0023	0.0915	0.0172	0.057	-126.3
0.0015	0.042	0.0097	0.018	-126.3
0	-0.0218	0.0015	-0.021	-126.3
0.0007	-0.0218	-0.0053	-0.0413	-126.3
0.0015	-0.0668	-0.0113	-0.0398	-126.3
0.003	-0.0871	-0.012	-0.0165	-126.3
0.0075	-0.0908	-0.0083	0.0195	-126.3
0.0082	-0.12	-0.003	0.0435	-126.3
0.0045	-0.1448	-0.0008	0.0442	-126.3
-0.0008	-0.1028	0.0045	0	-126.3
-0.0046	0.012	0.009	-0.0503	-126.3
-0.0068	0.099	0.009	-0.0383	-126.3
-0.0075	0.1297	0.0097	-0.0181	-126.3
-0.0046	0.009	0.0052	0.0442	-126.3
-0.003	-0.0578	0.0015	0.1147	-126.3
0.0007	0.057	-0.0023	0.0937	-126.3
-0.0008	0.093	-0.0053	0.015	-126.3
-0.0015	0.1635	0.003	-0.06	-126.3
-0.0015	0.1687	0.0075	-0.108	-126.3
-0.0038	-0.0713	0.0142	-0.1088	-126.3
0.0022	-0.1515	0.0082	-0.0721	-126.3
-0.0023	-0.1741	-0.0053	-0.0293	-126.3
0.0015	-0.2011	-0.0105	0.012	-126.3
0.0022	-0.003	-0.0135	0.039	-126.3
-0.0023	0.1605	-0.0068	0.0915	-126.3
0.0007	0.2205	-0.0023	0.0907	-126.3
-0.0046	0.1155	0.006	0.0765	-126.3
0.0015	-0.06	0.0112	0.0532	-126.3
0.003	-0.1305	0.012	-0.0413	-126.3
-0.0015	-0.147	0.0165	-0.0638	-126.3
0.0007	-0.0675	0.0105	-0.0585	-126.3
-0.0046	0.0862	0.0082	-0.048	-126.3
-0.0008	0.1882	0.0045	-0.0158	-126.3
-0.003	0.0967	0	-0.0023	-126.3
-0.0023	-0.0443	0.0022	0.0127	-126.3
0.0015	-0.1065	-0.0008	0.003	-126.3
0	-0.1365	-0.0053	-0.0173	-126.3
0.0052	-0.0443	-0.0158	-0.012	-126.3
-0.0008	0.0217	-0.0188	0.0075	-126.3
0.0007	0.0142	-0.0091	-0.0023	-126.3
0	0.0637	0	-0.039	-126.3
-0.0053	0.0652	0.012	-0.0346	-126.3
-0.0008	0.0667	0.012	-0.0143	-126.3
-0.0075	0.018	0.012	0	-126.3
-0.0023	-0.0105	0.0052	0.0307	-126.3
-0.0008	0.0375	0.0007	0.0502	-126.3
-0.0053	0.036	-0.003	0.0225	-126.3
-0.0015	0.0825	-0.0083	0.0022	-126.3
-0.0053	-0.063	-0.0015	0.012	-126.3
0.0015	-0.2273	0.0015	0.0352	-126.3
0.003	-0.135	0.0067	0.09	-126.3
0	-0.024	0.009	0.1155	-126.3
-0.0015	0.099	0.0052	0.117	-126.3
-0.0083	0.153	0.0007	0.051	-126.3
-0.0008	0.2115	-0.0046	-0.054	-126.3
-0.003	0.1912	-0.0068	-0.078	-126.3
0	0.03	-0.006	-0.09	-126.3
0.0022	-0.0173	-0.0008	-0.0893	-126.3
-0.003	-0.0428	0.009	-0.0795	-126.3
0.0015	-0.0511	0.0165	-0.0698	-126.3
-0.0046	-0.0368	0.0187	-0.03	-126.3
-0.0015	-0.0555	0.0165	-0.015	-126.3
-0.0008	-0.0203	0.015	-0.003	-126.2
-0.0053	0.027	0.0082	-0.0195	-126.2
-0.0008	-0.0038	0.003	-0.0293	-126.2
-0.0023	-0.1035	-0.0046	0.0007	-126.2
0.0045	-0.1388	-0.012	0.0165	-126.2
0.003	-0.0863	-0.0113	0.0322	-126.2
0.003	-0.0818	-0.012	0.0217	-126.2
0.0045	-0.1373	-0.003	0.0052	-126.2
-0.0008	-0.15	-0.0008	0.0037	-126.2
0.0045	-0.078	-0.0038	0.0037	-126.2
0	0.0975	-0.0008	0.0277	-126.2
-0.003	0.324	-0.0083	0.024	-126.2
-0.003	0.2925	-0.0098	-0.0015	-126.2
-0.006	0.0712	-0.0098	0.0127	-126.2
-0.0023	-0.0038	-0.006	0.0127	-126.2
-0.003	-0.09	0.0045	0.0142	-126.2
0.0015	-0.2145	0.0067	0.0292	-126.2
0	-0.297	0.0105	0.0097	-126.2
0.0015	-0.3383	0.0082	0.0255	-126.2
0.003	-0.0953	0.003	0.0465	-126.1
0	0.3195	0.0067	0.0337	-126.1
0.0045	0.5707	0.009	-0.033	-126.1
-0.003	0.3442	0.0142	-0.0608	-126.1
-0.0015	-0.1028	0.0202	0.0622	-126.1
0	-0.096	0.0232	0.1117	-126.1
-0.0053	-0.0278	0.0262	-0.0023	-126.1
-0.0008	-0.0361	0.024	-0.114	-126.1
-0.0068	0.0277	0.0142	-0.1118	-126.1
-0.0046	0.0022	-0.0008	-0.0856	-126.1
-0.0008	0.0225	-0.0083	-0.0465	-126.1
-0.0023	0.0165	-0.0143	0.0015	-126.1
0.0045	0.0165	-0.0181	-0.0053	-126.1
0.0052	-0.0248	-0.0143	0.009	-126
0.006	-0.0615	-0.0158	-0.0068	-126
0.003	-0.108	-0.0105	-0.0195	-126
-0.0053	-0.2408	-0.0098	-0.0173	-126
-0.0075	-0.2415	-0.0075	-0.0143	-126
-0.0091	-0.2618	0.0007	0.0007	-126
-0.0053	-0.2318	0.0045	-0.0068	-126
0.0015	0.0045	0.0067	0.063	-126
0.0045	0.2842	0.0067	0.1222	-126
0.0052	0.4762	0.0082	0.132	-126
0.003	0.3787	0.0082	0.0937	-126
-0.0008	0.2745	0.0015	-0.0046	-126
-0.0015	0.1657	-0.0023	-0.027	-126
-0.0008	-0.063	-0.0053	-0.0593	-126
0.0015	-0.0458	-0.0083	-0.0825	-126
-0.0015	-0.0683	-0.0046	-0.0728	-126
-0.0023	-0.0938	-0.0053	-0.084	-126
-0.0046	-0.0368	-0.0008	-0.0555	-126
-0.0023	-0.0803	0.0105	-0.0353	-126
0.0007	-0.0863	0.021	0.0045	-126
-0.0015	-0.0953	0.027	0.0465	-126
0.0022	-0.0638	0.0232	0.0772	-126
0	-0.0091	0.018	0.1072	-126
-0.0008	0.093	0.0105	0.0667	-126
-0.003	0.1177	0.0045	0.006	-126
-0.006	-0.0315	-0.0046	-0.0555	-126
-0.0015	-0.1118	-0.0143	-0.0803	-125.9
-0.006	-0.1163	-0.0188	-0.057	-125.9
-0.003	-0.0825	-0.0203	-0.0495	-125.9
-0.003	-0.0233	-0.0105	-0.0383	-125.9
-0.0008	-0.0256	-0.0008	-0.015	-125.9
0.0052	-0.0706	0.003	0.0352	-125.9
0	-0.0233	0.006	0.0577	-125.9
0.0015	0.0787	-0.0008	0.042	-125.8
-0.0015	0.1462	-0.003	0.0592	-125.8
-0.003	0.1102	-0.0023	0.0457	-125.8
-0.0008	0.0195	-0.0053	0.0255	-125.8
0.0007	0.0225	-0.0015	0.0052	-125.8
0.003	-0.012	0.0037	-0.0308	-125.8
0	-0.0458	0.0082	-0.0105	-125.8
0.0007	-0.0413	0.0157	0.0052	-125.8
0.0007	-0.054	0.021	0.003	-125.7
-0.0008	-0.0428	0.0217	-0.0233	-125.7
0	-0.075	0.018	-0.057	-125.7
-0.0008	-0.123	0.012	-0.0203	-125.7
0.0007	-0.1365	0.0037	0.0517	-125.7
0.0007	-0.033	-0.003	0.075	-125.7
0.003	0.1155	-0.006	0.0202	-125.7
0	0.1612	-0.0053	-0.0203	-125.7
0.0007	0.0877	-0.0008	-0.0308	-125.7
0.0015	-0.0578	0.003	-0.0293	-125.6
0.0015	-0.0735	0.0015	0.0075	-125.6
0.003	-0.0046	-0.0053	0.012	-125.6
-0.0008	0.0675	-0.0105	0.021	-125.6
0.0015	0.1087	-0.0113	0.0217	-125.6
0	0.1012	-0.0068	-0.0008	-125.6
-0.0038	0.144	-0.0038	-0.0128	-125.6
-0.0046	0.0765	0.0007	-0.0645	-125.6
-0.0105	-0.0383	0	-0.0645	-125.6
-0.0083	-0.0668	0.0007	-0.0105	-125.6
-0.0068	-0.1006	0.0045	0.0007	-125.6
-0.0046	-0.0675	-0.0008	0.0052	-125.5
0.0007	-0.0091	-0.0008	-0.0203	-125.5
-0.0046	-0.0195	-0.0015	-0.0278	-125.5
0.0022	-0.0653	-0.0023	0.0202	-125.5
0.0045	-0.0578	-0.0008	0.0592	-125.5
0.0052	0.0322	0.003	0.0592	-125.5
0.009	0.063	0.0075	0.0247	-125.5
0.0022	0.0487	0.0037	0.0045	-125.5
0.0015	-0.0083	0.009	-0.0256	-125.5
-0.0046	-0.0968	0.0067	-0.0346	-125.4
-0.0083	-0.0413	0.0007	-0.0361	-125.4
-0.012	0.1005	0.0045	-0.0413	-125.4
-0.0105	0.1627	0.0045	-0.0091	-125.4
-0.0008	0.0337	0.0097	0.0082	-125.4
0.0045	-0.1703	0.0067	0.0285	-125.4
0.0067	-0.1935	0.0052	0.03	-125.4
0.0007	-0.0878	0.0045	0.0202	-125.3
-0.0008	0.075	0.0052	-0.0008	-125.3
0	0.2175	0.0127	-0.033	-125.3
-0.0053	0.2055	0.012	-0.021	-125.3
-0.0053	0.0772	0.009	-0.003	-125.3
-0.0053	-0.0668	-0.003	0.0105	-125.3
-0.0068	-0.2708	-0.0135	0.0112	-125.3
-0.0083	-0.417	-0.0181	-0.0113	-125.3
-0.006	-0.2295	-0.024	-0.0203	-125.3
-0.0023	0.1425	-0.027	-0.0465	-125.2
-0.0015	0.4425	-0.0218	-0.0473	-125.2
0.0052	0.3352	-0.0083	-0.0233	-125.2
0.0105	0.0412	0.009	-0.0113	-125.2
0.0142	0.0157	0.027	0.072	-125.2
0.0142	0.039	0.0337	0.129	-125.2
0.0075	0.093	0.0315	0.0712	-125.2
0.0007	0.06	0.0255	-0.0285	-125.2
-0.003	-0.0653	0.0157	-0.045	-125.2
-0.0068	-0.0698	0.009	-0.0353	-125.2
-0.0083	-0.0878	-0.0008	-0.0473	-125.1
-0.0091	-0.1021	-0.0075	-0.0398	-125.1
-0.0046	-0.0863	-0.0165	-0.0608	-125.1
-0.0046	-0.0728	-0.0173	-0.0555	-125.1
-0.0053	-0.0285	-0.0098	-0.0338	-125.1
-0.0038	-0.0293	-0.012	0.033	-125.1
-0.0068	-0.0638	-0.0091	0.096	-125.1
-0.0008	-0.0195	-0.006	0.1252	-125.1
0.0007	0.0157	-0.0008	0.1395	-125.1
-0.0008	0.0855	0.0045	0.0975	-125.1
-0.0008	0.159	0.0045	0.051	-125.1
-0.0068	0.084	0.0127	-0.0098	-125.1
-0.0023	0.0217	0.0157	-0.0458	-125.1
-0.0046	-0.0218	0.0202	-0.0638	-125.1
-0.0023	-0.0458	0.0172	-0.0713	-125.1
-0.0008	-0.0218	0.0075	-0.0578	-125
-0.0053	-0.0623	0.0045	-0.0518	-125
0.0015	-0.0533	-0.0015	-0.0368	-125
-0.0015	-0.0165	-0.003	-0.0308	-125
0.0022	-0.0615	-0.0008	-0.0181	-125
0.003	-0.1396	-0.003	0.0082	-125
0.0015	-0.2678	-0.0015	0.045	-125
0.009	-0.3795	-0.003	0.069	-125
0.0045	-0.3248	-0.0053	0.0795	-125
0.003	-0.0593	-0.0053	0.075	-125
-0.0008	0.333	-0.006	0.0157	-124.9
-0.0038	0.597	-0.0053	-0.0443	-124.9
-0.0023	0.3997	-0.0015	-0.066	-124.9
-0.0038	0.132	0.0067	-0.1006	-124.9
0.0015	0.1687	0.0097	-0.0871	-124.9
0.0007	0.0967	0.009	-0.0428	-124.9
0.003	-0.0735	0.0097	-0.0346	-124.9
0.003	-0.1328	0.0105	-0.012	-124.9
-0.0023	-0.1028	0.0135	0.0052	-124.9
-0.003	-0.0675	0.0142	0.003	-124.8
-0.0098	-0.0563	0.003	0.0045	-124.8
-0.0068	-0.0668	-0.0105	0.012	-124.8
-0.0038	-0.1275	-0.0128	0.024	-124.8
0.003	-0.1298	-0.0158	0.036	-124.8
0.0075	-0.0458	-0.0158	0.021	-124.8
0.0045	0.1252	-0.0128	-0.0195	-124.8
0.0075	0.222	-0.0105	-0.015	-124.7
0.003	0.1575	0.0022	0.027	-124.7
0.006	0.1627	0.0142	0.0525	-124.7
0.0067	0.1012	0.0255	0.0592	-124.7
0.0045	-0.0983	0.0307	0.0277	-124.7
0.003	-0.1328	0.0307	-0.0315	-124.7
-0.0053	-0.159	0.0285	-0.0503	-124.7
-0.0075	-0.12	0.0172	-0.0008	-124.7
-0.0105	0.0397	0.0067	0.0405	-124.7
-0.0075	0.0652	-0.0008	0.0712	-124.7
-0.0015	0.1155	-0.006	0.1177	-124.7
0.0007	0.1237	-0.0046	0.1515	-124.7
0.006	0.0652	-0.0023	0.1177	-124.7
0.0045	-0.0091	-0.0038	-0.0323	-124.7
0.0007	-0.0585	-0.0105	-0.1365	-124.7
-0.0046	-0.0533	-0.0158	-0.1328	-124.7
-0.0083	-0.114	-0.0143	-0.114	-124.6
-0.0075	-0.105	-0.0113	-0.0743	-124.6
-0.0091	-0.0413	-0.0046	-0.0615	-124.6
-0.0083	-0.0053	-0.0015	-0.0578	-124.6
-0.0105	-0.0338	-0.0015	-0.0315	-124.6
-0.0105	-0.0743	-0.0008	-0.0248	-124.6
-0.0075	-0.084	-0.0075	-0.0046	-124.6
-0.0046	-0.0818	-0.0143	0.015	-124.6
0.0015	-0.003	-0.0173	0.0157	-124.6
0.0007	0.0457	-0.0083	0.0037	-124.6
0	0.0255	0.0067	-0.0068	-124.6
-0.0008	-0.006	0.018	0.009	-124.6
-0.0015	0.066	0.0285	0.0105	-124.6
0.0007	0.159	0.0322	-0.0023	-124.6
0.0007	0.0817	0.0277	0.0157	-124.6
0.0015	-0.0256	0.0225	0.0412	-124.5
0.0097	-0.039	0.0135	0.0495	-124.5
0.006	-0.039	0.0022	0.0307	-124.5
0.0045	-0.0443	-0.0068	-0.0068	-124.5
0.0045	-0.0338	-0.0128	-0.0293	-124.5
0.0015	-0.0181	-0.0203	-0.0495	-124.5
0.003	-0.0046	-0.024	-0.0293	-124.5
0.0007	-0.0068	-0.021	0.024	-124.5
0.0015	-0.0405	-0.0165	0.0532	-124.5
-0.0038	-0.027	-0.0105	0.0532	-124.5
-0.0038	0.0885	-0.006	0.0225	-124.5
-0.0038	0.117	-0.0015	0.009	-124.5
-0.0083	0.0052	0.009	0.009	-124.5
-0.0015	-0.0458	0.0195	0.0067	-124.5
-0.0038	0.0135	0.0262	0.0052	-124.5
0.0007	0.1027	0.0277	-0.0113	-124.5
0.003	0.1252	0.0232	-0.012	-124.5
-0.0008	0.0345	0.0172	-0.0023	-124.5
0.0045	-0.0218	0.009	-0.0023	-124.5
0.0022	-0.0263	0	-0.0038	-124.5
0.0052	-0.1118	-0.0083	0.0082	-124.4
0.0022	-0.2288	-0.0068	0.0052	-124.4
-0.0008	-0.1965	-0.0053	0.0037	-124.4
0.003	-0.0518	-0.003	-0.003	-124.4
-0.0038	0.0787	0.0067	-0.0218	-124.4
-0.0015	0.2152	0.0045	0.0142	-124.4
-0.0068	0.1177	0.009	0.0075	-124.4
-0.0075	-0.0825	0.0007	-0.0225	-124.4
-0.003	-0.0503	-0.0098	-0.0128	-124.4
-0.0068	-0.0038	-0.0098	-0.0173	-124.4
-0.0023	-0.0308	-0.0158	-0.024	-124.4
-0.006	-0.0743	-0.0128	-0.0195	-124.4
-0.0046	0.003	-0.0128	0.0157	-124.4
-0.0015	0.1845	-0.0053	0.0217	-124.4
-0.0053	0.2235	0.0067	-0.003	-124.4
0.003	0.129	0.0142	-0.0083	-124.4
0.0045	-0.0511	0.0247	0.0052	-124.4
0.0075	-0.1095	0.0232	0.027	-124.4
0.0067	-0.0308	0.0195	0.0322	-124.4
-0.0015	0.0352	0.0135	0.0187	-124.4
-0.003	0.1035	0.0082	0.0022	-124.3
-0.0075	0.0802	0.0067	0.0015	-124.3
-0.006	-0.0083	0.0015	0.0195	-124.3
-0.0046	-0.0495	0.0015	0.021	-124.3
0.003	-0.0105	-0.0023	-0.012	-124.3
0.0075	-0.0256	-0.003	-0.0256	-124.3
0.0082	-0.063	-0.0083	-0.0458	-124.3
0.009	-0.0405	-0.0128	-0.0548	-124.3
0.0037	-0.0368	-0.015	-0.0278	-124.3
0	-0.042	-0.0158	-0.0143	-124.3
-0.0046	-0.0308	-0.006	0.0015	-124.3
-0.0068	-0.0346	-0.0015	-0.0158	-124.3
-0.0068	-0.093	0.003	-0.0248	-124.3
-0.0091	-0.1688	0.003	-0.0218	-124.3
-0.0053	-0.1868	0.0037	-0.0218	-124.3
-0.0023	-0.126	0.0052	0.0097	-124.3
0.0007	-0.0465	0.0045	0.0082	-124.3
0.0015	0.0967	0.0105	0.003	-124.3
0.0015	0.1822	0.0067	0.0225	-124.3
-0.0015	0.1117	0.0037	0.0315	-124.3
-0.0053	0.1477	0.0007	0.015	-124.3
-0.0046	0.126	-0.0015	0.0082	-124.3
-0.0046	0.033	0.0037	0.0412	-124.3
-0.0008	0.0405	0.0037	0.0532	-124.3
-0.0008	-0.039	0.0052	0.0345	-124.3
-0.0015	-0.0915	0.0007	0.0037	-124.2
0.0007	-0.0765	-0.0008	-0.0293	-124.2
-0.0015	0.0315	-0.0015	-0.0353	-124.2
0.0022	0.1515	-0.0091	-0.0203	-124.2
0.0045	0.1215	-0.0083	-0.0436	-124.2
0.0007	0.0765	-0.006	-0.0503	-124.2
0.0022	0.0127	0.0015	-0.0158	-124.2
0.0007	-0.0765	0.0067	-0.0135	-124.2
0.0015	-0.1043	0.0052	0.024	-124.2
-0.0008	-0.0353	0.009	0.03	-124.2
-0.003	-0.0038	0.0112	0.0142	-124.2
-0.0008	-0.0593	0.015	0.0315	-124.2
-0.0008	-0.042	0.0172	0.0232	-124.2
0.0045	0.0052	0.012	0.0105	-124.2
0.0007	0.0562	0.0082	-0.0248	-124.2
0	0.0877	0.006	-0.027	-124.2
0.0015	0.021	0.0067	-0.0015	-124.2
-0.0038	-0.033	0.0045	0.0277	-124.2
-0.003	-0.0308	0.0007	0.054	-124.2
-0.0068	-0.0098	-0.0008	0.0622	-124.2
-0.0046	-0.0308	-0.0008	0.0652	-124.2
0.0015	-0.0091	0.0022	0.0345	-124.2
0.0015	0.0727	-0.0008	-0.0158	-124.2
0.003	0.0172	-0.0068	-0.0525	-124.2
-0.0023	-0.0256	-0.0128	-0.0428	-124.2
-0.0038	-0.0293	-0.0143	0.015	-124.2
-0.0015	-0.099	-0.012	0.0202	-124.2
-0.0015	-0.0803	-0.012	-0.027	-124.2
-0.0008	-0.0428	-0.0091	-0.048	-124.2
-0.003	-0.0046	-0.0083	-0.0668	-124.2
-0.003	0.0525	-0.0046	-0.0706	-124.2
-0.0046	0.0157	-0.0068	-0.0653	-124.2
-0.0053	-0.0593	-0.0068	-0.0555	-124.2
-0.0053	-0.1163	-0.003	-0.0353	-124.2
-0.0068	-0.15	-0.0046	-0.0188	-124.2
-0.0023	-0.0615	0.0037	0.0315	-124.2
0.003	0.0667	0.0067	0.0615	-124.2
0.003	0.1117	0.012	0.066	-124.2
0.0045	0.1515	0.0195	0.0727	-124.2
0.0082	0.0975	0.021	0.0705	-124.2
0.0082	0.0465	0.024	0.0577	-124.2
0.0105	0.0975	0.0202	0.0135	-124.2
0.0067	0.0322	0.0135	0.003	-124.2
0.0015	-0.0975	0.006	0.0097	-124.2
0.0007	-0.1215	0.0007	-0.003	-124.2
-0.0023	-0.0143	-0.0068	-0.003	-124.2
-0.0053	0.1005	-0.0105	-0.0383	-124.2
-0.0075	0.1777	-0.0098	-0.084	-124.2
-0.0053	0.1237	-0.0075	-0.0871	-124.2
-0.006	-0.042	0.0015	-0.0608	-124.2
-0.0053	-0.0638	0.0082	-0.024	-124.2
-0.003	-0.078	0.0112	0.0067	-124.2
-0.0046	-0.0683	0.0142	0.0315	-124.2
-0.0015	-0.0046	0.0165	0.0675	-124.2
-0.0008	0.0547	0.0202	0.093	-124.2
-0.0008	0.0975	0.0202	0.069	-124.2
-0.0015	-0.0323	0.0165	0.0255	-124.2
-0.0046	-0.1268	0.003	-0.0091	-124.2
-0.0068	-0.105	-0.0083	-0.0458	-124.2
-0.006	-0.0615	-0.0165	-0.075	-124.2
-0.0075	0.0105	-0.024	-0.09	-124.2
-0.0046	0.024	-0.0256	-0.0908	-124.2
0.0007	-0.0098	-0.0256	-0.0818	-124.2
0.0007	0	-0.0195	-0.0465	-124.2
0.0052	0.0577	-0.012	0.0585	-124.2
0.0067	0.0577	-0.003	0.144	-124.2
0.0082	0.0405	0.0075	0.1215	-124.2
0.0112	-0.006	0.0135	0.0892	-124.2
0.0052	-0.0856	0.021	0.0615	-124.2
0.0045	-0.0856	0.024	0.0015	-124.2
0.0015	-0.0638	0.0217	-0.0165	-124.2
0	0.0225	0.0187	-0.0346	-124.2
-0.0046	0.087	0.012	-0.054	-124.2
-0.0105	0.0787	0.0052	-0.0593	-124.2
-0.0083	0.0742	-0.0015	-0.054	-124.1
-0.012	-0.0091	-0.0038	-0.0353	-124.1
-0.0083	-0.0375	-0.0046	-0.0256	-124.1
-0.0068	0.0112	-0.0068	-0.0068	-124.1
-0.0068	0.0165	-0.0075	-0.0091	-124.1
-0.0015	-0.0046	-0.0083	0.009	-124.1
-0.0023	-0.0653	-0.0075	0.0555	-124.1
0.0007	-0.135	-0.003	0.0817	-124.1
0.0015	-0.0848	0	0.078	-124.1
0.0052	0.03	0.0045	0.0345	-124.1
0.0037	0.1327	0.0067	0.0007	-124.1
0.0015	0.1837	0.0067	-0.0091	-124.1
0.0052	0.0577	0.0082	-0.0128	-124.1
0.0007	-0.0165	0.009	-0.0233	-124
0.003	0.0097	0.0052	-0.0383	-124
0.0015	-0.0323	0.0007	-0.0368	-124
0.0015	-0.0653	-0.0008	-0.027	-124
0.003	-0.0863	-0.0053	-0.0165	-124
-0.0008	-0.0721	-0.0046	-0.015	-124
0.0015	-0.0593	0.0007	-0.0068	-124
-0.003	-0.0488	0.0052	0.0105	-124
-0.0015	-0.0098	0.012	0.0127	-124
-0.0015	0.021	0.0112	0.0112	-124
-0.0046	0.045	0.0082	0.0015	-124
-0.0038	0.1072	0.009	-0.0263	-124
-0.0083	0.1402	0.0067	-0.0293	-124
-0.0038	0.0547	0.0052	0.0015	-124
0.0015	0.021	0.0045	0.0217	-124
0.0052	-0.0008	0.0067	0.033	-124
0.009	-0.0195	0.0067	0.039	-124
0.0052	-0.006	0.0097	0.018	-124
0.0045	-0.0285	0.0082	-0.006	-123.9
-0.0008	-0.0173	0.0052	-0.024	-123.9
-0.0053	-0.0375	0.0015	-0.0278	-123.9
-0.0068	-0.0713	-0.0046	-0.0203	-123.9
-0.0038	-0.096	-0.0068	-0.0128	-123.9
-0.0023	-0.0953	-0.012	-0.003	-123.9
-0.0008	-0.0188	-0.015	-0.003	-123.9
-0.0015	0.0705	-0.0143	-0.0091	-123.9
-0.003	0.099	-0.0105	-0.0053	-123.9
-0.0015	0.0352	-0.0083	0.0007	-123.9
-0.0053	-0.0068	-0.0068	-0.0128	-123.9
-0.0046	0.0052	-0.003	-0.0181	-123.9
-0.0046	0.0142	-0.0015	-0.0091	-123.9
-0.0046	0.0127	0.0007	-0.0008	-123.9
0.0007	-0.0046	-0.0008	0.015	-123.9
-0.0023	-0.0158	-0.0008	0.0367	-123.9
0.0022	-0.0638	0.003	0.0465	-123.9
0.0045	-0.0803	0.003	0.0307	-123.9
0	0.0022	0.0075	0.0007	-123.9
0	0.0682	0.0052	-0.0315	-123.9
-0.0046	0.0757	0.0052	-0.033	-123.9
-0.003	0.012	0.0052	-0.0083	-123.9
0.0007	-0.0256	0.003	-0.003	-123.9
0	0.0292	0.0105	0.0007	-123.9
0.0007	0.0307	0.0112	0.0052	-123.9
0.0022	0.009	0.0127	0.0105	-123.9
0.0037	0.0067	0.0105	0.0165	-123.9
0.0022	-0.006	0.0045	0.0097	-123.9
0.0015	-0.0068	0	0.0067	-123.9
0.0015	-0.0165	-0.006	0.0007	-123.9
-0.0008	-0.0128	-0.0046	0	-123.9
-0.0008	-0.0053	-0.0053	-0.0015	-123.9
0.0015	-0.0068	-0.0015	-0.0015	-123.9
0.0015	-0.0075	0.003	0.0022	-123.8
0.0022	-0.0105	0.0052	-0.0068	-123.8
-0.0008	-0.0083	0.003	-0.0098	-123.8
-0.006	-0.0083	0.0015	-0.0105	-123.8
-0.003	-0.0046	0.0007	-0.0083	-123.8
-0.0053	-0.003	0.0007	-0.0008	-123.8
0	-0.0008	0.003	0.0045	-123.8
0.0007	0.0007	0.0022	0.0067	-123.8
-0.003	0.0015	0.0022	0.0067	-123.8
0.0007	0.0052	0.003	0.006	-123.8
-0.0053	0.0015	0.0007	0.0015	-123.8
-0.003	0	0	-0.0046	-123.8
-0.0008	-0.0053	0.0007	-0.0098	-123.8
-0.0046	-0.0068	0.0015	-0.0083	-123.8
0.0007	-0.0015	0.0015	-0.0038	-123.8
-0.003	0.0007	0.0022	-0.0015	-123.7
-0.003	0.0007	0.0015	0.0015	-123.7
-0.0015	0	-0.0008	0	-123.7
-0.0015	0.0007	0.0007	0.0015	-123.7
0.0045	-0.0015	-0.0023	0.0022	-123.7
0.003	-0.0023	-0.0008	0	-123.7
0.006	-0.0015	0.0015	0.0015	-123.7
0.0045	0.0007	0.0022	0.0015	-123.7
0.003	0.0015	0.0067	-0.0008	-123.7
0.0045	0.0015	0.0082	-0.0023	-123.7
-0.003	0.0052	0.009	-0.0015	-123.6
-0.006	0.003	0.0052	0.0022	-123.6
-0.0083	-0.0046	0.0007	0.0045	-123.6
-0.0068	-0.0181	-0.0068	0.0127	-123.6
-0.0053	-0.0353	-0.0083	0.021	-123.6
-0.006	-0.0338	-0.0091	0.0225	-123.6
-0.003	-0.0023	-0.0083	0.0172	-123.6
0.0007	0.0412	-0.0038	0.0045	-123.6
0.003	0.078	0.0007	-0.0008	-123.6
0.0037	0.0592	0.0052	-0.006	-123.6
0.006	0.0082	0.0067	-0.0165	-123.5
0.0067	0.0045	0.0105	-0.0195	-123.5
0.0052	-0.0068	0.012	-0.0188	-123.5
0.0015	-0.0128	0.0105	-0.0203	-123.5
-0.0023	-0.0068	0.009	-0.0256	-123.5
-0.0053	-0.0195	0.0037	-0.0278	-123.5
-0.0053	-0.0173	-0.0038	-0.024	-123.5
-0.0053	-0.0203	-0.0105	-0.0143	-123.5
-0.0053	-0.0158	-0.0105	-0.0083	-123.5
-0.0023	-0.0091	-0.006	0.0007	-123.5
-0.0008	-0.0068	-0.0068	0.009	-123.4
0.003	0.0022	-0.0046	0.012	-123.4
0.003	0	-0.003	0.0127	-123.4
0.0007	0.0007	-0.003	0.0082	-123.4
-0.0015	0	0.0015	0.009	-123.4
-0.0053	-0.0008	0.003	0.009	-123.4
-0.0053	-0.0015	0.0052	0.0075	-123.4
-0.0068	-0.003	0.012	0.0067	-123.4
-0.0053	-0.0038	0.0165	0.003	-123.4
-0.0023	-0.006	0.018	0.0015	-123.3
-0.0015	-0.015	0.0157	-0.0046	-123.3
0.0007	-0.0233	0.009	-0.0083	-123.3
-0.0023	-0.0181	0.0037	-0.0128	-123.3
-0.003	-0.0128	-0.0015	-0.0068	-123.3
-0.003	0.0225	-0.006	0.0015	-123.3
-0.003	0.066	-0.0053	0.0015	-123.2
-0.0008	0.0367	-0.003	0.0052	-123.2
0.0007	0.0097	-0.0015	0.0045	-123.2
0.0022	0.0142	0.0022	0.0075	-123.2
0.0015	0.0007	0.0037	0.0127	-123.2
0.0045	0.0045	0.0045	0.0165	-123.1
0.0045	0.0037	0.0007	0.0247	-123.1
0.0007	0.0045	-0.0008	0.0165	-123.1
0.0022	0.0007	0.0022	0.0015	-123.1
0.0007	-0.0091	0.0007	-0.0038	-123
0.0007	-0.0083	0.0052	-0.0083	-123
-0.003	-0.0128	0.0067	-0.0091	-123
-0.0046	-0.0105	0.0082	-0.015	-123
-0.003	-0.0165	0.012	-0.0218	-122.9
-0.0068	-0.0195	0.006	-0.0135	-122.9
-0.0038	-0.0195	0.0067	-0.0023	-122.9
-0.0038	-0.0038	0.0045	0.0097	-122.9
-0.0015	0.0232	0.0007	-0.0008	-122.8
0.0007	0.0187	-0.0015	-0.0053	-122.8
0.0007	-0.0068	-0.0105	0.0007	-122.7
0.0037	-0.0315	-0.0113	-0.0053	-122.7
0.0007	-0.0195	-0.0091	0.0007	-122.6
0.003	0.0157	-0.0046	-0.003	-122.6
0.0015	0.0292	0.0007	0.0045	-122.6
0.0015	0.0217	0.003	0.015	-122.5
0.0015	0.0045	0.0067	0.0015	-122.5
-0.0015	-0.0015	0.0075	-0.003	-122.4
0.0022	-0.0053	0.0067	-0.0135	-122.4
-0.0038	-0.0075	0.0045	-0.015	-122.4
0.0007	-0.0075	0.003	0.015	-122.4
0.003	-0.0181	0.0052	0.0382	-122.3
-0.003	-0.0181	0.0045	0.0217	-122.3
0.0037	-0.003	0.0052	0.0022	-122.2
-0.0023	0.0195	0.0037	-0.0143	-122.2
0.0015	0.024	-0.003	-0.03	-122.1
-0.0008	0.009	-0.003	-0.0203	-122
-0.0038	0.0045	-0.0046	-0.0165	-122
0.003	0.0015	-0.0008	-0.0008	-121.9
-0.0023	-0.0128	-0.0008	0.0112	-121.9
0.003	-0.006	-0.0008	0.0127	-121.8
-0.0023	0.0037	0.0007	0.0142	-121.7
-0.0015	-0.0203	-0.0053	0.0157	-121.7
0.0045	-0.0346	-0.0038	0.0345	-121.6
-0.0038	-0.039	-0.0015	0.0232	-121.5
0.0007	-0.0353	0.0015	-0.0046	-121.5
-0.0038	-0.0143	0.009	-0.0233	-121.4
-0.0053	0.0427	0.009	-0.0323	-121.4
-0.0046	0.096	0.012	-0.0256	-121.3
-0.0098	0.0555	0.012	-0.0128	-121.2
-0.003	0.0127	0.0112	0.0007	-121.2
-0.0046	0.0127	0.0135	0.0105	-121.1
-0.0008	0.009	0.0127	0.006	-121.1
0.0022	0.0007	0.0127	-0.003	-121
-0.0008	-0.0083	0.0052	-0.0046	-120.9
0.0015	-0.0083	-0.0015	-0.0068	-120.8
-0.003	-0.0091	-0.006	-0.003	-120.7
-0.0015	-0.0098	-0.012	-0.003	-120.7
-0.0046	-0.0083	-0.0113	-0.0105	-120.6
-0.0068	-0.012	-0.012	-0.0091	-120.5
-0.0015	-0.0383	-0.0113	-0.0068	-120.4
-0.0046	-0.0743	-0.0083	0.0015	-120.3
-0.0008	-0.0525	-0.006	0.0075	-120.2
-0.0008	0.009	0.0015	0.009	-120.2
-0.0023	0.0592	0.0052	0.0015	-120.1
0.0045	0.039	0.0097	0.0007	-120
0	-0.0233	0.015	0.0075	-119.9
0.0007	-0.0038	0.0127	-0.0075	-119.8
0	0.042	0.012	-0.0195	-119.7
-0.0046	0.0367	0.0052	-0.0195	-119.7
-0.0015	0.0232	0.0015	-0.0128	-119.6
-0.0053	0.0082	0.0045	-0.0083	-119.5
-0.0008	-0.0285	0.0015	-0.0053	-119.4
0.0015	-0.0458	0.0015	-0.0046	-119.3
0.0007	-0.0315	-0.0015	-0.0128	-119.3
0.0052	0.009	-0.0023	-0.0105	-119.2
0.0015	0.0615	-0.0008	0.012	-119
-0.0008	0.0315	0	0.0367	-118.9
0	0.0022	0.0015	0.033	-118.8
-0.0023	-0.003	0.0007	0.0285	-118.8
-0.0015	-0.0293	0.0007	0.0217	-118.6
-0.0015	-0.006	-0.0046	0.0007	-118.5
-0.0008	0.0195	-0.0015	-0.0105	-118.4
-0.0008	0.0165	0.0007	-0.0053	-118.3
0.0015	-0.0008	-0.0015	0.0127	-118.2
0.003	-0.0143	0.0007	0.027	-118.1
-0.0008	-0.0083	0.0007	0.0382	-118
-0.003	0.0075	0.0052	0.0225	-117.9
-0.0053	0.0052	0.0045	-0.0218	-117.8
-0.0053	-0.024	0.003	-0.0375	-117.7
-0.0038	-0.0278	0.0045	-0.033	-117.6
-0.0008	-0.003	0.0007	-0.0256	-117.5
-0.0023	0.0187	0.0037	-0.0105	-117.4
-0.0023	0.0255	-0.0008	0.0052	-117.3
0.0007	0.003	-0.003	0.0232	-117.2
0.0052	-0.0083	0.0015	0.0277	-117.1
0.0105	-0.0015	0.0052	0.021	-117
0.0082	-0.0158	0.009	0.006	-116.8
0.0045	-0.039	0.0075	-0.0046	-116.7
-0.0008	-0.0511	0.0052	-0.0181	-116.6
-0.006	-0.0465	-0.0008	-0.033	-116.5
-0.0068	-0.0181	-0.0015	-0.0218	-116.3
-0.0083	0.0382	-0.003	-0.021	-116.2
-0.0068	0.0607	-0.0083	-0.0143	-116.1
-0.0075	0.024	-0.0038	-0.0053	-116
-0.0053	-0.0023	-0.0023	-0.006	-115.9
-0.0046	-0.0083	0.0037	0.0052	-115.7
-0.0023	-0.012	0.0067	0.0045	-115.6
-0.0008	0.006	0.0015	0.0015	-115.5
-0.0008	0.012	0.0022	-0.0098	-115.4
-0.0008	-0.0008	-0.003	-0.0075	-115.2
-0.003	-0.0158	-0.003	0.0052	-115.1
-0.0023	-0.0203	-0.0008	0.012	-115
-0.003	-0.0135	-0.003	0.0292	-114.9
-0.0015	-0.015	-0.0015	0.045	-114.8
0.0045	-0.015	-0.003	0.0532	-114.6
0.003	-0.012	-0.0023	0.0352	-114.5
0.0037	-0.0158	-0.0023	0.0142	-114.3
0.0015	0.0135	0	-0.0128	-114.2
-0.0015	0.0232	0.0015	-0.039	-114
-0.0008	-0.0668	0.0022	-0.0346	-113.9
-0.003	-0.0758	0.0045	-0.024	-113.8
-0.0008	0.039	0.003	-0.0233	-113.6
0.0015	0.1035	0.006	-0.0195	-113.5
0.0052	0.0952	0.0067	-0.0015	-113.4
0.0052	0.0202	0.0082	0.009	-113.2
0.0007	-0.0315	0.012	0.009	-113.1
0.0007	-0.0165	0.0105	-0.0053	-113
-0.003	0.0105	0.012	-0.0248	-112.8
-0.0015	0.0592	0.0142	-0.0375	-112.6
-0.003	0.0345	0.0097	-0.039	-112.5
-0.0053	-0.0323	0.0067	-0.012	-112.4
-0.0008	-0.0165	0.0015	0.0022	-112.2
-0.0015	0	-0.0015	0.0112	-112.1
0.0007	0.0015	-0.0046	0.0202	-112
0	0.0082	-0.0083	0.0082	-111.8
-0.0008	-0.0181	-0.0075	0.0007	-111.6
0.0022	-0.033	-0.0075	0.0052	-111.5
-0.0015	-0.0368	-0.0053	0.0135	-111.4
-0.0008	-0.0203	-0.003	0.0067	-111.2
-0.0053	0.0045	-0.003	0.027	-111.1
-0.0038	0.0045	0.0015	0.063	-110.9
-0.0023	-0.006	-0.0008	0.054	-110.8
-0.0046	-0.042	0.0007	0.0322	-110.7
-0.0008	-0.0653	0.0022	0.009	-110.5
-0.0046	-0.0563	0.0007	-0.0233	-110.4
-0.0008	-0.012	0.0007	-0.0338	-110.2
-0.0015	0.0502	-0.0023	-0.0218	-110.1
-0.0023	0.0427	-0.0015	-0.0128	-109.9
-0.0015	0.0457	0.0015	-0.0158	-109.8
-0.0046	0.027	0.0045	-0.0203	-109.7
0.0007	-0.0278	0.009	-0.0248	-109.5
-0.0023	-0.0346	0.0105	-0.0308	-109.4
0.0007	-0.0668	0.0112	-0.0143	-109.2
0.0007	-0.024	0.0105	0.0165	-109.1
0.0007	0.0465	0.0105	0.0262	-108.9
0.0045	0.0652	0.0105	0.027	-108.8
-0.0015	0.066	0.0067	0.0307	-108.6
0.0007	0.0255	0.0052	0.0292	-108.5
-0.0023	0.03	0.0045	0.0097	-108.3
-0.0015	0.0112	0.0015	0.0007	-108.1
-0.0008	-0.0128	-0.0015	-0.0053	-108
-0.0075	-0.0091	-0.0046	-0.0315	-107.8
-0.0008	-0.0195	-0.0053	-0.039	-107.7
-0.0046	-0.0195	0.0007	-0.0285	-107.6
-0.0015	-0.024	0.003	-0.0053	-107.4
0.0015	-0.0165	0.0052	-0.0068	-107.2
-0.0015	-0.0203	-0.0008	-0.0158	-107.1
0.0015	-0.0218	-0.0083	-0.0091	-106.9
-0.003	-0.0173	-0.0105	-0.0128	-106.8
-0.0008	-0.0218	-0.0128	-0.0053	-106.6
-0.0008	-0.0181	-0.0098	-0.003	-106.5
-0.0015	-0.0143	-0.0128	0.003	-106.3
0.0015	-0.006	-0.0105	0.0082	-106.2
0.0007	0.0015	-0.006	0.0007	-106
0.0037	0.012	-0.003	0	-105.8
0.0015	0.009	0.003	0	-105.7
-0.0023	-0.0008	0.0037	0.0045	-105.5
-0.0008	-0.0008	0.006	0.0082	-105.3
-0.003	0.0007	0.006	0.0015	-105.2
-0.003	0.0052	0.0052	-0.0046	-105.1
0.0007	0.009	0.0075	0.0082	-104.9
0.0022	0.0202	0.0052	0.0315	-104.7
0.0022	0.039	0.0082	0.048	-104.6
0.003	0.0532	0.0127	0.0517	-104.4
0.0022	0.048	0.0142	0.0465	-104.3
0.0045	0.036	0.0172	0.0382	-104.1
0.0037	0.027	0.0127	0.0172	-104
0.003	-0.012	0.0105	-0.0113	-103.8
0.003	-0.0361	0.0052	-0.0495	-103.6
-0.0015	-0.0346	0.0037	-0.0728	-103.5
-0.003	-0.0413	-0.0008	-0.0758	-103.3
-0.0068	-0.0218	-0.0083	-0.0638	-103.1
-0.006	-0.0046	-0.0053	-0.0405	-103
-0.0046	0.009	-0.0053	-0.0188	-102.8
-0.0068	0.03	-0.0008	0.003	-102.7
-0.0046	0.0195	0.0037	0.0165	-102.5
-0.0008	0.006	0.0075	0.0187	-102.4
0.0015	-0.0038	0.0105	0.009	-102.2
0.0007	-0.027	0.0105	0.003	-102
-0.0008	-0.021	0.0105	0.0127	-101.9
-0.0023	0.009	0.0052	0.0157	-101.7
-0.0023	0.0082	0.003	0.0112	-101.6
0	0.009	-0.0015	0.0015	-101.4
0.0015	0.0135	-0.0068	0.0007	-101.2
0.003	0.0007	-0.006	0.0052	-101.1
-0.0008	-0.0008	-0.0105	0.0082	-100.9
0.0015	0.0135	-0.0046	0.0142	-100.8
0.0022	0.0532	0.0015	0.0142	-100.6
0.0022	0.033	0.006	0.015	-100.4
0.003	0.0187	0.012	0.0127	-100.3
-0.0015	0.06	0.009	0.009	-100.1
-0.0015	0.0645	0.009	0.0015	-99.9
-0.0075	0.0712	0.003	-0.0113	-99.8
-0.0068	0.0577	-0.0008	-0.0165	-99.6
-0.0008	0.018	-0.0046	-0.0173	-99.4
-0.0008	-0.0091	-0.0128	-0.0098	-99.2
0.0052	-0.0181	-0.0128	-0.0008	-99.1
0.0022	-0.015	-0.012	0.012	-98.9
0.003	-0.0188	-0.0068	0.0202	-98.7
0.0045	-0.015	-0.0008	0.0082	-98.6
0	-0.0046	0.0052	0.0022	-98.4
0.0022	-0.0046	0.0135	0.0075	-98.2
-0.0038	-0.0165	0.0172	0.0157	-98
-0.0023	-0.0143	0.018	0.0202	-97.9
0	-0.0091	0.0202	0.0135	-97.7
-0.0046	-0.0128	0.015	-0.003	-97.5
-0.0046	-0.0233	0.009	-0.0181	-97.3
-0.0083	-0.024	0.003	-0.0091	-97.2
-0.0091	-0.003	-0.0008	-0.0053	-97
-0.0128	-0.0173	-0.0046	-0.0083	-96.8
-0.012	-0.0578	-0.0068	0.0015	-96.7
-0.0068	-0.057	-0.0053	0.0082	-96.5
-0.0008	-0.0368	-0.0083	0.0165	-96.3
0.0105	-0.0278	-0.0075	0.0195	-96.1
0.0172	0.0277	-0.0091	0.009	-95.9
0.0195	0.0952	-0.0098	-0.012	-95.8
0.012	0.0817	-0.0015	-0.0263	-95.6
0.0075	0.042	0.0052	-0.0346	-95.4
0.0052	0.021	0.009	-0.0443	-95.3
-0.0008	-0.0046	0.009	-0.0256	-95.1
0	-0.0158	0.0105	-0.0203	-94.9
-0.0068	-0.0023	0.0075	-0.0203	-94.7
-0.0068	-0.0068	0.0007	-0.0083	-94.5
-0.0068	-0.015	-0.003	-0.0053	-94.4
-0.0091	-0.0308	-0.0098	-0.0053	-94.2
-0.0046	-0.0428	-0.0128	-0.0105	-94
-0.0023	-0.0233	-0.0113	-0.0098	-93.8
-0.0015	-0.0113	-0.0091	-0.0143	-93.6
-0.0053	-0.006	-0.0046	-0.0135	-93.5
-0.0046	-0.003	-0.0023	-0.0091	-93.3
-0.0038	-0.0046	0.0007	-0.003	-93.2
-0.0008	0	0.0052	0.0052	-93
0.0037	-0.003	0.0045	0.0217	-92.8
0.0015	0.0007	0.0052	0.051	-92.6
0.0037	0.0015	0.0015	0.0585	-92.4
0.003	-0.0015	0.0007	0.0397	-92.3
0.0007	-0.003	-0.0008	0.0232	-92.1
0.003	-0.0046	-0.0008	0.0232	-91.9
0	-0.003	0.0015	0.0142	-91.7
-0.0015	-0.0068	0.0007	-0.0015	-91.5
0.0007	-0.0098	0.0082	-0.0083	-91.4
-0.003	-0.0105	0.0067	-0.0143	-91.2
-0.0015	-0.0053	0.006	-0.0143	-91
-0.0008	0.0052	0.0067	-0.0181	-90.9
-0.0008	0.006	0.0067	-0.0203	-90.7
0.0037	-0.0038	0.0105	-0.0218	-90.5
0.0037	-0.0165	0.0082	-0.0256	-90.3
0.0007	-0.0398	0.006	-0.0195	-90.1
-0.0015	-0.0465	-0.0008	-0.0105	-90
-0.0046	-0.0181	0.0015	-0.0008	-89.8
-0.0053	0.0022	0.0015	0.003	-89.6
-0.0046	0.0067	0.0007	0.0052	-89.4
-0.006	0.0142	0.0045	0.012	-89.2
-0.003	0.0232	-0.0015	0.012	-89.1
0	0.0232	0	0.0105	-88.9
-0.0015	0.0232	-0.0008	0.0097	-88.7
-0.003	0.015	-0.0008	0.009	-88.5
-0.0068	0	0.0037	0.0097	-88.3
-0.0083	0.0007	0.0045	0.0097	-88.1
-0.0083	-0.0046	0.006	0.0067	-87.9
-0.0046	-0.0128	0.003	0.0045	-87.8
-0.0008	-0.0135	0.0007	0.0022	-87.6
-0.0015	-0.0158	-0.0015	-0.0023	-87.3
0.0015	-0.027	-0.0008	-0.006	-87.2
0.0007	-0.0361	0.0007	-0.0105	-87
0.003	-0.0256	-0.0008	-0.006	-86.8
0.003	-0.0165	-0.003	-0.0038	-86.6
0.0007	0.0075	-0.006	-0.0068	-86.4
0.0007	0.0405	-0.003	-0.003	-86.3
-0.0046	0.0345	0	0.003	-86
-0.0015	0.0247	0.0045	0.0105	-85.9
-0.0008	0.0307	0.0082	0.012	-85.7
0	0.0165	0.0067	0.0075	-85.5
0.0045	-0.0046	0.006	0.0022	-85.3
0.0052	-0.0218	0.003	-0.0038	-85.1
0.0052	-0.0533	0.0037	-0.0091	-85
0.0037	-0.0638	0.0052	-0.0068	-84.8
0.003	-0.0375	0.006	-0.003	-84.6
0	-0.0188	0.0052	-0.0053	-84.5
0.0015	-0.015	0.0045	-0.0053	-84.3
0.0007	-0.0053	0.006	-0.0046	-84.1
-0.0015	-0.0053	0.0052	0.0007	-83.9
-0.0038	-0.0068	0.0067	0.0007	-83.7
-0.0083	-0.0038	0.006	-0.0053	-83.6
-0.0053	-0.003	0.0045	-0.0091	-83.4
-0.0053	-0.0083	0.0045	-0.0158	-83.2
-0.0046	-0.0181	-0.0008	-0.0105	-83
-0.0038	-0.0083	-0.0008	-0.003	-82.8
-0.0038	0.0067	0.0007	0.0045	-82.7
-0.003	0.0097	0.0045	0.0165	-82.5
-0.006	0.0217	0.0067	0.018	-82.4
-0.0068	0.0225	0.003	0.009	-82.2
-0.0083	-0.0143	0.0015	0.0015	-82
-0.0075	-0.0293	-0.003	0.0007	-81.8
-0.0046	-0.0038	-0.0008	0.006	-81.6
-0.0046	0.003	0.0007	0.015	-81.5
-0.0046	-0.006	-0.0038	0.0165	-81.2
-0.0053	-0.0091	-0.0038	0.0105	-81
-0.0015	-0.0075	-0.0046	0.0082	-80.9
0.0015	0.009	0.0007	0.0105	-80.7
0.0045	0.021	0.0067	0.0037	-80.5
0.009	0.0262	0.009	-0.0046	-80.3
0.009	0.033	0.0157	-0.0075	-80.1
0.009	0.0292	0.0165	-0.0128	-79.9
0.0082	0.0232	0.0157	-0.0165	-79.7
0.006	0.0097	0.0142	-0.0218	-79.6
0.0067	-0.0008	0.0112	-0.0218	-79.4
0.0067	-0.0046	0.009	-0.0173	-79.2
0.0022	-0.0091	0.003	-0.0173	-79
0	-0.012	-0.0015	-0.015	-78.8
-0.0046	-0.0128	-0.0075	-0.0113	-78.6
-0.0098	-0.0105	-0.0105	-0.0053	-78.4
-0.0098	-0.0068	-0.0083	-0.0008	-78.3
-0.0083	-0.003	-0.0105	0.0052	-78.1
-0.0068	-0.003	-0.0105	0.006	-77.9
-0.0015	-0.0105	-0.0098	-0.0105	-77.7
-0.0015	-0.0158	-0.0075	-0.0233	-77.4
0.0007	-0.0046	-0.0046	-0.0165	-77.3
0.0045	0.0052	-0.0038	-0.0068	-77.1
-0.0008	0.006	-0.0015	0	-76.9
-0.0015	0.0082	0.0007	0.0082	-76.7
-0.0068	0.0007	0.003	0.015	-76.5
-0.0053	0.0045	0.0075	0.021	-76.3
0.0007	0.0165	0.0112	0.0262	-76.1
0.0007	0.0082	0.0127	0.0277	-75.9
0.0052	0.0097	0.0112	0.0285	-75.7
0.0075	0.0165	0.009	0.0307	-75.5
0.0112	0.0157	0.0037	0.0322	-75.3
0.0112	0.0112	-0.0015	0.0262	-75.1
0.0097	0.0067	-0.0015	0.021	-74.9
0.0067	0.0097	0.0082	0.0142	-74.7
0.003	0.009	0.0157	-0.0015	-74.5
-0.0008	0.0015	0.0157	-0.0128	-74.3
-0.0046	-0.0008	0.0097	-0.0218	-74.1
-0.0046	0.0045	0.003	-0.027	-73.9
-0.0075	-0.0075	-0.0046	-0.0195	-73.7
-0.0105	-0.0083	-0.015	-0.0143	-73.5
-0.012	-0.0068	-0.0233	-0.0248	-73.3
-0.0128	-0.0135	-0.0285	-0.0278	-73.1
-0.0053	-0.003	-0.0248	-0.0203	-72.9
-0.0046	-0.0046	-0.0188	-0.0256	-72.8
0.0015	-0.0046	-0.0105	-0.0263	-72.5
0.0082	-0.0023	-0.0015	-0.0225	-72.4
0.009	0.0007	0.0052	-0.0091	-72.2
0.0105	0.0075	0.0142	0.0045	-72
0.0052	0.006	0.0142	-0.0023	-71.8
0.0007	0.003	0.018	-0.0083	-71.6
-0.0053	0.0082	0.0217	-0.0015	-71.4
-0.0098	0.0255	0.018	0.0052	-71.2
-0.0113	0.027	0.0142	0.0045	-71
-0.0105	0.0142	0.0052	0.009	-70.8
-0.0091	-0.006	0.0037	0.0127	-70.6
-0.0091	-0.0308	-0.0008	0.0187	-70.4
-0.0091	-0.0293	-0.0008	0.0322	-70.2
-0.006	-0.003	-0.0008	0.0427	-70
0	0.027	-0.0023	0.0345	-69.8
0.0015	0.0255	0.0015	0.0217	-69.7
0.0067	0.0075	0.0022	0.0217	-69.4
0.0067	0.0247	0.0082	0.0142	-69.3
0.0052	0.0277	0.0082	0.0067	-69.1
0.0007	-0.0091	0.0075	0.0142	-68.9
-0.0046	-0.0248	0.0045	0.0307	-68.7
-0.0038	-0.015	-0.0015	0.042	-68.4
-0.0068	-0.015	0	-0.0015	-68.3
-0.0053	-0.021	-0.0053	-0.0458	-68.1
-0.0053	-0.0068	0	-0.0315	-67.9
-0.006	0.0015	0.0052	-0.039	-67.7
-0.0046	-0.0143	0.009	-0.0405	-67.5
-0.0046	-0.0173	0.012	-0.03	-67.3
0	-0.0068	0.0067	-0.0315	-67.1
-0.0015	-0.0046	0.0082	-0.0181	-66.9
-0.003	0	0.0022	-0.0195	-66.7
-0.003	0.0015	-0.0008	-0.0158	-66.5
0	0.0015	-0.003	-0.015	-66.3
0.003	0.0045	-0.0053	-0.0128	-66.1
0.0067	0.003	-0.0015	-0.0015	-65.9
0.0105	0.0075	-0.003	0	-65.7
0.0052	0.0195	0.0007	0.0075	-65.5
0.003	0.0307	0.0007	0.009	-65.3
-0.0038	0.0195	-0.0015	0.0127	-65.1
-0.0105	0.0022	0	0.0142	-64.9
-0.0083	-0.0113	-0.0046	0.0067	-64.7
-0.006	-0.0278	-0.0046	0.0045	-64.5
-0.0015	-0.0285	-0.0128	0.0015	-64.4
0.003	-0.012	-0.0143	0.0052	-64.1
0.006	0.0052	-0.0091	0.0097	-63.9
0.009	0.0127	-0.0083	0.012	-63.7
0.0075	0.0105	-0.0046	0.012	-63.5
0.0045	-0.0008	-0.003	0.0112	-63.4
0.0015	-0.0068	0.0045	0.012	-63.1
-0.0015	0.0052	0.0075	0.0165	-63
-0.003	0.018	0.0082	0.0165	-62.7
-0.0046	0.0232	0.0097	0.0142	-62.6
-0.003	0.0247	0.0067	0.0127	-62.4
-0.0008	0.0217	0.0105	0.0052	-62.2
-0.0008	0.0112	0.0165	0.003	-62
0.0022	-0.0023	0.0165	0	-61.8
-0.0008	-0.006	0.018	-0.0075	-61.6
0.0007	-0.0023	0.0127	-0.0068	-61.4
0	0.0022	0.006	-0.0105	-61.2
-0.0023	0.0052	-0.0008	-0.0143	-61
-0.0053	-0.0053	-0.0165	-0.015	-60.8
-0.0091	-0.0113	-0.0225	-0.015	-60.6
-0.0091	-0.0091	-0.0278	-0.0165	-60.4
-0.0091	-0.0113	-0.024	-0.0195	-60.3
-0.0068	-0.0091	-0.0173	-0.0165	-60.1
-0.0053	-0.0083	-0.0091	-0.0173	-59.9
-0.0068	-0.0068	0.0052	-0.0218	-59.7
-0.0038	-0.0046	0.0097	-0.0195	-59.5
-0.003	-0.0046	0.0142	-0.012	-59.3
0.0007	0	0.0127	-0.006	-59.1
0.003	-0.0008	0.009	-0.0015	-58.9
0.0067	-0.0008	0.0052	0.0045	-58.7
0.0105	0.0037	-0.0015	0.0082	-58.5
0.0097	0.0022	-0.0008	0.0082	-58.3
0.0127	-0.0008	-0.003	0.012	-58.1
0.009	-0.0046	0.0007	0.0127	-58
0.0037	-0.0053	0.0052	0.0135	-57.7
-0.0008	-0.003	0.003	0.012	-57.6
-0.0053	-0.0038	0.0045	0.012	-57.4
-0.0046	0.0007	0.0052	0.0142	-57.2
-0.0053	0.0037	0.0105	0.009	-57
-0.0075	0	0.0105	0.0045	-56.8
-0.0105	0.0015	0.0105	0.0045	-56.6
-0.0113	-0.0008	0.0082	0.0067	-56.4
-0.0083	-0.0046	-0.0008	0.0052	-56.2
-0.0091	-0.0023	-0.0023	0.0037	-56
-0.0098	0.0015	-0.0038	0.0037	-55.8
-0.0046	0.003	-0.003	0.0015	-55.6
-0.0023	0.012	0.0067	0.0045	-55.4
-0.0008	0.0232	0.0157	0.0015	-55.3
0.0022	0.0127	0.0195	-0.0038	-55
0.0045	-0.0008	0.0172	-0.0075	-54.9
0.0067	-0.0135	0.0105	-0.0083	-54.7
0.0067	-0.0233	0.0022	-0.0075	-54.5
0.0105	-0.0195	-0.0053	-0.0068	-54.3
0.0037	-0.012	-0.0105	-0.0046	-54.1
0.0015	-0.0046	-0.0053	-0.0053	-53.9
0.0015	-0.0015	-0.003	-0.0046	-53.7
0.0007	-0.0008	-0.003	-0.0053	-53.5
0.003	-0.0023	0	-0.003	-53.3
0.0007	-0.0083	-0.006	-0.0008	-53.1
0.0045	-0.0113	-0.012	-0.0008	-52.9
-0.0008	-0.0091	-0.0165	0	-52.7
-0.0015	-0.0068	-0.0188	-0.0023	-52.5
-0.0015	-0.0046	-0.012	-0.0038	-52.3
-0.0068	-0.003	-0.006	-0.0046	-52.1
-0.003	-0.0015	0.0082	-0.0015	-51.9
-0.0083	-0.0008	0.0165	0.0015	-51.7
-0.0083	-0.0023	0.018	0.006	-51.5
-0.0068	-0.0091	0.0195	0.009	-51.3
-0.0075	-0.0098	0.0157	0.0105	-51.1
0.0007	0.006	0.0187	0.015	-50.9
-0.003	0.0315	0.0195	0.0135	-50.8
-0.0008	0.0435	0.015	0.0097	-50.5
-0.0008	0.0307	0.0105	0.0082	-50.4
0.0007	0.0112	0.0022	0.0082	-50.2
0.0037	-0.0068	-0.0053	-0.0075	-50
0.0015	-0.024	-0.0105	-0.033	-49.8
0.0082	-0.0128	-0.0105	-0.0315	-49.6
0.0022	-0.0015	-0.0053	-0.0203	-49.4
-0.0008	0.0037	0.0007	-0.015	-49.2
-0.0038	0.0015	0.006	-0.006	-49
-0.0091	-0.0158	0.0105	0.0015	-48.8
-0.0083	-0.0165	0.012	0.006	-48.6
-0.0098	-0.0105	0.009	0.0097	-48.4
-0.0053	0.006	0.0067	0.0165	-48.2
-0.0053	0.0277	0.0007	0.018	-48
-0.0075	0.0337	-0.0038	0.0165	-47.8
-0.0075	0.0232	-0.0091	0.0142	-47.7
-0.0046	0.0127	-0.012	0.0082	-47.5
0.0075	0.0067	-0.0053	0.006	-47.3
0.015	0.0067	-0.0046	-0.0015	-47.1
0.0262	0.0052	-0.003	-0.0173	-46.8
0.0345	-0.0015	0.0015	-0.0256	-46.7
0.0315	-0.003	0.0007	-0.0165	-46.4
0.0255	-0.0068	0.0007	-0.012	-46.3
0.012	-0.0083	0.0022	-0.0091	-46
0.0022	-0.0008	0.0052	0	-45.9
-0.0023	-0.0015	0.012	0.003	-45.6
-0.006	-0.003	0.0195	0.0037	-45.5
-0.0098	-0.006	0.021	0.0015	-45.2
-0.0173	-0.0105	0.0187	-0.0053	-45
-0.0195	-0.0075	0.0142	-0.003	-44.8
-0.0173	0.0007	0.0075	0.0022	-44.6
-0.0128	0.0045	0.006	0.003	-44.4
-0.0053	0.0052	0.0037	0.0015	-44.2
-0.0015	0.0045	-0.0038	0.0015	-44
0	-0.0046	-0.0105	0.003	-43.8
0.0007	-0.0143	-0.0165	0.0037	-43.6
-0.0008	-0.0128	-0.0256	0.0045	-43.4
0.0007	-0.0015	-0.0285	0.0015	-43.2
-0.0015	0.0067	-0.0233	-0.0008	-43
-0.0008	0.0075	-0.0158	-0.0015	-42.8
0.0015	0.0067	-0.0075	-0.0008	-42.5
-0.0075	-0.0008	0.0007	0.0007	-42.3
-0.0158	-0.0053	0.0082	-0.0015	-42.1
-0.0218	-0.0098	0.0135	0	-41.9
-0.0195	-0.0068	0.0165	0.0022	-41.7
-0.0173	0	0.0247	0.0015	-41.4
-0.0158	-0.003	0.027	0.0015	-41.2
-0.0053	-0.0075	0.0255	0.003	-41
0.0067	-0.0046	0.0157	0.0007	-40.8
0.0195	-0.0008	0	-0.0008	-40.6
0.0285	0.003	-0.012	0.0015	-40.4
0.0367	0.006	-0.0323	-0.0008	-40.1
0.0352	0.0015	-0.0405	0	-39.9
0.0292	0.0052	-0.0353	0.0022	-39.7
0.0217	0.0127	-0.0233	0.0015	-39.5
0.0015	0.0082	-0.0038	0.0045	-39.3
-0.0128	0	0.012	0.006	-39.1
-0.0188	-0.0083	0.0255	0.003	-38.8
-0.0203	-0.0181	0.0277	-0.003	-38.6
-0.0158	-0.0181	0.0345	-0.0053	-38.4
-0.0143	-0.0128	0.0277	-0.0015	-38.2
-0.0128	-0.0128	0.0217	0.0015	-37.9
-0.0091	-0.0105	0.0187	0.003	-37.7
-0.006	-0.0075	0.0067	0.0022	-37.5
-0.0038	-0.0053	0.0045	-0.003	-37.3
-0.0083	0.0007	-0.0068	-0.0053	-37
-0.0105	0.0022	-0.0075	-0.0023	-36.8
-0.0105	0.0007	-0.006	-0.0008	-36.6
-0.0053	-0.003	-0.0083	0.0007	-36.3
0.0007	-0.0128	0	0.0015	-36.1
0.012	-0.012	0.003	0.0015	-35.9
0.0195	-0.003	0.0097	0.0007	-35.6
0.0225	0.003	0.009	0.0022	-35.4
0.0225	0.0067	0.003	0.003	-35.2
0.0127	0.003	0.0022	0.0015	-35
0.0015	-0.0046	0.0015	-0.003	-34.7
-0.0165	-0.0091	0.0067	-0.0158	-34.5
-0.0256	-0.0068	-0.0015	-0.0188	-34.3
-0.03	-0.0046	-0.0083	-0.0105	-34.1
-0.0346	-0.003	-0.0098	-0.0053	-33.8
-0.0293	0.003	-0.0091	0	-33.6
-0.0225	0.0082	0.0022	0.0082	-33.3
-0.0083	0.0052	0.0052	0.0112	-33.1
-0.0008	0.0015	0.012	0.012	-32.9
-0.0015	-0.0038	0.0112	0.0082	-32.7
-0.012	-0.0083	0.0165	0.0037	-32.4
-0.027	-0.0046	0.0217	-0.0023	-32.2
-0.0315	-0.0008	0.015	-0.012	-32
-0.0413	0	0.0187	-0.0091	-31.7
-0.0428	0.0045	0.0097	0.0037	-31.5
-0.039	0.0037	0.021	0.0075	-31.3
-0.0188	-0.0008	0.0457	0.0097	-31
0.0202	-0.003	0.0465	0.0075	-30.8
0.0615	-0.0008	0.042	-0.0015	-30.6
0.108	0.0015	0.0142	-0.0083	-30.3
0.132	-0.0023	-0.027	-0.0181	-30.1
0.141	-0.003	-0.0593	-0.0143	-29.8
0.1215	-0.0046	-0.0758	-0.0068	-29.6
0.0675	-0.003	-0.0833	-0.0015	-29.4
0.018	0.0007	-0.0885	0.0045	-29.2
-0.0368	0.0015	-0.0713	0.0007	-28.9
-0.0706	0.003	-0.054	0.0052	-28.7
-0.075	0.0022	-0.03	0.0067	-28.4
-0.0765	0.0007	-0.0008	0.0045	-28.2
-0.0578	0.0015	0.027	0.006	-28
-0.0458	0.0037	0.0607	0.003	-27.8
-0.0346	0.0007	0.0727	0	-27.5
-0.0203	0.003	0.078	-0.0015	-27.3
-0.021	0.003	0.078	0.0007	-27
-0.0098	0.0015	0.057	-0.003	-26.8
-0.006	0.0037	0.0307	-0.0038	-26.6
0.003	0.0052	0.0052	0	-26.3
0.0105	0.0097	-0.0181	0.0045	-26.1
0.006	0.0142	-0.0465	0.0105	-25.9
0.006	0.0127	-0.0533	0.006	-25.7
-0.0105	0.0067	-0.0353	-0.0008	-25.4
-0.027	0.0015	-0.0143	-0.0046	-25.2
-0.0398	0.003	0.0007	-0.0053	-24.9
-0.0398	0.0045	0.0045	-0.0015	-24.7
-0.024	0.0037	-0.003	0.006	-24.5
-0.006	0.0037	-0.0195	0.0067	-24.3
0.0225	0.0015	-0.0315	0.0045	-24
0.048	0.003	-0.0346	0.0082	-23.8
0.0652	0.003	-0.027	0.0052	-23.6
0.072	-0.003	-0.0165	-0.0015	-23.4
0.0667	-0.003	-0.003	-0.0053	-23.1
0.0472	-0.0038	0.012	-0.0068	-22.9
0.0187	-0.0023	0.0232	-0.0135	-22.7
-0.0075	-0.0046	0.042	-0.0195	-22.5
-0.0361	-0.003	0.0622	-0.0105	-22.3
-0.039	0.0045	0.072	-0.003	-22.1
-0.0293	0.0052	0.0615	0.0015	-21.8
-0.0188	0.0052	0.048	0.0067	-21.6
0.0015	0.0045	0.033	0.009	-21.4
0.0165	0.0045	0.0112	0.012	-21.2
0.0315	0.0045	-0.0075	0.0112	-20.9
0.027	0.003	-0.0218	-0.0008	-20.7
0.012	0.0015	-0.033	-0.0113	-20.5
-0.0083	-0.003	-0.0518	-0.0165	-20.3
-0.03	-0.0046	-0.063	-0.0181	-20.1
-0.027	-0.0046	-0.0578	-0.0128	-19.9
-0.0293	-0.0015	-0.0375	-0.003	-19.8
-0.0203	0.0015	-0.0113	0.0045	-19.6
-0.0113	0.0037	0.009	0.0082	-19.4
-0.012	0.0052	0.0285	0.0112	-19.2
0.0015	0.0067	0.045	0.012	-19
0.0037	0.0075	0.0502	0.0105	-18.9
0.0105	0.0045	0.0442	0.003	-18.7
0.003	0.003	0.033	-0.0098	-18.5
-0.0091	0.0015	0.021	-0.0256	-18.4
-0.0091	-0.0008	-0.0015	-0.024	-18.2
-0.0181	0.003	-0.0173	-0.0083	-18
-0.0143	0.0045	-0.024	-0.003	-17.9
-0.0225	0.0037	-0.0315	0.0015	-17.7
-0.0368	0.0037	-0.0165	0.003	-17.5
-0.0533	0.0037	-0.003	0.0052	-17.3
-0.063	0.003	0.0142	0.0097	-17.2
-0.0443	0	0.0315	0.006	-17
-0.0225	-0.0008	0.0315	0.0075	-16.8
0.0195	0.0007	0.0435	0.0045	-16.8
0.0607	0.0007	0.042	0.0007	-16.7
0.084	-0.0008	0.0427	0	-16.7
0.0705	-0.0008	0.0397	-0.0038	-16.7
0.0315	-0.0015	0.0195	-0.006	-16.6
0.0127	-0.0015	0.0007	-0.0091	-16.6
-0.0105	0.0007	-0.0203	-0.0068	-16.5
-0.0188	0.0037	-0.033	-0.0015	-16.5
-0.0218	0.0052	-0.0428	0.0037	-16.4
-0.0346	0.003	-0.045	0.003	-16.4
-0.048	0.0007	-0.0495	0.0052	-16.4
-0.0728	0.0015	-0.0555	0.0105	-16.3
-0.0721	0.0037	-0.0458	0.0127	-16.3
-0.054	0.0067	-0.0128	0.0142	-16.2
-0.003	0.0082	0.063	0.0127	-16.2
0.0757	0.0052	0.12	0.0067	-16.2
0.1305	0.003	0.1387	-0.0053	-16.1
0.1552	0.0015	0.1552	-0.0233	-16.1
0.1387	0.0015	0.114	-0.0233	-16
0.09	0.0022	0.0442	-0.0105	-16
0.0352	0.0045	-0.0256	-0.0083	-16.2
-0.0046	0.0052	-0.1065	-0.003	-16.4
-0.027	0.0022	-0.1388	-0.0008	-16.7
-0.0383	0.0015	-0.156	0.003	-16.9
-0.0495	0.003	-0.1373	0.0082	-17.1
-0.0615	0.0037	-0.0818	0.0015	-17.4
-0.0555	0.0007	-0.027	-0.0015	-17.6
-0.0525	-0.0023	0.0127	-0.0046	-17.8
-0.0308	-0.0008	0.0195	-0.0053	-18
-0.0091	-0.0023	0.0442	-0.0098	-18.3
-0.0015	-0.0038	0.0727	-0.0158	-18.5
0.015	-0.0038	0.0877	-0.0083	-18.8
0.0232	-0.0046	0.0825	0.0007	-19
0.039	-0.003	0.0525	0.0075	-19.2
0.0375	-0.0068	0.0172	0.0052	-19.5
0.018	-0.0091	-0.027	-0.0008	-19.7
0.0067	-0.0083	-0.0548	0.003	-19.9
-0.0053	-0.0091	-0.0615	0.0022	-20.2
-0.0008	-0.012	-0.0555	-0.0008	-20.4
0.0022	-0.0128	-0.0465	0.0007	-20.7
0	-0.0128	-0.0443	-0.003	-20.8
0.0015	-0.0135	-0.0375	-0.0008	-20.9
-0.0015	-0.0158	-0.0263	-0.0015	-21
0.0015	-0.0158	-0.021	0	-21.1
0.0082	-0.015	-0.0308	0.0045	-21.2
0.0157	-0.0158	-0.0308	0.0045	-21.4
0.0142	-0.0165	-0.0195	0.0045	-21.5
0.009	-0.0181	-0.012	-0.0015	-21.6
0.006	-0.0188	-0.0008	-0.0015	-21.7
0.0015	-0.0181	0.0052	0.0007	-21.8
-0.0046	-0.0165	-0.0008	0.0007	-22
-0.0143	-0.0143	-0.0046	0	-22.1
-0.0195	-0.0143	-0.0083	-0.0008	-22.2
-0.0233	-0.015	-0.0046	-0.0008	-22.3
-0.0256	-0.015	0.0022	-0.0046	-22.4
-0.027	-0.015	0.012	-0.0008	-22.5
-0.027	-0.0143	0.0307	0.003	-22.6
-0.021	-0.0143	0.0435	0.003	-22.8
-0.0195	-0.0143	0.0457	0.0022	-22.9
-0.0158	-0.0143	0.0315	0.0022	-23
-0.0165	-0.0135	0.012	0.003	-22.9
-0.0143	-0.0135	-0.0128	0.003	-22.7
-0.0091	-0.0128	-0.0368	0.0045	-22.5
-0.012	-0.012	-0.0488	0.0052	-22.4
-0.0105	-0.0128	-0.0458	0.003	-22.2
-0.012	-0.0143	-0.0165	0.0007	-22.1
-0.0128	-0.0128	0.003	0.0022	-21.9
-0.0143	-0.0135	0.0217	0.0037	-21.8
-0.0173	-0.0158	0.03	0.0022	-21.6
-0.0143	-0.0173	0.0307	0.0052	-21.4
-0.0165	-0.0165	0.0382	0.0052	-21.3
-0.0188	-0.0158	0.0307	0.0067	-21.1
-0.0203	-0.0158	0.0277	0.0082	-21
-0.0256	-0.0143	0.0187	0.0067	-20.8
-0.0375	-0.015	0.0195	0.0067	-20.7
-0.0488	-0.012	0.0195	0.0045	-20.5
-0.0353	-0.0091	0.0217	0.0082	-20.3
-0.024	-0.0091	0.0307	0.009	-20.2
-0.0053	-0.0068	0.024	0.0067	-20
0.0217	-0.0075	0.024	0.0037	-19.8
0.0405	-0.006	0.0165	0.0007	-19.8
0.0615	-0.0046	0.0127	0.0007	-19.7
0.0682	-0.0053	0.0195	0.0015	-19.6
0.0772	-0.0038	0.0202	-0.0015	-19.5
0.0765	-0.003	0.0277	-0.0075	-19.4
0.0442	-0.0038	0.0277	-0.0053	-19.3
0.0157	-0.0008	0.0307	-0.0046	-19.2
-0.0091	0.0022	0.0345	-0.0008	-19.1
-0.0181	0.0007	0.0307	0.0007	-19
-0.0143	0.0022	0.0255	0.0015	-18.9
-0.0165	0.003	0.0187	0.0052	-18.8
-0.0158	0.006	0.0105	0.006	-18.7
-0.0128	0.0067	-0.0038	0.009	-18.6
-0.0083	0.0075	-0.0165	0.009	-18.5
-0.0046	0.009	-0.0383	0.0112	-18.5
-0.0091	0.006	-0.0548	0.012	-18.4
-0.015	0.0082	-0.0495	0.0067	-18.3
-0.0203	0.0097	-0.0405	0.0045	-18.2
-0.0248	0.0105	-0.0256	0.0007	-18.1
-0.027	0.015	-0.0091	-0.006	-18
-0.0256	0.018	0.0045	-0.0308	-18
-0.024	0.018	0.0165	-0.0443	-18
-0.0158	0.0202	0.0202	-0.024	-17.9
-0.0053	0.0217	0.0217	-0.0128	-17.9
0.006	0.0255	0.0172	-0.0046	-17.9
0.0127	0.0345	0.0082	0.003	-17.9
0.0217	0.0405	0.0022	-0.0015	-17.9
0.0292	0.0465	-0.0008	0.0022	-17.8
0.0232	0.0532	-0.0046	0.0007	-17.8
0.0135	0.057	-0.0068	0.0037	-17.8
0.0052	0.0592	-0.0008	0.0045	-17.7
0.0037	0.0592	0.0157	0.0022	-17.7
-0.0008	0.063	0.03	0.0052	-17.7
0.0015	0.0705	0.0277	0.003	-17.7
0.0157	0.078	0.0232	-0.0015	-17.6
0.027	0.0832	0.0067	-0.0105	-17.6
0.039	0.084	-0.0195	-0.0091	-17.6
0.0405	0.0802	-0.0338	-0.0023	-17.6
0.0405	0.075	-0.0398	-0.0046	-17.6
0.03	0.0712	-0.0315	-0.0068	-17.6
0.0105	0.072	-0.0218	-0.0105	-17.5
0.0015	0.0772	-0.003	-0.0068	-17.5
-0.0083	0.0795	0.018	-0.0046	-17.5
-0.0143	0.0795	0.021	-0.0053	-17.5
-0.0218	0.075	0.018	-0.0023	-17.4
-0.027	0.0705	0.0157	-0.0023	-17.4
-0.0248	0.0675	0.009	-0.003	-17.4
-0.0195	0.0645	0.0037	-0.0046	-17.4
-0.0105	0.0637	0.0015	-0.0068	-17.4
-0.0046	0.06	-0.0015	-0.0068	-17.3
0	0.057	-0.0015	-0.003	-17.3
-0.0008	0.051	-0.0075	0.0007	-17.3
0.0007	0.0442	-0.0053	0.0015	-17.2
0.0007	0.0382	-0.0008	0.0022	-17.2
-0.0015	0.0232	-0.0046	-0.0008	-17.2
0.0007	0.0127	-0.0015	-0.0008	-17.2
0.0022	0.0037	-0.0083	-0.003	-17.2
0.0037	-0.0098	-0.0068	-0.0046	-17.1
0.0015	-0.0195	-0.003	0.0007	-17.1
0.0045	-0.0233	0.0022	0.0022	-17.1
0.0097	-0.0346	0.0082	0.0015	-17.1
0.0082	-0.045	0.003	0.0007	-17
0.0112	-0.0458	0.0045	-0.0023	-17
0.0075	-0.0578	-0.0015	-0.0046	-16.9
0.003	-0.0668	-0.003	-0.0046	-16.8
0.0022	-0.0675	-0.0053	-0.0046	-16.8
-0.0015	-0.0743	-0.0091	-0.003	-16.7
0	-0.075	-0.012	-0.0008	-16.7
-0.0008	-0.0743	-0.0203	0.003	-16.7
0.0045	-0.0773	-0.0165	0.003	-16.6
0.006	-0.0825	-0.0158	0.0022	-16.6
0.0052	-0.0878	-0.012	0.0007	-16.5
0.0112	-0.0893	-0.0091	-0.003	-16.5
0.0082	-0.0915	-0.0098	-0.0015	-16.4
0.009	-0.0893	-0.0053	-0.0038	-16.3
0.0045	-0.0871	-0.0128	-0.0046	-16.3
-0.0046	-0.081	-0.015	-0.0015	-16.2
-0.0015	-0.075	-0.012	0	-16.2
-0.0105	-0.0743	-0.0068	0.0037	-16.2
-0.0105	-0.0691	0.0067	0.0007	-16.1
-0.0128	-0.0713	0.012	-0.0008	-16.1
-0.0195	-0.0728	0.0217	-0.0008	-16
-0.0105	-0.0691	0.0247	0.0015	-15.9
-0.0128	-0.063	0.018	0.0015	-15.8
-0.0091	-0.0555	0.0157	-0.0008	-15.8
-0.012	-0.0495	0.0105	0.0015	-15.7
-0.0158	-0.0443	0.0067	0.0015	-15.7
-0.0105	-0.0413	0.0045	0.0022	-15.6
-0.012	-0.0368	0.0052	0.0052	-15.5
-0.0008	-0.033	0.0052	0.0045	-15.4
0	-0.0285	0.0052	0.0022	-15.4
-0.0008	-0.0256	0.0037	-0.0015	-15.3
0.0022	-0.0195	0	0.0015	-15.3
-0.0075	-0.0128	0.003	0.0022	-15.2
-0.0083	-0.012	0.003	0.0022	-15.1
-0.0143	-0.0105	0.0075	0.0045	-15.1
-0.0181	-0.0075	0.0075	0.0015	-15
-0.0158	-0.0091	0.0082	0	-14.9
-0.021	-0.0083	0.0127	-0.0023	-14.9
-0.0195	-0.0083	0.0165	-0.0008	-14.8
-0.0233	-0.012	0.0232	-0.0008	-14.8
-0.024	-0.0105	0.0217	-0.0015	-14.7
-0.0218	-0.0091	0.018	-0.0008	-14.7
-0.0218	-0.0075	0.0127	0.0022	-14.6
-0.0053	-0.0046	0.0045	0.0045	-14.5
0.009	-0.0053	0.006	0.0007	-14.5
0.027	-0.0038	0.0052	0.0015	-14.4
0.0405	-0.0008	0.003	0.0007	-14.4
0.039	-0.0008	0.0067	-0.0008	-14.4
0.033	0.006	0.0075	-0.0008	-14.3
0.015	0.0082	0.0105	0.0007	-14.2
0.0067	0.0097	0.009	0.0015	-14.2
0.0045	0.0127	0.003	0.0007	-14.1
-0.003	0.0127	-0.0008	0.003	-14.1
-0.0046	0.0172	-0.0091	0.003	-14
-0.0128	0.015	-0.0098	0.0045	-14
-0.012	0.0127	-0.0091	0.003	-13.9
-0.0091	0.015	-0.0053	-0.003	-13.9
-0.0068	0.015	-0.0015	-0.003	-13.8
0.0007	0.0135	0.0015	0.0007	-13.8
0.0015	0.0075	0.0112	-0.0008	-13.8
0.0075	0.003	0.0157	0	-13.7
0.0015	0.0052	0.0165	-0.0015	-13.7
-0.0053	0.012	0.012	0.0007	-13.7
-0.0075	0.0165	0.009	0.003	-13.7
-0.012	0.0232	0.0045	0.0015	-13.6
-0.003	0.0255	-0.0046	0.0007	-13.6
-0.0038	0.0195	-0.0113	-0.0008	-13.6
-0.0023	0.0165	-0.0233	0.0007	-13.6
0.0015	0.018	-0.0278	0.0007	-13.5
0	0.0187	-0.0278	0.0007	-13.5
0.0045	0.0202	-0.0158	0.003	-13.5
0	0.0202	0.0135	0.003	-13.5
-0.0015	0.0202	0.0232	0.003	-13.5
-0.0015	0.0187	0.0255	0.0015	-13.5
-0.0023	0.0195	0.021	-0.003	-13.5
0.0007	0.0195	0.003	-0.0046	-13.4
0.0022	0.0165	-0.0105	-0.003	-13.4
0.0067	0.0157	-0.0285	-0.0023	-13.4
0.0045	0.009	-0.0308	-0.003	-13.4
0.0052	0.0067	-0.0225	-0.0015	-13.4
0.0045	0.0075	-0.012	-0.003	-13.4
0.0015	0.0082	0.0075	-0.0015	-13.3
0.0007	0.012	0.0187	-0.0008	-13.3
-0.0046	0.012	0.0195	-0.0008	-13.3
0.0007	0.015	0.0157	0.0037	-13.3
-0.0015	0.0142	0.0135	0.0045	-13.3
-0.0053	0.0112	0.0105	0.0045	-13.3
-0.0068	0.009	0.0082	0.006	-13.3
-0.0083	0.0082	0.0015	0.0067	-13.2
-0.0046	0.009	-0.0068	0.0045	-13.2
-0.0053	0.0112	-0.0068	0.0007	-13.2
0.0015	0.009	-0.003	0	-13.2
0.0015	0.0015	0.003	-0.003	-13.2
0.003	-0.0023	0.0052	-0.003	-13.2
0.0127	0	0.009	-0.0046	-13.2
0.0142	0.0045	0.0172	-0.0038	-13.2
0.0202	0.0015	0.0165	-0.0015	-13.1
0.0112	0.0007	0.0142	-0.003	-13.1
0.0082	0.0067	0.0052	-0.003	-13.1
0.0007	0.006	-0.0046	-0.0015	-13.1
-0.0181	0.0045	-0.0143	-0.003	-13.1
-0.0233	0.0037	-0.0323	-0.0046	-13.1
-0.0293	0.0045	-0.0368	-0.0038	-13.1
-0.0181	0.0105	-0.027	-0.0023	-13.1
-0.0083	0.012	-0.0083	-0.0008	-13
-0.0015	0.0135	0.0075	-0.0046	-13
0.009	0.009	0.018	-0.0038	-13
0.003	0.0067	0.0232	0	-13
0.0007	0.0082	0.018	0.003	-12.9
-0.0105	0.0007	0.0157	0.0052	-12.9
-0.0135	0.0007	0.0067	0.0045	-12.9
-0.0105	0.0105	0.0045	0.0052	-12.9
-0.0105	0.009	0.006	0.0007	-12.9
0.003	0	0.0037	-0.003	-12.8
0.0045	-0.0046	0.003	-0.0053	-12.8
0.015	-0.003	-0.003	-0.0053	-12.8
0.0232	0.0015	0.0015	-0.0023	-12.8
0.0217	0.003	0.0045	-0.003	-12.7
0.0247	0.003	0.006	0.0007	-12.7
0.0067	0.0082	0.003	0.003	-12.7
0.0007	0.009	0.0007	0.003	-12.7
-0.0008	0.006	0.0007	0.0022	-12.7
-0.0015	0.0045	-0.0015	-0.0015	-12.6
0.0082	0	0.0052	-0.0015	-12.6
0.0045	-0.0023	0.0022	-0.0046	-12.6
0.0067	-0.0008	0.0007	-0.0053	-12.6
-0.0023	0	0.003	-0.0053	-12.6
-0.0091	-0.0008	0.0007	-0.0038	-12.6
-0.0075	0.003	0.0052	0	-12.5
-0.0181	0.003	-0.0023	-0.0015	-12.5
-0.0135	0.0037	-0.0053	0.0007	-12.5
-0.0158	0.0082	-0.0075	0.0045	-12.5
-0.0135	0.0105	-0.012	0.0052	-12.5
-0.0068	0.0105	-0.0046	0.0007	-12.4
-0.0091	0.0082	-0.0023	0.0007	-12.4
-0.0015	-0.0023	0.0037	0.003	-12.4
-0.0023	-0.0091	0.012	0.0007	-12.4
-0.0008	-0.006	0.0157	-0.0083	-12.3
-0.0023	-0.0075	0.0165	-0.0143	-12.3
-0.0068	-0.0053	0.0097	-0.0075	-12.3
-0.0053	-0.0023	0.0015	-0.0038	-12.3
-0.0053	-0.003	-0.0015	-0.003	-12.3
0.0015	-0.0008	-0.0046	0.0007	-12.2
0	-0.0008	-0.0053	0.0022	-12.2
0.003	0.0007	-0.0038	0.0045	-12.2
0.0052	0.0022	0.0007	0.0045	-12.2
0.0045	-0.003	0.0082	0.003	-12.2
0.0105	-0.0053	0.0135	0	-12.2
0.0052	-0.0053	0.0187	-0.0015	-12.2
0.0045	-0.0038	0.027	-0.0008	-12.2
0.0015	-0.0015	0.0255	0.0015	-12.1
-0.0038	-0.0008	0.0217	-0.0015	-12.1
-0.0068	-0.0015	0.0232	-0.0015	-12.1
-0.0105	-0.0053	0.0262	0.003	-12.1
-0.0023	-0.0075	0.0262	0.0037	-12.1
0.0007	-0.0105	0.012	0.0067	-12
0.0082	-0.0173	-0.0075	0.0045	-12
0.0105	-0.0181	-0.0315	0.0045	-12
0.0052	-0.0091	-0.057	0.003	-12
0.0052	-0.003	-0.078	-0.0008	-12
-0.0023	0.0015	-0.0878	0	-11.9
-0.0015	0.006	-0.0698	0	-11.9
-0.0008	0.0045	-0.042	0.0015	-11.9
-0.0015	-0.006	-0.0098	0.0045	-11.9
0.003	-0.0181	0.024	0.0097	-11.9
-0.003	-0.0181	0.0375	0.009	-11.9
0.0015	-0.012	0.0382	0.0082	-11.8
0.0015	0.003	0.0382	0.006	-11.8
0	0.0157	0.0307	0	-11.8
0.0067	0.015	0.033	-0.003	-11.8
-0.0008	0.0082	0.0337	-0.0218	-11.8
-0.003	0.0022	0.0292	-0.0368	-11.7
-0.0128	-0.0015	0.0157	-0.0218	-11.7
-0.0188	-0.003	-0.0023	-0.0113	-11.7
-0.0195	0.0007	-0.0046	-0.0046	-11.7
-0.024	0.003	-0.0128	0.0037	-11.7
-0.0083	0.003	-0.0053	0.0067	-11.7
-0.0015	0.0037	0	0.015	-11.7
0	0.0007	-0.0098	0.0075	-11.7
0.0015	-0.003	-0.0098	-0.0023	-11.6
0.0022	-0.003	-0.0173	-0.0023	-11.6
0.015	-0.0008	-0.012	-0.0023	-11.6
0.0292	0	-0.0091	0.0045	-11.6
0.0397	0.0015	-0.0068	0.0037	-11.5
0.0345	0.0015	0.0022	-0.0023	-11.5
0.0135	0	0.0022	-0.0038	-11.5
-0.0038	-0.0008	0.0127	0.0007	-11.5
-0.0143	0.0022	0.0127	0.0045	-11.5
-0.024	0.0067	0.0135	0.0052	-11.4
-0.027	0.0067	0.0172	0.0045	-11.4
-0.0218	0.0067	0.0105	0.0007	-11.4
-0.0181	0.0052	0.0142	0.0045	-11.3
-0.012	0.0037	0.0082	0.0022	-11.3
-0.0143	0.0007	0.0097	0.0015	-11.3
-0.0105	-0.0008	0.012	0.0015	-11.3
-0.003	-0.0023	0.0052	-0.0015	-11.3
-0.0053	-0.0023	0.0045	-0.0008	-11.3
0.0037	-0.0015	-0.0053	-0.003	-11.3
0.0022	-0.0008	-0.003	0	-11.2
0.0052	-0.0015	-0.0015	0.0007	-11.2
0.0067	-0.0023	0	0.0007	-11.2
-0.0083	0	0.0045	0.0022	-11.1
0.0022	0	0.003	-0.0015	-11.1
0.0052	-0.0015	0.0097	-0.003	-11.1
-0.0015	0.0007	0.0097	-0.0053	-11.1
0.0022	-0.0015	0.0105	-0.0046	-11.1
0.0052	-0.0075	0.0105	-0.0038	-11
0.0217	-0.0015	0.0052	-0.0008	-11
0.0315	0.0015	0.0015	0	-11
0.042	-0.0015	-0.0053	0.0007	-10.9
0.0487	-0.0023	-0.0046	0.0015	-10.9
0.0255	-0.0068	-0.006	-0.0015	-10.9
0.0067	-0.0105	-0.0046	0	-10.9
-0.0113	-0.0105	-0.0038	-0.0008	-10.8
-0.024	-0.0053	-0.0083	0.0015	-10.8
-0.0203	0.0007	-0.003	0.0037	-10.8
-0.0195	-0.003	-0.003	0.0007	-10.8
-0.015	-0.006	0.0022	-0.006	-10.8
-0.0143	-0.0068	0.0105	-0.0098	-10.8
-0.012	-0.006	0.0165	-0.0008	-10.8
-0.0083	0.0007	0.0225	0.003	-10.7
-0.0098	-0.0008	0.0232	0.003	-10.7
-0.0083	-0.0046	0.0187	0.0037	-10.7
-0.0091	-0.0038	-0.0015	0.0007	-10.7
-0.012	-0.003	-0.0173	0	-10.6
-0.0105	-0.0053	-0.0368	0.0007	-10.6
-0.0083	-0.0068	-0.048	0.0015	-10.6
-0.003	-0.0046	-0.0368	0.0007	-10.6
