File Name: 4Nsen.log
Channel 1: 'RF', 15601 values, engineering units: mV, no filters.
Channel 2: 'BF', 15601 values, engineering units: mV, no filters.
Channel 3: 'VM', 15601 values, engineering units: mV, no filters.
Channel 4: 'ST', 15601 values, engineering units: mV, no filters.
Channel 5: 'FX', 780 values, engineering units: deg, no filters, extrapolated from 50 to 1000 samples per second.

-0.0008	-0.0008	0.0045	-0.0008	-68.4
-0.0015	0.0067	0.0045	-0.0015	-68.4
-0.003	0.0045	0.0007	-0.0008	-68.4
-0.0015	0.0022	0.0015	-0.0008	-68.4
-0.0046	0.0015	-0.0008	-0.0046	-68.4
0.0015	0.003	0.0015	-0.003	-68.3
0.0022	0.003	0.0007	-0.0046	-68.3
0.003	0.0015	0	-0.0046	-68.3
0.0045	-0.0008	0.0015	-0.0015	-68.3
0.0007	0.0007	-0.0038	-0.0008	-68.3
0.0045	-0.0008	-0.0015	0.0015	-68.3
-0.0008	-0.0008	-0.0023	-0.0008	-68.3
-0.0008	0.0015	-0.003	0.0007	-68.3
0.0015	0	0	0.0015	-68.3
0	-0.0008	-0.003	-0.0015	-68.3
0.0015	-0.0008	0.003	0	-68.3
-0.0008	0	0.0007	-0.0015	-68.3
0.0015	0.003	0	-0.0023	-68.3
0.0007	0.0037	0.003	-0.0008	-68.3
-0.0008	0.0045	0.0015	-0.0023	-68.3
-0.0008	0.003	0.0045	-0.0008	-68.3
-0.0053	0.003	0.0015	-0.003	-68.3
-0.0023	0.003	0.0015	-0.0015	-68.3
-0.0038	0.003	0.0007	0.0007	-68.3
-0.0015	0.0015	0.0015	-0.0015	-68.3
0.0022	0	0.0037	0.0015	-68.3
-0.0008	0.0007	0.006	0.0007	-68.3
0.0015	-0.0008	0.0082	0.0015	-68.3
0.0015	-0.0008	0.0045	0.0015	-68.3
0.0015	0	0.0082	0	-68.3
0.0007	-0.0008	0.006	0.0015	-68.3
0.0015	-0.0008	0.0045	-0.0008	-68.3
0.0022	-0.0046	0.0052	0.0007	-68.3
0.0007	-0.0068	-0.0008	-0.0008	-68.3
0.0022	-0.0068	-0.0015	-0.0023	-68.3
-0.0046	-0.0053	-0.0038	0.0007	-68.3
-0.0068	-0.0053	-0.003	0.0007	-68.3
-0.0046	-0.0046	0.0015	0.0015	-68.3
-0.0091	-0.003	0.003	-0.0015	-68.3
-0.0068	-0.0015	0.0075	-0.003	-68.3
-0.0046	0	0.0067	-0.0008	-68.3
-0.0008	-0.0008	0.0052	-0.0015	-68.3
0.0022	0	0.003	-0.0008	-68.3
0.003	0.0015	-0.0015	-0.0015	-68.3
0.0045	-0.0008	-0.0046	-0.0008	-68.3
0.003	-0.0015	-0.0083	0.0007	-68.3
0.0022	0.0007	-0.0068	0.0007	-68.3
0.0015	0.0022	-0.0046	0.0015	-68.3
0.0015	0.0015	-0.0015	0.0007	-68.3
-0.0023	0.0037	-0.0008	0.0022	-68.3
-0.0053	0.0045	-0.0008	0.0015	-68.3
-0.0046	0.0067	0.0015	0.0007	-68.3
-0.006	0.0045	0.0007	0	-68.3
-0.0046	0.0022	0.0015	-0.0015	-68.3
-0.0015	0.003	0.0015	-0.0015	-68.3
-0.0008	0.0007	0.0015	-0.0015	-68.3
0.0007	-0.0008	0.0045	-0.0023	-68.3
0	-0.0008	0.003	-0.003	-68.3
0.0007	0.0015	0.0052	-0.0046	-68.3
-0.0015	0.0007	0.003	-0.003	-68.3
-0.0015	-0.0015	0.0022	-0.0008	-68.4
0.0007	-0.003	0.003	-0.0008	-68.4
-0.0015	-0.003	0.0015	0.0015	-68.4
-0.0008	-0.003	0.0045	0	-68.4
0.0007	-0.0053	0.0015	-0.0023	-68.4
0.003	-0.0038	0.0015	0.0007	-68.4
0.0022	-0.0023	0.0045	0.0007	-68.4
0.0007	-0.0015	0.0022	0.003	-68.4
0.0022	-0.0008	0.0052	0	-68.4
0.0007	0.0007	0.0052	0.0007	-68.4
0.0015	-0.0015	0.003	-0.0008	-68.4
-0.0008	-0.0015	0.0015	-0.0015	-68.4
-0.0023	0	0	-0.0008	-68.4
-0.003	-0.003	-0.0015	-0.003	-68.4
-0.006	-0.0008	-0.0023	-0.0008	-68.4
-0.0046	-0.0008	0.0015	-0.0008	-68.4
-0.0053	0.0015	0.003	0	-68.4
-0.0023	0.003	0.0022	0.0007	-68.4
0	0.0015	0.0022	-0.0008	-68.4
-0.0023	0.0022	0.0007	0.0007	-68.4
0.0015	-0.0015	0.0037	-0.0008	-68.4
0	-0.003	-0.0008	-0.0008	-68.4
-0.003	-0.003	-0.0023	-0.0008	-68.4
-0.0008	-0.003	-0.0015	-0.0008	-68.4
0.0015	-0.0046	-0.003	0.0007	-68.4
0.0015	-0.0046	0.0022	0.0022	-68.4
0.003	-0.0038	-0.0015	0.0015	-68.4
0.0045	-0.0046	-0.0008	0.0007	-68.4
0.003	-0.003	0.0007	0.0007	-68.4
0.0022	-0.003	0	0.0007	-68.4
0.003	-0.003	0.0007	0.0007	-68.4
0.0022	-0.0023	0.0022	-0.0015	-68.4
-0.003	-0.0046	0.0037	-0.0015	-68.4
-0.0068	-0.0053	0.0037	-0.0008	-68.4
-0.0068	-0.003	0.006	-0.0008	-68.4
-0.0068	-0.0046	0.0067	-0.0008	-68.4
-0.0046	-0.003	0.0097	0.0007	-68.4
-0.003	-0.003	0.0067	0.0015	-68.4
-0.0023	0.0007	0.0022	0.0015	-68.4
0.003	0.0045	0	0.0015	-68.4
0.0045	0.003	-0.003	0.0015	-68.4
0.003	0.003	-0.0008	0.0022	-68.4
0.003	0.0022	0.0007	0.003	-68.4
-0.0008	0.0015	-0.0008	0.0007	-68.4
-0.0023	0.003	-0.0015	0.0022	-68.4
-0.0015	0.0015	-0.0008	0.003	-68.4
-0.0015	-0.0015	0.0022	0.0015	-68.4
-0.003	-0.003	0.0045	0.0015	-68.4
-0.003	-0.003	0.0045	0.0015	-68.4
-0.0023	-0.0015	0.0037	0	-68.4
-0.0068	-0.003	0.003	-0.0023	-68.4
-0.0046	-0.0015	0.0015	-0.0015	-68.4
-0.003	0	0.003	-0.0008	-68.4
0.0015	0.0007	0.0015	-0.0023	-68.4
0.0045	0.0007	-0.0008	-0.0015	-68.4
0.0022	0.0022	0.0015	-0.003	-68.4
0.0067	0.003	0.0015	-0.0015	-68.4
0.003	0.0022	0.0037	0	-68.4
-0.0008	0.0015	0.0037	-0.0015	-68.4
0.0015	0.0015	0.003	-0.003	-68.4
-0.0015	0.003	0.0082	-0.003	-68.4
-0.0008	0.003	0.009	-0.003	-68.4
-0.0008	0.003	0.009	-0.003	-68.4
-0.003	0.0037	0.0067	-0.0008	-68.4
-0.0038	0.003	0.0037	0.0007	-68.4
-0.0046	0.003	0.0015	-0.0015	-68.4
-0.003	0.003	-0.0015	-0.003	-68.4
-0.0015	0.0015	-0.003	-0.0008	-68.4
-0.0008	0.0007	-0.0038	0.0007	-68.4
-0.006	0.0015	-0.0008	0.003	-68.4
-0.0068	0.0015	0.003	0.0022	-68.4
-0.006	-0.0008	0.003	0.0007	-68.4
-0.0068	-0.0023	0.006	-0.0008	-68.4
-0.0046	-0.0023	0.0067	-0.003	-68.4
-0.0053	-0.0008	0.0075	-0.0015	-68.4
-0.0008	0.0015	0.0045	-0.0015	-68.3
0.0015	0.0037	0.0007	-0.0015	-68.3
0.003	0.0037	-0.0015	0	-68.3
0.0052	0.0045	-0.003	0	-68.3
0.0045	0.0075	-0.0038	0	-68.3
0.003	0.006	-0.003	-0.003	-68.3
0.0007	0.003	-0.0008	-0.0023	-68.3
-0.0008	0.0022	0	-0.0015	-68.3
-0.0015	-0.0008	0.0015	-0.0015	-68.3
-0.0008	0	0.0037	-0.0008	-68.3
-0.0008	0.0022	0.0007	-0.0008	-68.3
-0.0023	0.0007	-0.0008	-0.0008	-68.3
0.0015	0.0015	-0.0008	-0.0023	-68.3
0.0007	0	-0.0008	-0.0008	-68.3
-0.003	-0.0015	-0.0008	0.0007	-68.3
-0.0046	0	-0.0015	0.0022	-68.3
-0.0046	-0.0008	-0.0008	0.0022	-68.3
-0.0046	-0.0008	0.0037	0.0015	-68.3
-0.003	-0.0015	0.0022	0.0007	-68.3
-0.0015	-0.0046	0.0022	-0.0008	-68.3
-0.0008	-0.0053	0.0037	0.0015	-68.3
-0.003	-0.0068	0.0022	0	-68.3
0.003	-0.0053	0.0045	-0.0015	-68.3
0.0022	-0.0053	0.0037	0	-68.3
0.0007	-0.0053	0.0037	-0.0015	-68.3
0.0037	-0.0068	0.003	-0.003	-68.3
-0.0015	-0.0068	0.0015	-0.0008	-68.3
-0.0015	-0.0053	0.003	-0.0008	-68.3
-0.0015	-0.0046	0.0015	-0.0008	-68.3
-0.003	-0.0015	0.0037	-0.0023	-68.3
0.0022	-0.0023	0.006	-0.0008	-68.3
0.0015	-0.0015	0.003	0.0007	-68.3
0	0.0015	0	-0.0015	-68.3
0	0.0007	-0.003	0.0007	-68.3
-0.0046	0.003	-0.0015	0.0007	-68.3
-0.0046	0.0015	0.0007	0.0007	-68.3
-0.0008	-0.0015	0.0007	0.0015	-68.3
0.003	-0.0008	0.0045	0	-68.3
0.0007	-0.003	0.0045	0.0015	-68.3
0.0007	-0.003	0.0045	-0.0008	-68.3
0.0007	-0.0015	0.0052	-0.0008	-68.3
-0.0015	-0.0008	0.0052	-0.0008	-68.3
0.0007	0.003	0.0075	-0.003	-68.3
-0.0015	0.0052	0.0045	0	-68.3
-0.003	0.0052	0.0015	-0.0015	-68.3
-0.0015	0.0045	0	-0.0008	-68.3
-0.0023	0.0045	-0.0023	-0.0015	-68.3
-0.0015	0.0045	-0.0015	-0.0023	-68.3
-0.003	0.0045	-0.0023	-0.0023	-68.3
-0.003	0.0045	-0.003	-0.0015	-68.3
-0.0008	0.0022	0.0015	0.0007	-68.3
-0.0008	0.0022	0.0045	0	-68.3
-0.0023	0.0022	0.0052	0	-68.3
0	-0.0008	0.006	-0.0008	-68.3
0.0037	-0.0015	0.0052	0	-68.3
0.003	-0.003	0.0037	0.0015	-68.3
0.0007	-0.003	0.0007	0.0015	-68.3
-0.0015	-0.0015	-0.0023	0.0015	-68.3
-0.0023	-0.003	-0.0015	0.0015	-68.3
0	-0.0038	-0.0015	0.0007	-68.3
0	-0.003	-0.0015	0	-68.3
-0.003	-0.0038	0.0015	0.0007	-68.3
-0.0038	-0.0046	0.0007	0.0007	-68.3
-0.003	-0.003	-0.0008	-0.0008	-68.3
-0.0053	-0.0053	0	-0.0015	-68.3
-0.0053	-0.0053	-0.0008	-0.0008	-68.3
-0.0038	-0.0053	0.0015	-0.0015	-68.3
-0.0046	-0.0068	0.003	-0.0008	-68.3
-0.0023	-0.0068	0.0067	0	-68.3
-0.0015	-0.0083	0.0067	0.0015	-68.3
-0.0023	-0.0053	0.003	0.003	-68.3
0.0015	-0.0046	0.0007	0.0015	-68.3
0.0045	-0.0015	-0.0046	0.0007	-68.3
0.0067	-0.0008	0	0.0007	-68.3
0.0075	0.0022	0.0015	0.0007	-68.3
0.0045	0.0052	0.0015	-0.0008	-68.3
0.0015	0.0045	0.0037	-0.0008	-68.3
-0.0008	0.006	0	-0.0008	-68.3
-0.0053	0.0037	0.0045	-0.0008	-68.3
-0.0053	0.0052	0.003	-0.003	-68.3
-0.0046	0.0067	0	-0.003	-68.3
-0.0046	0.0045	-0.0008	-0.003	-68.3
-0.0023	0.0045	-0.0038	-0.0046	-68.3
-0.0008	0.0015	-0.0046	-0.003	-68.3
-0.0008	-0.0008	-0.0053	-0.0015	-68.3
0	0	-0.0015	-0.0015	-68.3
-0.003	0.0015	0.0007	-0.0038	-68.3
-0.003	0.0015	0.003	-0.0015	-68.3
-0.003	0.0022	0.0052	-0.0008	-68.3
-0.0015	0.0007	0.003	0.0007	-68.3
-0.0008	-0.0008	0.0052	0.0022	-68.3
0	-0.003	0.0052	-0.0008	-68.3
0.003	-0.0046	0.0045	0.0015	-68.3
0.003	-0.003	0.0037	0.0007	-68.3
0.0045	-0.0046	0.0015	0.0015	-68.3
0.003	-0.0023	0.0022	0.0015	-68.3
0.0015	-0.003	-0.0023	0	-68.3
0.0007	-0.0038	-0.0015	-0.0015	-68.3
-0.0046	-0.0015	-0.0023	-0.0046	-68.3
-0.0038	-0.0008	-0.0015	-0.0038	-68.3
-0.0046	0	0.0007	-0.003	-68.3
-0.0068	0.0007	-0.0015	-0.003	-68.3
-0.0053	0.0045	0.003	-0.0015	-68.3
-0.006	0.0052	0.0022	-0.0015	-68.3
-0.0046	0.0067	0.0045	0.0007	-68.3
-0.003	0.0052	0.0082	-0.003	-68.3
-0.0008	0.006	0.0067	-0.003	-68.3
0.0015	0.0067	0.0045	-0.0008	-68.3
0.003	0.0045	0.0015	-0.0015	-68.3
0.0052	0.003	0.0015	0.0007	-68.3
0.0015	0.0015	0.0022	0.0022	-68.3
0.003	0.0007	0.0022	0.003	-68.3
0.0015	0.0007	0.0037	0.0007	-68.3
-0.0008	0.0007	0.0052	-0.0008	-68.3
0.003	0.0007	0.0022	0.0015	-68.3
-0.0015	0.0015	0.0007	0	-68.3
0	0.0037	0.0007	-0.0008	-68.3
-0.0008	0.0045	0.0037	0.0007	-68.3
-0.003	0.0045	0.0052	0.0007	-68.3
0.0007	0.003	0.0015	0.0015	-68.3
-0.0038	0.0007	0.003	0.0015	-68.3
-0.0008	0.0007	0.003	0	-68.3
-0.0008	-0.0023	0.0045	-0.0008	-68.3
-0.003	-0.003	0.003	-0.0023	-68.3
0.0007	-0.0038	0.0007	-0.0015	-68.3
0	-0.0053	0.003	-0.0008	-68.3
0.0015	-0.0023	0.003	-0.0008	-68.3
0.0045	-0.003	0.0022	0	-68.3
0.0022	-0.0015	0.0022	-0.0008	-68.3
0.0015	0.0007	0.0015	-0.0008	-68.3
0.0015	0.0015	0.0052	0.0007	-68.3
0.003	0.0045	0.0067	0	-68.3
-0.0008	0.0015	0.006	0.0015	-68.3
-0.0015	0.0015	0.0052	0	-68.3
-0.0038	0.003	0.0022	-0.0008	-68.3
-0.0075	0.003	0	-0.0023	-68.3
-0.006	0.0015	-0.0023	-0.0046	-68.3
-0.0046	0	-0.0008	-0.0008	-68.3
-0.0046	-0.0008	-0.003	-0.0008	-68.3
-0.0015	-0.003	-0.0046	0.0007	-68.3
-0.0008	-0.0038	-0.0038	-0.0015	-68.3
-0.0038	-0.0038	-0.0053	-0.0038	-68.3
-0.0046	-0.0053	-0.0015	-0.0015	-68.3
-0.0046	-0.006	-0.0008	-0.003	-68.3
-0.0038	-0.0038	0	-0.0008	-68.3
0.0015	-0.0015	0.003	-0.0015	-68.3
-0.0008	-0.0015	0.0045	0.0007	-68.3
0	-0.0023	0.0037	0.003	-68.3
0.0015	-0.0038	0.0045	0.0007	-68.3
0.0007	-0.0023	0.0045	0.0015	-68.3
0.003	-0.0023	0.0015	0.0007	-68.3
-0.0008	-0.003	0.0045	0.0015	-68.3
-0.0015	-0.0015	0.0045	0.0007	-68.3
-0.0046	-0.0008	0.003	0.0015	-68.3
-0.0053	-0.0008	0.003	0.003	-68.3
-0.0038	-0.003	0.0045	0.0015	-68.3
-0.0053	-0.0046	0.0037	0.0037	-68.3
-0.0046	-0.006	0.0022	0.003	-68.3
-0.0015	-0.0068	0.003	0.0007	-68.3
0.0007	-0.0068	0.0007	0	-68.3
0	-0.0053	0.0015	-0.0008	-68.3
0.0015	-0.0053	0.0022	-0.0008	-68.3
-0.0015	-0.0053	0.0007	0.0007	-68.3
-0.0008	-0.006	0.0015	0.0007	-68.3
0	-0.0053	-0.0008	0	-68.3
-0.003	-0.0053	0.0007	0.0007	-68.3
-0.0008	-0.006	0.0007	-0.0008	-68.3
-0.0008	-0.0046	0	-0.003	-68.3
0.0015	-0.0053	0.003	-0.0038	-68.3
0.0045	-0.003	0.0037	-0.0015	-68.3
0.0022	0.0007	0.0015	-0.0015	-68.3
0.0022	0.0015	0.0022	0.0007	-68.3
-0.0008	0.0007	0.0045	-0.0008	-68.3
-0.0015	0	0.0045	-0.0015	-68.3
-0.003	0.0007	0.003	-0.0015	-68.3
-0.0023	0.0007	0.0007	-0.0015	-68.3
-0.0008	-0.0008	-0.0008	-0.003	-68.3
0.0007	-0.0023	-0.0015	-0.003	-68.3
0.0037	-0.0008	-0.003	0	-68.3
0.0015	0.0022	-0.0015	-0.0015	-68.3
0.0015	0.003	-0.0015	0.0022	-68.3
-0.0008	0.003	0.0015	0.0015	-68.3
-0.0046	0.0007	0.0015	-0.0008	-68.3
-0.0046	0.0015	0.0015	0	-68.3
-0.003	0.0007	0.003	-0.0046	-68.3
0.0015	0	0	-0.0015	-68.3
-0.0015	0.0007	0.0022	-0.0008	-68.3
-0.003	-0.0008	0	0.0007	-68.3
-0.0015	-0.0015	0.0015	0.0015	-68.3
-0.0046	-0.0008	0.0022	0	-68.3
-0.0015	-0.0015	0.0015	0.0015	-68.2
-0.0038	-0.0015	0.0052	0.0007	-68.2
-0.003	-0.003	-0.0008	-0.0008	-68.2
-0.003	-0.0046	0.0052	0.0007	-68.2
-0.0038	-0.0053	0.0015	-0.0015	-68.2
-0.0008	-0.003	0.003	-0.003	-68.2
-0.0015	-0.0008	0.009	-0.0008	-68.2
0.0007	0.0007	0.003	-0.0015	-68.2
0.0007	0.0045	0.0052	-0.0008	-68.2
-0.0008	0.006	-0.0008	0.0007	-68.2
-0.0015	0.0067	0.0007	-0.0008	-68.2
-0.0023	0.0082	0.003	0.003	-68.2
-0.0008	0.0082	0.0022	0.0015	-68.2
-0.0015	0.0082	0.0052	0	-68.2
0.003	0.0082	0	0.0007	-68.2
0.0015	0.0075	0.003	-0.0008	-68.2
-0.0015	0.006	0.0037	-0.0008	-68.2
-0.0008	0.0045	0.0045	-0.0008	-68.2
-0.0053	0.003	0.006	0.0007	-68.2
-0.0008	-0.0008	0.0015	-0.0015	-68.2
0.0015	0.0007	0.0015	-0.0038	-68.2
0.0015	0	-0.0008	-0.0023	-68.2
0.003	-0.0008	-0.0008	-0.003	-68.2
0.0007	0.0015	0.0007	-0.0008	-68.2
0.0045	0.003	-0.0015	-0.0008	-68.2
0.0007	0.0067	0.0007	0	-68.1
-0.0008	0.0067	-0.0015	0.0045	-68.1
0.003	0.0075	-0.003	0.003	-68.1
-0.0015	0.0082	-0.0015	0.003	-68.1
0.0022	0.009	-0.0008	0.0045	-68.1
0.003	0.009	0.0037	0.0037	-68.1
-0.0008	0.0082	0.0022	0.0015	-68.1
-0.0008	0.0097	0.0015	0.0015	-68.1
-0.0038	0.009	-0.0015	0.0015	-68.1
-0.0015	0.009	-0.003	0.0022	-68.1
0	0.0082	-0.003	0	-68.1
0	0.0045	-0.0015	-0.0008	-68.1
0.0015	0.003	0.003	-0.0008	-68.1
0.0007	0.0015	0.0015	-0.0038	-68.1
-0.0008	-0.0008	0.0022	-0.0023	-68.1
-0.0046	-0.0023	0.0015	-0.003	-68.1
-0.0046	-0.003	0.0022	-0.0046	-68.1
-0.0038	-0.003	0.0045	-0.0038	-68.1
-0.0053	-0.0053	0.0007	-0.006	-68.1
-0.003	-0.0068	0.003	-0.0023	-68.1
-0.003	-0.006	0.0007	-0.0015	-68.1
-0.0046	-0.0053	0.003	-0.0008	-68.1
-0.0015	-0.006	0.0037	0.0015	-68.1
-0.0046	-0.0053	0.0022	0.0015	-68.1
-0.0038	-0.0053	0.0067	0.003	-68.1
-0.0015	-0.006	0.0015	0.0022	-68.1
0	-0.006	0.0007	0.0015	-68.1
0.0037	-0.006	0.0007	0.0007	-68.1
0.0007	-0.0083	-0.0015	-0.0015	-68.1
0	-0.0098	0.0015	-0.0008	-68.1
0.0007	-0.0105	0.0007	-0.0015	-68.2
-0.003	-0.0091	0.0052	-0.003	-68.2
-0.0008	-0.0075	0.003	-0.0008	-68.2
-0.0023	-0.0091	0.003	0.0007	-68.2
-0.0038	-0.0053	0.0045	-0.0008	-68.2
0	-0.0038	0.003	-0.0008	-68.2
-0.0008	-0.003	0.0067	0	-68.2
0.003	-0.003	0.0045	0.0015	-68.2
0.0007	-0.0046	0.0037	0.0007	-68.2
0.0015	-0.0046	0.0007	-0.0008	-68.2
0.0037	-0.0053	0.0007	-0.0023	-68.2
-0.0008	-0.003	0.003	-0.003	-68.2
0.0015	-0.0015	-0.0008	-0.0015	-68.2
-0.003	0.0007	0.003	0	-68.2
0.0022	0.003	-0.003	0.0007	-68.2
0.0015	0.0015	-0.003	0.0015	-68.2
-0.0008	0.0015	-0.003	0.0015	-68.2
0.0045	-0.0023	-0.0083	0.0015	-68.2
-0.003	-0.003	-0.0015	0.0007	-68.2
-0.0015	-0.003	-0.0023	-0.0008	-68.2
-0.0046	-0.0038	0.0015	0.0015	-68.2
-0.0075	-0.0015	0.0045	0.0007	-68.2
-0.0046	0	0.0022	0.0007	-68.2
-0.006	0.0015	0.0052	0.0007	-68.2
-0.0008	0.003	0.0007	0.0007	-68.2
-0.0008	0.0045	0.0015	0.0015	-68.2
0.0015	0.0067	0.003	0.0007	-68.2
0.0015	0.0075	0.0007	0	-68.2
-0.0015	0.006	0.0037	-0.003	-68.2
0.0037	0.0075	0.003	-0.0023	-68.2
0	0.0052	0.0052	-0.003	-68.2
0.0037	0.003	0.0045	-0.003	-68.2
0.0045	0.0007	0.0045	-0.0008	-68.2
0	0	0.0052	-0.0008	-68.2
0.0022	0.0015	0.003	-0.0015	-68.2
-0.0023	0.0007	0.0067	-0.0008	-68.2
-0.0015	0.0007	0.003	-0.003	-68.2
-0.003	-0.0008	0.003	-0.0038	-68.2
-0.0023	0.0007	0.003	-0.0038	-68.2
-0.0008	-0.0008	0.003	-0.0046	-68.2
-0.0046	-0.0015	0.003	-0.0038	-68.2
-0.0015	-0.0015	0.0022	-0.0015	-68.2
-0.0046	-0.0038	0.0037	-0.0023	-68.2
-0.0046	-0.003	0.0022	-0.0015	-68.2
0	-0.0046	0.003	-0.0008	-68.2
-0.0008	-0.0053	0.003	-0.0008	-68.2
0.003	-0.0038	0.0007	-0.0008	-68.2
0.003	-0.0046	-0.0023	0.0015	-68.2
0.0037	-0.0015	-0.0023	0.003	-68.2
0.003	-0.0015	-0.0008	0.0015	-68.2
0.0007	0.0007	-0.0008	0.0015	-68.2
0.0007	0.003	0.0007	-0.0008	-68.2
-0.003	0.0045	0.003	-0.003	-68.2
-0.0015	0.0067	0.0067	-0.003	-68.2
-0.0023	0.0037	0.0082	-0.0023	-68.2
-0.0068	0.0037	0.009	-0.0015	-68.2
-0.0053	0.003	0.009	-0.0008	-68.2
-0.0075	0.0007	0.0067	0.0007	-68.2
-0.0053	0.0015	0.0007	0.0007	-68.2
-0.0023	0.0007	-0.003	0.0022	-68.2
-0.003	-0.0015	-0.0046	0.0022	-68.2
-0.0008	-0.003	-0.0038	0.0022	-68.2
-0.0008	-0.0046	0.0015	0.0022	-68.2
0.0007	-0.0023	0	0.0022	-68.2
0.0015	-0.0023	0.0037	0.0007	-68.2
0.0015	-0.003	0.003	-0.0023	-68.2
0.003	-0.0023	0.003	-0.0008	-68.2
0.0007	-0.003	0.003	-0.0008	-68.2
0.003	-0.0008	-0.0008	-0.0023	-68.2
0.0007	-0.0008	0.0022	-0.0023	-68.2
-0.0038	-0.0008	-0.0023	0	-68.2
-0.0046	-0.0015	-0.0015	0.0007	-68.2
-0.0075	-0.0015	0.0015	0.0007	-68.2
-0.0053	0.0007	0.0015	0.0015	-68.2
-0.003	-0.0008	0.003	-0.0015	-68.2
-0.0015	0.0015	0	-0.0008	-68.3
-0.0008	0.0045	0.006	0.0007	-68.3
0	0.0052	0.0052	-0.0015	-68.3
0.0022	0.0052	0.0037	0	-68.3
-0.0015	0.0037	0.0007	-0.0008	-68.3
-0.003	0.0022	-0.0053	-0.0008	-68.3
-0.0038	-0.0008	-0.003	0.0007	-68.3
-0.0053	-0.0008	-0.003	0.0015	-68.3
-0.0015	-0.0023	-0.0015	0.0015	-68.3
-0.0008	-0.0046	-0.0015	0.0022	-68.3
0.0015	-0.0046	0.003	0.003	-68.3
0.0037	-0.0038	0.0045	-0.0008	-68.3
0.0007	-0.0015	0.003	-0.0008	-68.3
-0.0015	-0.0015	0.0045	0.0007	-68.3
-0.003	-0.0015	-0.003	0.0007	-68.3
0	0.0007	-0.0015	0.0007	-68.3
0.0015	-0.0008	0	0.0007	-68.3
0.0015	-0.0015	0.0037	0.0007	-68.3
0	-0.0023	0.0082	-0.0015	-68.3
0	0.0007	0.0037	-0.0023	-68.3
0	-0.0008	0.0037	0	-68.3
-0.0015	-0.0015	0.0022	-0.0008	-68.3
0.0007	0.0007	0.0007	-0.0008	-68.3
-0.0015	0.0007	0.0022	-0.0015	-68.3
-0.0015	0.0015	-0.0015	-0.003	-68.3
-0.0008	0.0015	0.0007	-0.0023	-68.4
0.0007	0.0007	0	-0.0015	-68.4
0.0037	0.0037	-0.0015	0	-68.4
0.0007	0.0022	0.0007	0	-68.4
0.0007	0.0015	-0.003	0	-68.4
-0.0015	0.0007	0.0015	0.0007	-68.4
-0.0023	0.0007	0.003	-0.0008	-68.4
-0.0008	-0.0008	0.003	0.0007	-68.4
0.0007	-0.0008	0.006	-0.0023	-68.4
0.0037	0.0007	0.0067	-0.0023	-68.4
0.0015	-0.0008	0.0082	-0.0008	-68.4
0.003	-0.0008	0.003	-0.0008	-68.4
0.0007	-0.003	0.0015	0.0015	-68.4
-0.0046	-0.003	0.0022	0.0015	-68.4
-0.0023	-0.0008	0.0015	0.0015	-68.4
-0.0053	-0.0008	0.0015	-0.0008	-68.4
-0.003	-0.0015	0.0007	-0.0015	-68.4
-0.003	-0.0015	0.0015	0	-68.4
-0.003	0	0	0	-68.4
-0.0015	0.0007	-0.0015	0.0007	-68.4
-0.0015	-0.0008	-0.0008	0	-68.4
-0.0015	-0.0023	-0.0015	0.0015	-68.4
-0.0038	-0.0023	0.0007	0.0007	-68.4
-0.0023	-0.0023	0.0007	0.0007	-68.4
-0.0038	-0.0008	0	0	-68.4
-0.006	0	0.0022	-0.0008	-68.4
-0.0046	0	0.0015	0.0007	-68.4
-0.0068	0.0007	0.0045	0.0007	-68.4
-0.0038	0.0022	0.006	-0.0008	-68.4
-0.0015	0.0022	0.0075	-0.0008	-68.4
-0.0015	0.003	0.009	-0.0008	-68.3
-0.0015	0.0045	0.0045	-0.0008	-68.3
0.0015	0.0045	0.0022	-0.0008	-68.3
0.003	0.0052	0	-0.0015	-68.3
0.0007	0.0052	0.0015	-0.0023	-68.3
0.0015	0.0037	0.0015	-0.0015	-68.3
0.0022	0.006	-0.0008	-0.0008	-68.3
0.0015	0.0052	0.0015	0.0015	-68.3
0.003	0.0052	0.0015	0.0015	-68.3
0.0007	0.0052	0.003	0.0015	-68.3
0.0015	0.003	0.003	0	-68.3
0.0015	0.0015	0.003	-0.0008	-68.3
0.0015	0.0007	0.0022	-0.0023	-68.3
0	0.0022	0	-0.003	-68.3
-0.0008	0	0.0015	-0.0008	-68.3
-0.003	-0.0015	0.0007	-0.0023	-68.3
-0.0015	-0.0023	0.0022	-0.0015	-68.3
-0.003	-0.0038	0.0045	-0.0008	-68.3
-0.006	-0.0053	0.006	-0.003	-68.3
-0.0023	-0.0053	0.0052	-0.0008	-68.3
-0.0053	-0.0023	0.0037	-0.0008	-68.3
-0.0053	-0.0015	0.0037	-0.0008	-68.3
0.0007	-0.003	0.0015	0.0015	-68.3
-0.0008	-0.0023	0.0015	0.003	-68.3
0.0045	-0.0046	-0.0015	0.003	-68.3
0.0037	-0.0075	-0.006	0.0045	-68.3
0.0007	-0.0068	-0.0038	0.0015	-68.3
0.0007	-0.0083	-0.0046	0.0015	-68.3
-0.0046	-0.0091	0.0007	0.0022	-68.3
-0.0046	-0.0083	0.0015	-0.0008	-68.3
-0.0053	-0.0091	0.0022	-0.0015	-68.4
-0.0015	-0.0083	0.0045	-0.0015	-68.4
-0.0015	-0.0083	0.0007	-0.0046	-68.4
-0.0015	-0.0068	0	-0.003	-68.4
0.0022	-0.0053	-0.003	-0.0008	-68.4
-0.0008	-0.0046	-0.0053	-0.0008	-68.4
0.0007	-0.0038	-0.0015	0.0007	-68.4
0.0007	-0.0015	0	0	-68.4
-0.0023	0.0007	0.0037	0.0007	-68.4
0.0015	0.0015	0.0045	0.0015	-68.4
-0.0008	0.0015	0.0052	0.0007	-68.4
-0.0008	0.003	0.006	0.0015	-68.4
-0.0008	0.0037	0.0052	0	-68.4
-0.0046	0.0015	0.0067	0.0007	-68.4
-0.0008	0.0007	0.009	-0.0008	-68.4
-0.0008	0.0007	0.006	-0.0008	-68.4
0.0022	0.0022	0.0007	-0.0008	-68.4
0.0052	0.0015	-0.003	-0.0008	-68.4
0.0015	-0.0015	-0.0046	0	-68.4
0.003	-0.0008	-0.0008	-0.0023	-68.4
0.0007	-0.0008	-0.0015	0	-68.4
-0.0015	0.0007	-0.0008	0.0007	-68.4
-0.003	0	0.003	0	-68.4
-0.0091	-0.0008	0.0015	-0.0015	-68.4
-0.006	0.0007	0.003	-0.0046	-68.4
-0.0053	-0.0023	0	-0.003	-68.4
-0.0038	-0.0008	-0.0023	-0.0023	-68.4
0.0007	-0.0008	-0.0015	0	-68.4
-0.0015	-0.003	0	0.003	-68.4
0	-0.0015	0.003	0.003	-68.4
0.0007	-0.0015	0.0037	0.0015	-68.4
-0.0015	-0.0023	0.003	0.0007	-68.4
0.0007	-0.0008	0.0037	0.0015	-68.4
0	0.0007	0.0052	0.0015	-68.4
-0.003	0.0037	0.0052	0.0007	-68.4
-0.0038	0.006	0.0037	0.0007	-68.4
-0.0023	0.0075	0.0045	-0.0015	-68.4
-0.0008	0.0082	0.0037	-0.0015	-68.4
0.0007	0.006	0.003	-0.003	-68.4
0.0007	0.0045	0.0022	-0.0046	-68.4
0.0037	0.003	-0.0008	-0.0023	-68.4
0.0015	0.0022	0.0015	-0.0015	-68.4
0.0007	0.0015	0.003	0	-68.4
0.0007	0.0007	0.0067	-0.0008	-68.4
0.0015	0.0007	0.0067	0	-68.4
0.0022	0.0007	0.0067	0	-68.4
0.0007	0.0015	0.0082	-0.0015	-68.4
0.0015	0.0022	0.0015	-0.0023	-68.4
-0.0008	0.0015	0.0007	-0.003	-68.4
-0.0046	0	0	-0.0008	-68.4
-0.0053	-0.0015	-0.0015	-0.003	-68.4
-0.0091	-0.0008	0.0015	-0.003	-68.4
-0.0091	0.0007	0.0015	-0.0008	-68.4
-0.0053	0.0015	-0.0008	0.0007	-68.4
-0.0008	0.0037	-0.0015	0.003	-68.4
0.0015	0.0045	-0.0015	0.003	-68.3
0.003	0.0052	-0.0008	0.0022	-68.3
0.0045	0.006	0.0007	0.0037	-68.3
0.0037	0.0067	0.003	-0.0008	-68.3
0.0067	0.006	0.0045	-0.0015	-68.3
0.0037	0.0045	-0.0008	-0.0015	-68.3
0.0015	0.0037	0.0015	-0.003	-68.3
0.0015	0.003	0.0007	-0.0008	-68.3
-0.0038	0.003	0.0007	0.0007	-68.3
-0.0015	0.0022	0.006	0.003	-68.3
-0.003	0.003	0.0015	0.0007	-68.3
-0.0015	0.0045	0.0037	-0.0008	-68.3
-0.003	0.0037	0.0015	0	-68.3
-0.0038	0.0037	0.0015	-0.0008	-68.3
-0.0038	0.0022	0.0007	0.0022	-68.3
-0.0083	0.0022	-0.0046	0	-68.3
-0.0038	0.0015	-0.0008	0.0015	-68.3
-0.0023	-0.0008	-0.0008	0.0015	-68.3
0.0007	-0.0015	0.0052	0.0015	-68.3
0.0052	-0.0038	0.0045	0.0022	-68.3
0.003	-0.0053	0.003	-0.0008	-68.3
0.0052	-0.0053	0.0045	-0.0008	-68.3
0.003	-0.0068	0.0007	0.0007	-68.3
0.0007	-0.0083	0.006	0.0007	-68.3
0.0007	-0.0083	0.0052	0.0007	-68.3
-0.0038	-0.006	0.0075	0.0015	-68.4
-0.003	-0.003	0.0052	0	-68.4
-0.003	-0.0038	0.0015	-0.0015	-68.4
-0.003	-0.003	0.0045	-0.0008	-68.4
-0.003	-0.0038	-0.0008	-0.0008	-68.4
-0.0023	-0.0053	-0.0015	-0.003	-68.4
0.0007	-0.0046	-0.0038	-0.006	-68.4
0.0022	-0.0046	-0.003	-0.003	-68.4
0.0052	-0.0038	-0.0008	-0.0008	-68.4
0.0015	-0.0046	0	-0.0015	-68.4
0.0015	-0.0046	0.0045	0.0007	-68.4
0.003	-0.0023	0.003	-0.0023	-68.4
-0.003	-0.0038	0.0015	-0.003	-68.4
-0.003	-0.0046	-0.0008	-0.0015	-68.4
-0.0046	-0.0046	-0.0015	-0.003	-68.4
-0.0053	-0.0046	-0.003	0	-68.4
-0.0038	-0.0046	-0.0008	0	-68.4
-0.0008	-0.0038	0.0007	0.0007	-68.4
0.003	-0.0015	0	-0.0015	-68.4
-0.0008	0.0015	0.0045	-0.0015	-68.4
0.0015	0.0007	0.003	0.0015	-68.4
0.0007	0	0.0045	0	-68.4
-0.003	0.0015	0.0015	0	-68.4
-0.0015	0.003	0.0007	-0.0008	-68.4
-0.006	0.003	0.0007	-0.0008	-68.4
-0.0015	0.0037	-0.003	-0.0008	-68.4
-0.0008	0.0045	0.0015	-0.0015	-68.4
-0.003	0.006	0.0007	-0.0008	-68.4
-0.0008	0.0052	0.003	-0.0008	-68.4
-0.0053	0.0045	0.0015	-0.0008	-68.4
-0.0038	0.0052	-0.0008	-0.0008	-68.4
-0.0053	0.0067	0.0045	-0.0008	-68.4
-0.0053	0.0067	0.003	-0.0008	-68.4
0.0007	0.0052	0.0075	-0.003	-68.4
-0.0015	0.0045	0.0045	-0.0038	-68.4
0.0022	0.0045	0.003	-0.0015	-68.4
0	0.003	0.0067	-0.0008	-68.4
-0.0015	0.0015	0.0045	0	-68.4
0.0022	-0.0008	0.0067	0.0015	-68.4
-0.003	0.0007	0.0015	0.0015	-68.4
-0.0008	0.0007	0.0007	0.0015	-68.4
-0.0008	-0.003	0.0015	0	-68.4
-0.0015	-0.003	-0.0023	-0.0015	-68.4
0.0007	-0.0023	-0.0015	0.0007	-68.4
-0.0015	-0.003	-0.0015	0.003	-68.4
0.0007	-0.0015	-0.0015	0.0015	-68.4
-0.0008	-0.0023	-0.0023	0.003	-68.4
0	-0.0046	-0.0008	0.003	-68.4
0.003	-0.0046	0	0.0007	-68.4
0.003	-0.0053	0	-0.0008	-68.4
0.0045	-0.003	0.003	-0.0008	-68.4
0.0045	-0.0046	0.0045	-0.0008	-68.4
0.0007	-0.006	0.0075	-0.0023	-68.4
0	-0.0053	0.0082	-0.003	-68.4
-0.0008	-0.006	0.0082	-0.0008	-68.4
-0.0015	-0.0053	0.0067	-0.0015	-68.4
-0.0015	-0.0053	0.006	-0.0015	-68.4
-0.0008	-0.0046	0.009	-0.0008	-68.4
-0.003	-0.003	0.006	-0.0015	-68.4
-0.003	-0.0015	0.0067	-0.0023	-68.4
0	-0.0008	0.0015	-0.0015	-68.4
-0.0008	-0.0008	-0.0008	-0.0015	-68.4
0.0022	-0.0015	-0.0008	-0.0008	-68.4
0.0022	-0.0008	-0.0038	0.003	-68.4
0	-0.0023	-0.0008	0.003	-68.4
0.0007	-0.0015	0.0007	0.0007	-68.4
-0.003	0.0015	0.0007	0.0015	-68.4
-0.0015	0	0.0007	0.0007	-68.4
0.0015	0.0007	-0.0008	-0.0015	-68.4
0.0015	0.0007	-0.0008	-0.0008	-68.4
0.0037	0.003	-0.0038	0.0022	-68.4
0.0022	0.003	0	0.0015	-68.4
-0.0015	0.0022	-0.0008	0.0022	-68.4
-0.0053	0.003	0	0.0007	-68.4
-0.0091	0.0015	0.0015	0.0007	-68.4
-0.0068	-0.0008	-0.0015	0.0015	-68.4
-0.0053	-0.0008	0.0015	0.0007	-68.4
-0.0046	0.0007	0.0007	0.0007	-68.4
-0.0015	0.0007	0.0015	-0.0008	-68.4
-0.0038	0.0015	0.003	0.0015	-68.4
-0.0008	0.0015	0.0015	-0.0008	-68.4
-0.0008	0.0007	0.003	-0.0008	-68.4
-0.0038	0.003	0.0015	0.0007	-68.4
0.0007	0.0015	0.0015	-0.0015	-68.4
-0.0008	0.003	0.0022	-0.0015	-68.4
0	0.0052	0.0022	-0.003	-68.4
0.003	0.003	0.0037	-0.003	-68.4
0.0015	0.0037	0.0052	-0.0008	-68.4
0.0045	0.003	0.0015	-0.0015	-68.4
0.003	0.0007	0.0015	-0.0015	-68.4
0.0007	0.0022	0.0037	-0.0015	-68.4
0.0007	0.0015	0.0037	-0.0023	-68.4
0	0.0015	0.0045	-0.0015	-68.4
-0.0015	0	0.0015	-0.0008	-68.4
-0.0053	-0.0015	0.0007	-0.0008	-68.4
-0.0046	-0.0008	-0.0015	-0.0023	-68.4
-0.0046	0	0	-0.0015	-68.4
-0.0046	0.0007	0.0007	-0.0008	-68.4
-0.0015	0.0022	-0.0023	-0.0008	-68.4
-0.003	0.0015	-0.003	-0.0008	-68.4
-0.0008	0.0015	-0.0023	-0.0008	-68.4
0.0015	0.0015	0.0022	0	-68.4
-0.0008	0.0045	0.0067	0.0007	-68.4
0.0007	0.0037	0.0075	0.0015	-68.4
0.0007	0.0007	0.0052	0.0007	-68.4
-0.0023	-0.0008	0.0045	0.0007	-68.4
-0.0015	-0.0015	0.0022	0.0007	-68.4
0	-0.0023	0.0007	0	-68.4
-0.0015	-0.0023	0	-0.0008	-68.4
-0.0015	-0.0046	-0.0038	-0.0015	-68.4
-0.0008	-0.0046	-0.0053	-0.0008	-68.4
-0.0023	-0.0046	-0.0053	0	-68.4
-0.0008	-0.003	-0.0023	0.0007	-68.4
0	-0.0008	0.0015	0.0007	-68.4
-0.0023	0.0007	0.0007	0.0015	-68.4
-0.003	0.0022	0.0045	0.0015	-68.4
-0.003	0.0007	0.0067	-0.0008	-68.4
-0.0023	-0.0008	0.0082	-0.0008	-68.4
-0.0008	-0.0008	0.0082	-0.0008	-68.4
-0.0008	-0.0015	0.0015	-0.0008	-68.4
0.0015	-0.0015	0.003	0	-68.4
0.0007	-0.0008	0.003	-0.0015	-68.4
0.0007	-0.0008	0.0045	-0.0008	-68.4
0.0015	-0.0008	0.0052	-0.0008	-68.4
-0.0015	-0.0023	0.003	0	-68.4
-0.0023	-0.0015	0.003	0.003	-68.4
-0.006	-0.0015	-0.0015	0	-68.4
-0.0053	-0.003	-0.003	-0.0008	-68.4
-0.003	-0.0053	-0.0008	0.0007	-68.4
-0.0015	-0.0053	0.0052	-0.0008	-68.4
0.0022	-0.0053	0.0082	-0.0008	-68.4
-0.0015	-0.003	0.0082	-0.0023	-68.4
0	-0.0053	0.009	-0.0015	-68.4
0.0015	-0.0068	0.0045	-0.0008	-68.4
-0.0008	-0.006	0.003	-0.0008	-68.4
0.0045	-0.0083	-0.0008	0	-68.4
0.0015	-0.0083	-0.0008	0.0007	-68.4
0.0015	-0.0068	-0.0053	0.003	-68.4
-0.0008	-0.006	-0.0068	0.0007	-68.4
-0.0046	-0.0075	-0.0015	-0.0015	-68.4
-0.0015	-0.0091	-0.0023	-0.0015	-68.4
-0.0046	-0.0083	0.0045	-0.003	-68.4
-0.0015	-0.0068	0.0015	-0.0008	-68.4
-0.0015	-0.0046	0.0037	-0.0008	-68.4
0	-0.0015	0.0022	-0.0015	-68.4
0.0015	0.0015	-0.0008	-0.0008	-68.4
-0.0046	0.0037	0.0015	-0.0015	-68.4
-0.0015	0.006	-0.0008	-0.0008	-68.4
-0.0038	0.0082	0.0015	-0.0008	-68.4
-0.0038	0.0082	-0.0008	-0.0008	-68.4
-0.0008	0.0067	0.0007	0.0007	-68.4
-0.003	0.0067	0.0022	-0.0008	-68.4
0	0.0045	0.003	-0.0008	-68.4
-0.0023	0.0045	0.0067	0.0015	-68.4
-0.0008	0.0075	0.0037	0.0015	-68.4
0	0.0067	0.003	-0.0008	-68.4
-0.003	0.006	0.0022	-0.0015	-68.4
0.0015	0.0045	-0.0008	0.0007	-68.4
0.0007	0.0022	-0.0008	0.0015	-68.4
0	0.0015	-0.0008	0.003	-68.4
-0.0008	0.0015	-0.0015	0.0015	-68.4
-0.0015	0.0015	-0.0015	0.0015	-68.4
-0.0046	0.0007	0	0.0007	-68.4
-0.0053	0.0015	-0.0015	-0.0008	-68.4
-0.0015	0.0045	0.0007	0.0007	-68.4
-0.0015	0.0052	0.0022	-0.0015	-68.4
0.0007	0.003	0.0037	0.0022	-68.4
0.0022	0.0037	0.003	0.0015	-68.4
-0.0008	0.0037	0.0015	-0.0008	-68.4
0.0007	0.0015	0.0007	0.0015	-68.4
-0.0008	-0.0008	-0.0015	0.0007	-68.4
-0.0008	-0.0015	-0.0008	-0.0015	-68.4
0.0015	-0.003	0.0007	-0.0008	-68.4
0.0015	-0.006	0.0037	-0.0023	-68.4
0.0022	-0.0053	0.0037	-0.0038	-68.4
0.0015	-0.0053	0.0045	-0.0038	-68.4
0.0007	-0.0068	0.0045	-0.0046	-68.4
-0.0015	-0.0053	0.0015	-0.0023	-68.4
-0.0038	-0.003	0.0045	0.0007	-68.4
-0.0008	-0.0023	0.0037	-0.0015	-68.4
-0.0046	-0.0008	0.0052	-0.0008	-68.4
-0.0038	-0.0015	0.0067	-0.0008	-68.4
0.0007	-0.0023	0.0052	0	-68.4
-0.0015	0.0007	0.003	0.0007	-68.4
0.003	0.0007	0.0022	-0.0015	-68.4
0.0045	-0.0008	0.0045	-0.0008	-68.4
0.0015	0	0.003	0	-68.4
0.0045	0	0.0052	0.003	-68.4
0.0015	0.0015	0.0045	0.0015	-68.4
-0.0008	0.0007	0.003	-0.0015	-68.4
0.0015	-0.0015	0.0045	-0.003	-68.3
0.003	-0.0023	0.0007	-0.0053	-68.3
0.0007	0.0007	0.003	-0.0053	-68.3
0.0007	0.0015	0.0007	-0.0053	-68.3
0.003	0.0007	0.0015	-0.003	-68.3
0.0037	0.0007	0.0052	-0.0008	-68.3
0.0037	0.0007	0.0015	0	-68.3
0.0015	0.0015	0.0045	0.003	-68.3
-0.003	0.0015	0.0015	0.0052	-68.3
-0.003	0.003	0.0007	0.0045	-68.3
-0.0053	0.0045	0.003	0.0015	-68.3
-0.0023	0.003	0.0015	0.0045	-68.3
-0.0008	0.003	0.0045	0.0015	-68.3
-0.0015	0.003	0.0015	0.0007	-68.3
-0.0008	0.0022	-0.0008	0.0015	-68.3
-0.0015	0.0015	-0.0023	-0.0008	-68.3
-0.0008	0.0015	-0.0038	0	-68.3
-0.0046	0.0015	-0.0008	-0.0008	-68.3
0	-0.0008	-0.0015	-0.0015	-68.3
0.0007	-0.0015	-0.0008	-0.0015	-68.3
-0.003	-0.0008	0	-0.003	-68.3
-0.0008	-0.0015	0.003	-0.003	-68.3
-0.0046	-0.003	0.0045	-0.0023	-68.3
-0.003	-0.0023	0.0022	-0.003	-68.3
-0.0008	-0.0015	0.0037	-0.0015	-68.3
-0.006	-0.0008	0.0022	-0.0008	-68.3
-0.0015	0.0007	0.0007	-0.0015	-68.3
-0.0046	-0.0008	0	0.0007	-68.3
-0.0083	-0.0015	0.0015	-0.0008	-68.3
-0.0068	-0.003	0.0015	0.0007	-68.3
-0.0083	-0.0023	0.0022	0.0015	-68.4
-0.0046	-0.0023	0.0045	0	-68.4
-0.0046	-0.0008	0.0015	0.0007	-68.4
-0.0023	0.0007	0.003	-0.0008	-68.4
-0.0015	0.0007	0.0015	0.0015	-68.4
-0.0023	0.0015	-0.0008	0.0007	-68.4
0.0015	0.0007	0.0022	-0.0015	-68.4
0	0.0007	0.0007	-0.0015	-68.4
0.0015	0	0.003	-0.0015	-68.4
0.0022	-0.0023	0.0007	0.0007	-68.4
-0.0015	-0.0038	-0.0015	0.003	-68.4
0	-0.0046	0.0015	-0.0015	-68.4
-0.0015	-0.0015	-0.003	-0.0015	-68.4
-0.0015	-0.0015	-0.003	-0.0015	-68.4
0	-0.0015	-0.0015	-0.0015	-68.4
0.0015	-0.0023	0	0.0007	-68.4
0.0022	-0.003	0.0037	0	-68.4
-0.0008	-0.003	0.0015	0.0015	-68.4
0.0007	-0.003	0.0022	0	-68.4
-0.0008	-0.0015	0.0052	0.0007	-68.4
0.0015	-0.0008	0.0067	0.003	-68.4
0.0082	0.0015	0.0045	0.0015	-68.4
0.0022	0.0015	0.0045	-0.0008	-68.4
0.003	0.0015	0.003	-0.0015	-68.4
0.0015	0	0.0015	-0.0015	-68.4
-0.0046	-0.0008	0.003	-0.0015	-68.4
0.0007	0.0007	0.0015	-0.0008	-68.4
0	0	0.0015	0.0022	-68.4
0.0007	0.0022	0.003	0.003	-68.4
0.003	0.0015	0.006	0.0015	-68.4
0.0007	0.0022	0.0075	0.0007	-68.4
0.003	0.0015	0.0045	-0.0008	-68.4
0.0015	-0.0015	0.0015	-0.0008	-68.4
-0.0008	0.0007	-0.0015	0	-68.4
-0.0008	0.0007	-0.0015	-0.0008	-68.4
-0.003	0.0015	-0.0023	-0.0008	-68.4
-0.0015	0.0007	-0.0008	0.0007	-68.4
-0.006	0.0007	-0.0008	-0.0008	-68.4
-0.006	0.0007	-0.003	0	-68.4
-0.0053	-0.0015	-0.003	0	-68.4
-0.0053	0	-0.0015	0.0007	-68.4
-0.0023	-0.0008	0.0007	0.0007	-68.4
-0.0015	0.0015	0.0022	0.0007	-68.4
0.0037	0	0.0045	0.0015	-68.4
0.003	-0.0015	0.003	-0.0008	-68.4
-0.0008	-0.0008	0.0015	0.0007	-68.4
0.0007	-0.0023	0.0037	0.0007	-68.4
0	-0.0015	0	0.0007	-68.4
-0.003	-0.0015	0.0015	0.0007	-68.4
-0.0046	-0.0015	0	0	-68.4
-0.0046	-0.0015	0	0.0007	-68.4
-0.0046	-0.0015	0.0045	-0.0008	-68.4
-0.003	-0.0008	0.0045	-0.0015	-68.4
-0.0008	-0.0008	0.0037	-0.003	-68.4
-0.0008	-0.0008	0.003	-0.0008	-68.4
-0.0008	-0.0023	0.0052	0.0007	-68.4
-0.0015	-0.0015	0.0007	0	-68.4
-0.0023	-0.0008	0.003	0.0015	-68.4
-0.0015	0.0007	0.0037	0	-68.4
-0.0015	0.0022	0.0037	-0.0015	-68.4
-0.0008	0.003	0.0067	-0.003	-68.4
-0.0008	0.0022	0.0022	-0.0023	-68.4
-0.0015	0.0007	0.0052	-0.0008	-68.4
0.0007	0.0022	0.0075	0	-68.4
0.0015	0.0052	0.0045	0	-68.4
-0.0015	0.006	0.0052	-0.0008	-68.4
-0.0023	0.0045	0.0007	0	-68.4
-0.0053	0.0022	0.0015	-0.0008	-68.4
-0.003	0	0.0015	-0.0008	-68.4
-0.0008	0.0015	-0.0046	-0.0008	-68.4
-0.0008	0.003	-0.0015	-0.003	-68.4
0.0015	0.003	-0.0038	-0.003	-68.4
0.0015	0.0015	-0.0046	-0.0038	-68.4
0.0022	-0.0008	0	-0.0053	-68.4
0.0045	0.0007	-0.0008	-0.003	-68.4
0.0022	0.0007	0.0015	0.0007	-68.4
0.0007	0.003	-0.0008	-0.0015	-68.4
0.0015	0.0045	0.0022	0.0007	-68.4
-0.0008	0.003	0.0022	0.0015	-68.4
-0.0015	0.003	0.0007	0.0015	-68.4
-0.0015	-0.0008	0.003	0.003	-68.4
-0.0008	-0.003	-0.0008	0.0015	-68.4
0	-0.0053	0.0015	0.0015	-68.4
0.0007	-0.0075	-0.0015	0.0015	-68.4
0.0022	-0.0083	-0.0023	0.0007	-68.4
0.0007	-0.0075	-0.0008	0	-68.4
0.0022	-0.0068	-0.0008	-0.0015	-68.4
0.0007	-0.0098	0.0007	-0.0015	-68.4
0	-0.0105	0.0007	-0.0008	-68.4
0	-0.0105	0.0037	-0.0008	-68.4
-0.0023	-0.0083	0.0037	-0.0015	-68.3
-0.0008	-0.0075	0.0052	-0.0008	-68.3
-0.0023	-0.0053	0.0052	-0.0023	-68.3
-0.0015	-0.003	0.0022	-0.003	-68.3
-0.0015	-0.0023	0.0015	-0.0008	-68.3
-0.0053	0	-0.0015	0.0007	-68.3
-0.0046	0.003	-0.0008	0.003	-68.3
-0.0046	0.0045	-0.0008	0.0015	-68.3
-0.0038	0.0045	-0.0023	-0.0023	-68.3
-0.0015	0.006	0.0037	-0.0015	-68.3
-0.0046	0.0045	0.0082	-0.0008	-68.3
-0.0015	0.0007	0.0105	-0.0015	-68.3
-0.0023	0.0015	0.012	0.0007	-68.3
-0.0008	0.003	0.009	0	-68.3
0.0007	0.0015	0.0082	0	-68.3
0.0007	0.0022	0.0052	0.0015	-68.3
0.0037	0.0015	0.0007	0.0022	-68.3
0.0007	0.0015	-0.0015	0.003	-68.3
-0.0023	0.003	-0.0008	0.0007	-68.3
-0.0046	0.0022	0.0015	0.003	-68.3
-0.0068	0.0015	0.0022	0	-68.3
-0.006	0.0045	0.003	-0.0023	-68.3
-0.0053	0.003	0.0045	0.0007	-68.3
-0.0046	0.003	0.0037	0	-68.3
-0.0046	0.0045	0.0007	0.0015	-68.3
0	0.0045	0.0022	0.0015	-68.3
0.0015	0.003	0.0007	0.0007	-68.3
0.0007	0.0015	0.0007	0.0015	-68.3
0.0052	0.0022	-0.0008	0	-68.3
0.0037	0.003	-0.003	0.0007	-68.3
0.0052	0.0022	-0.0015	-0.0023	-68.3
0.0045	0.0015	-0.006	-0.003	-68.3
0.0015	-0.0008	-0.0046	-0.0015	-68.3
0.0007	-0.0023	-0.003	-0.0015	-68.3
0.0007	-0.003	-0.0023	-0.0008	-68.3
0.0007	-0.0046	0.003	-0.0008	-68.3
-0.0008	-0.0053	0.0037	-0.0008	-68.3
0	-0.0046	0.009	-0.0008	-68.3
-0.0015	-0.0053	0.0082	0	-68.3
-0.0008	-0.003	0.0067	-0.0015	-68.3
0	-0.0008	0.0052	-0.0023	-68.3
-0.006	0	0.0007	-0.0008	-68.3
-0.0053	-0.0008	0.0037	-0.0015	-68.3
-0.0053	-0.0015	0	-0.0015	-68.3
-0.0046	0.0007	0.0015	-0.0023	-68.3
-0.0015	0.0022	-0.0008	-0.0015	-68.3
0.0007	0.0022	-0.003	-0.0015	-68.3
0.0022	0.0007	0.0015	-0.0008	-68.3
0	-0.0008	-0.0015	0	-68.3
0.0007	-0.0008	0.0015	0.0007	-68.3
-0.003	-0.0015	0.0007	0.0015	-68.3
-0.0075	-0.0023	0.0007	0.0015	-68.3
-0.0046	0	0.0007	0.0007	-68.3
-0.0083	0.0007	-0.0015	-0.0008	-68.3
-0.006	0.003	0	0.0007	-68.3
0	0.0022	0.003	-0.0015	-68.3
-0.0008	0	0.006	-0.0023	-68.3
0.003	0.0007	0.0052	-0.003	-68.3
0.0015	0.0022	0.0045	-0.003	-68.3
0.0015	0.0007	0.0045	-0.0008	-68.3
0.0022	0.003	0.0007	-0.0023	-68.3
-0.0023	0.0015	-0.0008	-0.0008	-68.3
-0.0008	0	-0.0008	0.003	-68.3
-0.0008	0.003	0.0007	0.0075	-68.3
0.0007	0.0045	0.0015	0.009	-68.3
0.0045	0.0045	0.0015	0.009	-68.3
0.003	0.0015	0.0015	0.0045	-68.3
0.003	-0.0008	0.0015	0.0007	-68.3
0.003	-0.0008	0.0015	0.0007	-68.3
0	-0.0008	-0.0008	-0.0023	-68.3
-0.0023	0.0007	-0.0015	-0.0083	-68.4
-0.0015	0.0015	-0.0023	-0.0083	-68.4
-0.0015	0.0007	-0.0015	-0.0098	-68.4
-0.0015	0.0015	0.0015	-0.0113	-68.4
0	0.0022	0.003	-0.0083	-68.4
0.0015	0	0.003	-0.0068	-68.4
0.0015	-0.0015	0.0015	-0.0038	-68.4
0.0007	-0.0046	0.0007	-0.003	-68.4
0.0007	-0.0053	0.0007	-0.003	-68.4
-0.0046	-0.0053	-0.0008	-0.0008	-68.4
-0.0046	-0.0075	0.0007	0.0015	-68.4
-0.003	-0.0075	0.0045	0.0037	-68.4
-0.0046	-0.0068	0.0045	0.0015	-68.4
-0.003	-0.0083	0.0067	0.003	-68.4
-0.003	-0.0068	0.003	0.0022	-68.4
-0.003	-0.0038	0.003	0.0022	-68.4
-0.0008	-0.0046	0.0015	0.0052	-68.4
-0.0008	-0.0046	0.0007	0.0015	-68.4
0.0015	-0.0046	0.0052	0.0007	-68.4
0.0045	-0.0068	0.0015	-0.0023	-68.4
0.0015	-0.0083	0.0037	-0.003	-68.4
0.0022	-0.0075	0.0045	-0.0008	-68.4
0.0045	-0.0068	0.0037	-0.0023	-68.4
0.0045	-0.006	0.0022	-0.0008	-68.4
0.0015	-0.0083	-0.0015	0.0007	-68.4
-0.0015	-0.0105	-0.0023	0.0015	-68.4
-0.003	-0.0098	-0.0023	0.0022	-68.4
-0.0053	-0.0075	0	0.0022	-68.4
-0.0038	-0.0075	0.0015	0.0045	-68.4
-0.0023	-0.0053	0.0015	0.0045	-68.4
-0.003	-0.0015	0.0015	0.0037	-68.4
-0.0015	-0.0008	0.0037	0.0015	-68.4
0.0007	0.0015	0.0045	-0.0008	-68.4
-0.0008	0.0052	0.0037	-0.0015	-68.4
-0.0015	0.0082	0.003	-0.003	-68.4
-0.0015	0.0105	0.0052	-0.0015	-68.4
-0.0023	0.0112	0.0045	-0.003	-68.4
-0.0015	0.0112	0.0007	-0.0023	-68.4
0.0007	0.012	0.0015	-0.0015	-68.4
0.0007	0.009	0.0007	-0.0008	-68.4
0.0045	0.006	0.003	0.0037	-68.4
0.0045	0.0052	0.003	0.003	-68.4
0.003	0.0052	0.0037	0.0015	-68.4
0.0007	0.0052	0.0045	0.0007	-68.4
-0.0008	0.0045	0.003	0	-68.4
-0.0015	0.0015	0.003	-0.0015	-68.4
-0.003	0.0015	0.003	-0.0015	-68.4
-0.0046	0.0037	0.0052	-0.003	-68.4
-0.0083	0.0022	0.0045	-0.003	-68.4
-0.0091	0	0.0045	-0.003	-68.4
-0.0091	0.0007	0.0045	-0.003	-68.4
-0.0053	0.0022	0.0022	-0.0015	-68.4
-0.003	0.003	0.0015	-0.0015	-68.4
-0.0023	0.0015	-0.003	0.003	-68.4
0.0015	0.003	-0.0015	0.0067	-68.4
-0.0015	0.0022	-0.0008	0.0082	-68.4
-0.0038	-0.0015	0.0007	0.0075	-68.4
-0.0053	-0.003	0.003	0.003	-68.4
-0.0068	-0.0038	0.0007	0.0015	-68.4
-0.0053	-0.0053	0.0022	-0.0038	-68.4
-0.0083	-0.0046	0.0037	-0.0091	-68.4
-0.0068	-0.0023	0.003	-0.0105	-68.4
-0.006	-0.0008	0.0045	-0.0091	-68.4
-0.0015	0.003	0.0015	-0.0068	-68.4
0.0165	0.0045	0.003	-0.0038	-68.4
0.0292	0.0037	0.0037	0.0007	-68.5
0.0382	0.0052	-0.003	0.0022	-68.5
0.0337	0.0052	-0.0053	0.0015	-68.5
0.021	0.0052	-0.0075	0.0007	-68.5
0.0097	0.0067	-0.006	0.0007	-68.5
-0.0091	0.0067	-0.0046	-0.0008	-68.6
-0.0203	0.003	-0.0023	-0.0038	-68.6
-0.0293	-0.0015	0.003	-0.0046	-68.6
-0.0346	-0.0015	0.0045	-0.0008	-68.6
-0.0315	-0.0015	0.0082	0.0052	-68.6
-0.027	-0.0023	0.009	0.0052	-68.6
-0.0128	-0.0023	0.0105	0.0052	-68.7
-0.0038	-0.0038	0.0105	0.0022	-68.7
0.0112	-0.0038	0.0105	0.0015	-68.7
0.0285	-0.0023	0.0082	0.0052	-68.7
0.027	-0.0015	0	0.0045	-68.8
0.0247	-0.0008	-0.0015	0.0082	-68.8
0.0142	-0.0023	-0.0053	0.0105	-68.8
0.0007	-0.003	-0.0038	0.0105	-68.8
-0.0008	-0.0046	-0.0015	0.0082	-68.8
-0.0046	-0.0046	0.0015	0.0045	-68.9
-0.0023	-0.003	0.0052	0.0007	-68.9
-0.003	-0.0015	0.0015	-0.0046	-68.9
-0.0091	0.0067	0.003	-0.0083	-68.9
-0.0105	0.0142	0	-0.0113	-68.9
-0.0128	0.0067	-0.0015	-0.012	-69
-0.0128	0.0007	0.0007	-0.0053	-69
-0.0113	-0.0008	-0.0038	0.0052	-69
-0.0083	-0.006	-0.0068	0.0142	-69.1
-0.0046	-0.0068	-0.0091	0.0142	-69.1
-0.003	-0.0091	-0.0075	0.0127	-69.1
-0.0008	-0.0105	-0.0068	0.0112	-69.2
0	-0.0105	-0.0053	0.0045	-69.2
-0.0015	-0.012	-0.0015	-0.0068	-69.2
-0.0046	-0.0098	-0.0015	-0.015	-69.2
-0.0083	-0.0083	0.0015	-0.0195	-69.3
-0.0068	-0.0038	0.0045	-0.021	-69.3
-0.0053	-0.0053	0.0082	-0.0195	-69.3
-0.0053	-0.0068	0.0082	-0.0225	-69.4
-0.012	-0.006	0.009	-0.0233	-69.4
-0.027	-0.006	0.0105	-0.024	-69.5
-0.0346	-0.0046	0.0082	-0.024	-69.5
-0.0315	-0.0053	0.0082	-0.0233	-69.5
-0.0143	-0.0046	0.009	-0.0188	-69.6
0.012	-0.0046	0.0052	-0.0128	-69.6
0.039	-0.0046	0.0045	-0.0091	-69.7
0.0607	-0.0038	0.0067	-0.0046	-69.7
0.072	-0.0023	0.006	-0.0015	-69.8
0.0802	-0.0023	0.0052	-0.0015	-69.8
0.057	-0.0015	0.0007	0.0015	-69.8
0.0202	0.0022	-0.0046	0.006	-69.9
-0.0105	0.003	-0.0068	0.009	-69.9
-0.0465	0.006	-0.0046	0.0157	-69.9
-0.0578	0.0075	-0.0053	0.018	-70
-0.06	0.0067	-0.0046	0.0157	-70
-0.048	0.009	-0.003	0.0165	-70.1
-0.0195	0.0082	-0.003	0.0157	-70.1
-0.003	0.0082	0.003	0.015	-70.2
0.012	0.0082	0.0037	0.0157	-70.2
0.0157	0.0052	0.0067	0.015	-70.3
0.0127	0.003	0.009	0.0142	-70.3
0.0157	0.0015	0.0082	0.012	-70.4
0.0157	-0.0008	0.0105	0.0097	-70.4
0.0165	0	0.0007	0.0067	-70.5
0.0165	-0.0015	0.0007	0.0052	-70.5
0.0142	-0.0008	0.003	0.0052	-70.6
0.0097	-0.0008	0.0052	0.0045	-70.7
0.0007	-0.0015	0.009	0.0045	-70.7
-0.006	-0.0008	0.0045	0.003	-70.7
-0.0113	-0.0015	0.0082	0.0045	-70.8
-0.0135	0	0.0022	0.003	-70.8
-0.0113	0.0037	0.0045	-0.0023	-70.9
-0.012	0.0015	0.006	-0.006	-71
-0.0128	0	0.0022	-0.0091	-71
-0.0158	-0.0015	0.0067	-0.012	-71.1
-0.0195	-0.0038	0	-0.0105	-71.1
-0.0083	-0.0008	-0.0023	-0.0105	-71.1
0.003	0.0007	-0.0068	-0.0098	-71.2
0.0015	0.0015	-0.0068	-0.0053	-71.2
0.0045	0.003	-0.0023	0.0022	-71.3
-0.0008	0.0007	-0.003	0.018	-71.4
-0.0068	0	0.003	0.0255	-71.4
-0.0068	-0.0008	0.0067	0.0232	-71.5
-0.0068	-0.0038	0.012	0.0135	-71.5
-0.0053	-0.0038	0.0112	0.0007	-71.6
-0.0053	-0.0038	0.0052	-0.0046	-71.6
-0.0068	-0.003	0.0007	-0.0105	-71.7
-0.0068	0.0007	-0.006	-0.0105	-71.7
-0.0023	0.0015	-0.0068	-0.0075	-71.8
0.0037	0.0045	-0.0046	-0.006	-71.8
0.0067	0.0052	-0.0015	-0.0046	-71.9
0.003	0.0045	0.0015	-0.0038	-71.9
-0.003	0.003	0.0052	0	-72
-0.0091	0.0015	0.0052	-0.0008	-72
-0.0181	0.0007	0.0052	-0.003	-72.1
-0.021	-0.0008	0.006	-0.0046	-72.2
-0.0143	-0.0038	0.0015	-0.0075	-72.2
0.0007	-0.006	0.0007	-0.0068	-72.2
0.0187	-0.006	0	-0.0068	-72.2
0.0112	-0.0083	0.0007	-0.0083	-72.3
-0.0053	-0.0098	0.003	-0.0091	-72.3
-0.006	-0.0105	0.0045	-0.0091	-72.3
0.003	-0.0091	0.0015	-0.0068	-72.4
0.0315	-0.006	-0.0053	-0.006	-72.4
0.0562	-0.0068	-0.0068	-0.0053	-72.5
0.0495	-0.006	-0.0091	-0.0023	-72.5
0.024	-0.006	-0.0053	-0.003	-72.5
0.003	-0.0053	-0.0053	-0.0015	-72.5
-0.012	-0.0023	-0.0053	-0.0008	-72.6
-0.0218	0.0007	-0.003	0.0015	-72.6
-0.0173	0.0052	-0.0015	0.0075	-72.6
-0.0158	0.0067	0.0082	0.0105	-72.7
-0.0075	0.0067	0.0105	0.009	-72.7
0.0045	0.0067	0.0135	0.0067	-72.7
0.0075	0.0052	0.0127	0.0045	-72.8
0.0105	0.0045	0.0112	0.0007	-72.9
0	0.0015	0.012	0.0007	-72.9
-0.0091	0.003	0.0075	0.0007	-72.9
-0.0158	0.0045	0.003	0.0007	-72.9
-0.0218	0.003	-0.0038	0	-72.9
-0.0195	0.0037	-0.0053	-0.0015	-72.9
-0.0256	0.0022	-0.003	-0.0008	-72.9
-0.0233	0.0015	0.0007	-0.0015	-72.9
-0.0195	0.0022	0.0007	-0.003	-72.9
-0.0128	0.003	0.0045	-0.003	-73
0.0112	0.0007	0.0127	-0.0015	-73
0.0292	0.0007	0.0172	-0.003	-73
0.033	-0.0008	0.018	-0.0053	-73
0.021	-0.0015	0.0105	-0.0053	-73
0.0082	-0.0008	0.0045	-0.006	-73.1
0.0067	-0.0023	0	-0.006	-73.1
0.0082	-0.003	0	-0.0053	-73.1
0.0052	-0.0046	0.0022	-0.003	-73.1
0.006	-0.0038	0.0015	0.0007	-73.1
0.0052	-0.0008	0.0007	0.0037	-73.2
0.003	-0.0008	-0.0053	0.0067	-73.2
0.0052	-0.0008	-0.0083	0.0082	-73.2
-0.0008	-0.0023	-0.0105	0.009	-73.2
-0.0053	-0.003	-0.0075	0.0075	-73.2
-0.0068	-0.0015	-0.0015	0.0067	-73.3
-0.006	-0.0015	-0.006	0.0045	-73.3
-0.0053	-0.0008	-0.0091	-0.0008	-73.3
-0.0053	-0.0008	-0.0091	-0.0015	-73.3
0.003	-0.0015	-0.0091	-0.0015	-73.4
0.0067	0	-0.0046	0.0007	-73.4
0.012	0.0007	-0.0053	0.0015	-73.4
0.0142	0.0007	-0.003	0.0022	-73.4
0.009	-0.0015	0.0015	0.0037	-73.4
0.012	-0.003	0.0007	0.0037	-73.4
-0.0008	-0.003	0.0037	0.0045	-73.4
-0.006	-0.0008	0.003	0.006	-73.5
-0.012	0.0007	0.0052	0.0052	-73.5
-0.024	0.0007	0.009	0.0015	-73.5
-0.0195	-0.0008	0.0082	-0.0023	-73.5
-0.0203	-0.0015	0.0105	-0.0083	-73.6
-0.0105	-0.0015	0.0067	-0.0128	-73.6
-0.003	-0.0023	0.009	-0.015	-73.6
0.0037	0.0007	0.012	-0.0158	-73.6
0.015	0.0037	0.0112	-0.0158	-73.6
0.0112	0.003	0.0127	-0.0158	-73.7
0.0082	0.003	0.0052	-0.015	-73.7
-0.003	0.0007	0.0022	-0.0105	-73.7
-0.0105	-0.0023	-0.0015	-0.0053	-73.8
-0.0105	-0.0015	-0.0053	-0.0038	-73.8
-0.0165	0	-0.0008	-0.0008	-73.8
-0.0113	0.0007	-0.003	0.0015	-73.8
-0.0091	0.0015	0	0.0007	-73.8
-0.0053	0.0015	0.0007	0.0015	-73.8
0.0045	0.0015	0.0007	0.0045	-73.8
0.0067	0.0022	0.0015	0.0067	-73.9
0.0052	0.0045	-0.0008	0.0082	-73.9
-0.0053	0.0052	0.0007	0.0082	-73.9
-0.0098	0.0067	-0.003	0.0052	-74
-0.0158	0.0075	-0.003	0.0045	-74
-0.0158	0.0067	-0.0015	0.0052	-74
-0.0098	0.006	-0.0038	0.0052	-74.1
-0.0181	0.0067	-0.0008	0.0052	-74.1
-0.0158	0.006	-0.0008	0.0045	-74.1
-0.0075	0.0007	0.0037	0.0045	-74.1
-0.0008	-0.003	0.0052	0.0015	-74.1
0.0142	-0.0015	0.0045	0.003	-74.1
0.0217	-0.0008	0.0045	0.0015	-74.1
0.0367	0.0007	0.0037	-0.0008	-74.1
0.042	0.0037	0.0052	-0.0023	-74.1
0.0315	0.0037	0.003	-0.0023	-74.1
0.0202	0.0037	0.0015	-0.0015	-74.2
0.0022	0.0037	0.0015	-0.0015	-74.2
-0.012	0.0007	0.0045	0.0015	-74.2
-0.0278	0.0007	0.0075	0.0022	-74.2
-0.0368	0.0015	0.0067	0.0052	-74.2
-0.033	0.0022	0.006	0.0067	-74.2
-0.0218	0.0015	0.0022	0.003	-74.2
0.0015	0.0007	0.0007	0.0037	-74.2
0.024	0.0015	0.0022	0.0015	-74.2
0.0367	0.0007	-0.0008	0	-74.3
0.033	0.0015	-0.0015	-0.0008	-74.3
0.0247	0.0015	-0.0053	-0.0015	-74.3
0.0165	0.003	-0.0053	-0.0008	-74.3
0.0082	0.003	-0.0053	-0.0015	-74.3
0.0022	0.0015	-0.0053	-0.0038	-74.3
-0.0083	0.0007	0.0007	-0.0023	-74.3
-0.0195	-0.0008	0.0007	0	-74.3
-0.0323	0	0.0082	0.0007	-74.3
-0.0458	0.0015	0.0112	0	-74.3
-0.0428	0.0022	0.0075	-0.0008	-74.4
-0.027	0.0045	0.0082	0.0007	-74.4
-0.0105	0.0037	0	0.0037	-74.4
0	0.0037	0.0015	0.003	-74.4
0.0045	0.0015	-0.0008	0.003	-74.4
-0.0038	0.0007	-0.0038	0.0045	-74.4
-0.0143	-0.0008	-0.0008	0.0022	-74.5
-0.0203	-0.0015	-0.0046	0.0015	-74.5
-0.0195	-0.0015	0.0015	-0.0015	-74.5
-0.0143	-0.0015	0.0007	-0.003	-74.5
-0.0083	-0.0008	-0.0008	-0.0015	-74.5
-0.0023	0	0.0015	-0.0046	-74.6
0.003	0.0007	-0.003	-0.006	-74.6
0.0142	-0.0023	0.0015	-0.0053	-74.6
0.0217	-0.003	-0.0008	-0.003	-74.6
0.018	0	-0.0008	-0.0015	-74.6
0.0127	-0.0008	0.0052	-0.0008	-74.6
0.0045	0.0007	0.012	-0.0015	-74.6
-0.0046	0.0007	0.0165	-0.003	-74.6
-0.0135	-0.0008	0.0142	-0.0015	-74.7
-0.0218	-0.0038	0.0112	-0.0008	-74.7
-0.0233	-0.0053	0.0045	-0.003	-74.7
-0.0256	-0.0068	-0.0038	-0.0046	-74.7
-0.0203	-0.0091	-0.0053	-0.0046	-74.7
-0.0091	-0.0075	-0.006	-0.0046	-74.7
-0.0008	-0.0075	-0.006	-0.0015	-74.7
0.0052	-0.0075	-0.0053	-0.0015	-74.7
0.0037	-0.0053	-0.0046	-0.0008	-74.8
0.0015	-0.0046	-0.003	0.0022	-74.8
-0.0008	-0.0015	-0.0015	0.003	-74.8
-0.006	-0.0008	0.0015	0.006	-74.8
-0.0046	-0.0015	-0.0008	0.006	-74.9
-0.0075	-0.0015	0.003	0.0045	-74.9
-0.0046	-0.0038	0.0052	0.0022	-74.9
-0.0046	-0.0038	0.0075	-0.0023	-74.9
-0.003	-0.0038	0.012	-0.003	-74.9
0.003	-0.0015	0.0067	-0.0053	-74.9
0.0052	0.0007	0.0067	-0.0053	-74.9
0.0127	0	0.003	-0.006	-74.9
0.0135	0.0015	0.0037	-0.0083	-74.9
0.012	-0.0015	0.0022	-0.0038	-74.9
0.0082	0	-0.0015	-0.003	-74.9
0.0045	0	0	-0.0015	-74.9
0.0015	0.0007	-0.0053	0.0007	-74.9
-0.0053	-0.0008	-0.003	-0.0008	-74.9
-0.0068	-0.0023	-0.003	0.0007	-74.9
-0.0023	-0.0015	-0.0015	0.0007	-74.9
0.0007	-0.0053	-0.0008	0.0007	-74.9
0.0105	-0.0046	-0.0008	0.0022	-74.9
0.0157	-0.0046	0	0.0015	-74.9
0.015	-0.0038	-0.003	0.0015	-74.9
0.012	-0.0023	0.0015	0.003	-75
0.0082	-0.0015	-0.0015	0.003	-75
-0.0008	0.0015	0.0015	0.0045	-75
-0.0105	0.0007	0.003	0.0007	-75
-0.0165	0.0007	0.0037	-0.0023	-75
-0.0195	-0.0015	0.0112	0	-75
-0.0053	0.0007	0.009	0.0015	-75
0.012	0.0022	0.0165	0.003	-75
0.018	0.003	0.0157	0.0022	-75
0.0105	0.0045	0.0105	0	-75
0.0067	0.0007	0.0082	-0.0008	-75
0.0067	0.0015	-0.0015	-0.0046	-75
-0.0008	0.0022	-0.0015	-0.0053	-75
-0.0023	0.0022	-0.0083	-0.0068	-75
-0.0023	0.0022	-0.0075	-0.0053	-75
0.012	-0.0008	-0.0068	-0.0075	-75
0.0202	-0.0023	-0.0046	-0.006	-75
0.012	-0.0038	0.0045	-0.0015	-75
0.0082	-0.0046	0.0052	-0.003	-75
-0.003	-0.0046	0.0105	-0.0038	-75
-0.0091	-0.006	0.0067	-0.006	-75
-0.0091	-0.0068	0.0045	-0.0015	-75
-0.012	-0.003	0.003	0.0015	-75
-0.0105	-0.0008	-0.003	0.0015	-75
-0.015	0.0015	-0.0008	0.0052	-74.9
-0.0105	0.003	-0.003	0.0045	-74.9
-0.0075	0.0022	0	0.0037	-74.9
-0.0068	0.0045	-0.0008	0.0037	-74.9
0.0007	0.0052	-0.003	0.0045	-74.9
0.0007	0.0052	-0.0008	0.0052	-74.9
0.009	0.0045	0	0.0052	-74.9
0.0217	0.0045	0.006	0.0052	-74.9
0.0232	0.003	0.0052	0.0037	-74.9
0.0195	0.0045	0.0045	0.003	-74.9
0.0097	0.0037	0.0045	0.0037	-74.9
0.0052	-0.0008	0	0.003	-74.9
-0.0015	0.0007	0.0007	0.003	-74.9
-0.003	0.0007	-0.0008	0.0007	-74.8
-0.0046	0.0007	0.003	-0.0008	-74.8
-0.006	0.0015	0.0015	0.0015	-74.8
0	0	-0.0008	0.0007	-74.8
-0.0046	-0.0008	0.0007	0	-74.8
-0.0083	-0.0008	-0.0008	-0.0015	-74.8
-0.006	-0.003	0.0037	-0.0038	-74.8
-0.0083	-0.0038	0.0022	-0.0046	-74.8
-0.0068	-0.0015	0.0015	-0.0046	-74.8
-0.0068	0.0015	0.0015	-0.0046	-74.8
-0.0068	0.0007	0.0007	-0.003	-74.7
-0.0046	0.0007	0.0037	-0.0008	-74.7
-0.0046	-0.0008	0.0015	-0.0015	-74.7
0	-0.0023	0.0022	-0.0015	-74.7
-0.003	-0.0053	0.0015	-0.0008	-74.7
-0.0053	-0.0068	0.0015	-0.003	-74.7
-0.0046	-0.0053	0.0022	-0.003	-74.7
-0.0046	-0.0068	0.0007	-0.0023	-74.7
-0.0015	-0.0068	-0.0008	-0.0015	-74.7
-0.0015	-0.0083	0	-0.0008	-74.7
-0.0046	-0.0068	0.0045	0.003	-74.7
-0.006	-0.006	0.006	0.0022	-74.6
-0.0068	-0.0083	0.0045	0.0015	-74.6
-0.0038	-0.0046	0.0037	0.0015	-74.6
-0.0023	-0.0046	0.0015	-0.0015	-74.6
-0.0008	-0.003	0.0007	-0.0015	-74.6
0.0097	0.0007	0.0045	-0.0015	-74.6
0.0247	-0.0008	0.006	-0.0046	-74.5
0.0202	0	0.0045	-0.0038	-74.5
0.009	0.003	0.006	-0.0015	-74.5
0.003	0.0045	0.0045	-0.0015	-74.5
-0.0128	0.0045	0.0045	-0.0008	-74.4
-0.0143	0.0052	0.0022	0	-74.4
-0.0083	0.0045	0.0015	0.0015	-74.4
-0.0091	0.0045	0.0007	0	-74.4
-0.0015	0.003	-0.003	0.0015	-74.4
-0.0015	0.0015	-0.003	0.0045	-74.3
0.0007	0.0007	-0.0023	0.0045	-74.3
0.0015	-0.0008	0.0045	0.0052	-74.3
-0.003	0.0022	0.0037	0.0015	-74.3
-0.0008	0.003	-0.0008	0.0007	-74.3
-0.006	0.0052	-0.0015	-0.0008	-74.3
-0.0053	0.0052	-0.003	0.0007	-74.2
-0.003	0.0045	-0.0008	0.0022	-74.2
-0.0068	0.0045	0.0007	0.003	-74.2
-0.003	0.0022	0.0045	0.003	-74.2
-0.006	0.006	0.0037	0.0007	-74.1
-0.0053	0.0045	0.0015	0.0007	-74.1
-0.0091	0.0015	0.0007	-0.0008	-74.1
-0.0128	0.0007	-0.0038	-0.003	-74.1
-0.0158	-0.0015	-0.0053	-0.0038	-74
-0.0203	-0.0008	-0.0053	-0.0068	-74
-0.0128	0.0015	-0.0008	-0.0083	-74
-0.0053	-0.0008	-0.0008	-0.0068	-73.9
0.0097	-0.003	0.0045	-0.0023	-73.9
0.0217	-0.0046	0.0067	-0.0015	-73.9
0.0217	-0.0046	0.0045	-0.0015	-73.9
0.0277	-0.0015	0.012	0	-73.8
0.0307	-0.0023	0.0127	-0.0015	-73.8
0.0315	0.0007	0.0157	0	-73.8
0.018	0.0015	0.018	0.0015	-73.8
-0.003	0.0015	0.0097	0.003	-73.8
-0.0188	0.0045	0.003	0.0052	-73.8
-0.0218	0.0045	-0.0046	0.0052	-73.7
-0.006	0.0045	-0.0083	0.0045	-73.7
0.0105	0.003	-0.0083	0.003	-73.6
0.027	0.0007	-0.0046	0.0022	-73.6
0.03	0.0022	0	0.0015	-73.6
0.0195	0.0022	0.0037	0.0022	-73.5
0.0112	0.0015	0.0052	0.0015	-73.5
-0.0143	0.0007	0.0045	0.0015	-73.4
-0.0346	-0.0008	-0.0008	0.0015	-73.4
-0.0375	-0.0008	0.0015	-0.0008	-73.4
-0.0353	-0.0023	-0.0038	-0.0053	-73.4
-0.024	-0.003	-0.0091	-0.0113	-73.3
-0.0181	-0.0038	-0.0075	-0.0091	-73.3
-0.0075	-0.003	-0.0091	-0.0068	-73.3
0.003	-0.0023	-0.0046	-0.0046	-73.2
0.0135	-0.0008	0.0007	-0.0008	-73.2
0.0217	0.0015	0.0052	-0.0008	-73.1
0.0157	-0.0008	0.0067	-0.0008	-73.1
0.0135	-0.003	0.0067	-0.0015	-73.1
0.0052	-0.0053	0.0075	-0.0015	-73
-0.0053	-0.0068	0.0082	-0.003	-73
-0.0165	-0.0053	0.0045	-0.0053	-72.9
-0.027	-0.0046	0.0015	-0.0023	-72.9
-0.0165	-0.0053	-0.0008	-0.0008	-72.9
-0.0075	-0.0046	-0.0023	0	-72.8
-0.0068	-0.0015	0	-0.0008	-72.7
-0.0015	0.0007	0.0007	-0.0008	-72.7
-0.003	0.0045	0.0007	0.003	-72.6
-0.0015	0.003	0.0015	0.0015	-72.6
0.003	0.0022	0.0067	0.0022	-72.5
0.0082	0.0052	0.0082	0.0022	-72.5
0.012	0.0075	0.0075	0	-72.5
0.012	0.0067	0.0082	0.0007	-72.4
0.0082	0.003	0.003	0.0015	-72.4
-0.0008	0.0007	0.0037	0.0015	-72.3
-0.0053	0.0007	0.0015	0.0007	-72.2
-0.0083	-0.0008	0.0015	-0.0008	-72.2
-0.012	0.0007	0.0015	0.0007	-72.1
-0.0143	0.0015	0.0015	0.0022	-72.1
-0.0128	0.003	0.0037	0.0015	-72
-0.0083	0.0015	0	-0.0015	-72
-0.006	0.003	0	-0.003	-72
0	0.0045	-0.003	-0.003	-71.9
0.0075	0.003	0	-0.0008	-71.9
0.0157	0.0007	0	-0.0015	-71.8
0.0135	-0.003	-0.0046	0	-71.8
0.0082	-0.0038	-0.003	0	-71.7
0.009	-0.0046	-0.0053	-0.0015	-71.7
0.0015	-0.0046	-0.0015	-0.0015	-71.6
0	-0.0046	-0.0008	-0.0046	-71.6
0.0045	-0.0091	-0.0008	-0.0008	-71.6
0.0015	-0.0091	0.0052	0.0007	-71.5
-0.0053	-0.0068	0.0052	0.0007	-71.5
-0.0105	-0.006	0.0082	0	-71.4
-0.0105	-0.0046	0.0037	-0.003	-71.4
-0.0046	-0.0023	-0.0038	0	-71.3
-0.003	0	-0.006	0.0022	-71.3
-0.0158	0	-0.012	0.003	-71.2
-0.0248	0.0007	-0.0098	0.0015	-71.2
-0.0361	0.0015	-0.0105	0.0015	-71.1
-0.0353	0.0015	-0.0091	-0.0008	-71.1
-0.0091	0.0015	-0.0015	-0.0038	-71.1
0.0105	0.0007	0.003	-0.0053	-71
0.0232	0	0.0112	-0.0015	-70.9
0.0457	0.0015	0.0165	0.0015	-70.9
0.0555	0.0015	0.0195	0	-70.8
0.0495	0.003	0.0202	-0.0015	-70.7
0.0412	0.003	0.0172	-0.0046	-70.7
0.0157	0.0015	0.0195	-0.0053	-70.7
-0.0098	0.003	0.0187	-0.003	-70.6
-0.033	0.0015	0.0165	0	-70.5
-0.0503	0.0007	0.0135	-0.0008	-70.5
-0.0398	0.0007	0.009	-0.0015	-70.4
-0.0368	-0.003	0.006	-0.0023	-70.3
-0.0278	0	0.0015	-0.0023	-70.3
0.0007	0.0007	0.0015	-0.0008	-70.2
0.0292	0.0007	0.0045	0	-70.2
0.057	0.0015	0.0045	-0.0008	-70.1
0.0607	-0.0023	0.0045	-0.0008	-70.1
0.057	-0.0008	-0.0015	0.0015	-70
0.0465	0.003	-0.0008	0.0015	-69.9
0.0247	0.0052	-0.0023	0.0007	-69.9
0.0052	0.003	-0.0053	0.0022	-69.8
-0.0143	0.003	-0.0053	0.0045	-69.8
-0.0225	0.0067	-0.0091	0.006	-69.7
-0.0248	0.0052	-0.0068	0.0075	-69.7
-0.0203	0.0052	-0.0068	0.003	-69.6
-0.015	0.0052	-0.012	0.0007	-69.6
-0.027	0.0037	-0.0188	0.0015	-69.5
-0.0368	0.0015	-0.0256	-0.0015	-69.4
-0.039	-0.003	-0.0218	0	-69.4
-0.0428	-0.0023	-0.021	0	-69.3
-0.0346	-0.0015	-0.0128	0.0007	-69.3
-0.027	-0.0046	0.0015	0.0007	-69.2
-0.0091	-0.003	0.015	-0.0015	-69.2
0.024	-0.003	0.0255	0.0007	-69.1
0.0487	-0.003	0.024	-0.0008	-69.1
0.0592	-0.003	0.0202	-0.003	-69
0.045	-0.0023	0.012	-0.0046	-68.9
0.0157	-0.0038	0.0037	-0.006	-68.9
-0.0113	-0.003	-0.0068	-0.0038	-68.9
-0.0263	-0.003	-0.0173	-0.003	-68.8
-0.0165	-0.003	-0.0143	-0.0015	-68.7
-0.0015	-0.003	-0.0105	0.0007	-68.6
0.012	-0.0046	-0.0046	0.0015	-68.6
0.0127	-0.0038	0.006	0.0022	-68.5
-0.0015	-0.003	0.0157	0.0007	-68.4
-0.0128	-0.0015	0.0255	-0.0008	-68.4
-0.0195	-0.0008	0.0255	-0.0023	-68.3
-0.0105	0.0007	0.021	-0.0008	-68.2
-0.0143	0.0037	0.012	0.0022	-68.1
-0.0181	0.0067	0.003	0.003	-68.1
-0.0128	0.0075	-0.0053	0.003	-68
-0.0173	0.0045	-0.0143	0.0022	-68
-0.0098	0.0045	-0.0128	0.003	-67.9
-0.0083	0.0045	-0.0083	0.0022	-67.8
-0.0135	0.0037	-0.0053	0.003	-67.7
-0.0128	0.0037	-0.0023	0.0015	-67.7
-0.0143	0.0007	0.0007	-0.0015	-67.6
-0.0091	0.0015	0.0097	-0.0008	-67.5
-0.003	0.0022	0.0165	-0.0015	-67.5
0.0007	0.0015	0.0165	-0.003	-67.4
0.006	0.0007	0.0165	-0.0023	-67.4
0.006	0.0007	0.0127	-0.003	-67.3
0.009	0.0015	0.009	0	-67.2
0.0067	0	0.0037	-0.0008	-67.2
0.0045	-0.0023	-0.0023	-0.003	-67.1
0.0045	-0.006	-0.0053	-0.003	-67.1
0.0015	-0.0068	-0.0091	-0.0046	-67.1
0.0052	-0.0053	-0.0068	-0.003	-67
0.0082	-0.003	-0.006	-0.0008	-66.9
0.0105	-0.0015	-0.0068	-0.0008	-66.9
0.009	-0.0008	-0.0038	-0.0015	-66.8
0.0037	0.0015	-0.0053	-0.0015	-66.8
-0.0038	0.0007	-0.0008	-0.0008	-66.7
-0.0091	-0.0008	-0.0008	0.0015	-66.7
-0.0098	-0.0015	0.0015	0.003	-66.6
-0.0105	-0.0015	0.0067	0.003	-66.6
-0.006	-0.0008	0.0052	0.003	-66.5
0.0037	0	0.0105	0.0022	-66.5
0.0105	0.0007	0.0082	-0.0008	-66.4
0.012	-0.0008	0.0067	-0.0015	-66.4
0.0075	-0.0015	0.0045	-0.003	-66.3
-0.0008	-0.0015	0.003	-0.003	-66.2
-0.0038	-0.0015	0.0052	-0.0008	-66.2
-0.0083	-0.0008	0	0.0015	-66.1
-0.0098	0	0.003	0.003	-66
-0.0046	0.0007	-0.003	0.0015	-66
-0.0068	-0.0008	-0.003	0.0007	-65.9
-0.0038	-0.0008	-0.0046	0	-65.8
-0.0023	-0.0008	-0.0068	0.0037	-65.7
-0.0053	-0.0015	-0.0038	0.003	-65.7
0	-0.0046	-0.0053	0	-65.6
0.0007	-0.003	0.0015	0.0022	-65.5
-0.0008	-0.0046	0.0007	0.0007	-65.5
0	-0.0046	0.0045	0	-65.4
-0.0008	-0.0046	0.0082	-0.0015	-65.3
0	-0.0083	0.0075	-0.0038	-65.3
0.0045	-0.0046	0.012	-0.0015	-65.2
0.0112	-0.0046	0.012	-0.0008	-65.1
0.012	-0.0046	0.015	-0.0008	-65.1
0.006	-0.003	0.0127	-0.0008	-65
-0.0015	-0.0015	0.0082	-0.0008	-64.9
0.0022	-0.0008	0.0082	-0.003	-64.8
0.0127	-0.0023	0.003	-0.0053	-64.8
0.0067	-0.0008	-0.0038	-0.003	-64.7
-0.0068	0	-0.0075	-0.0023	-64.6
-0.0181	0.0022	-0.0105	-0.0008	-64.6
-0.0293	0.0015	-0.0113	-0.0023	-64.5
-0.0278	0.0007	-0.0105	-0.0046	-64.4
-0.0203	0.0015	-0.0083	-0.0015	-64.4
-0.0091	0.0007	-0.0008	-0.0015	-64.3
-0.003	0	0.0007	0.0007	-64.2
-0.003	0.0015	0.0007	0.003	-64.1
0.0082	0.0015	-0.0015	0.0007	-64.1
0.0232	0	-0.0008	0.0007	-64
0.0465	0.003	-0.0008	-0.0015	-63.9
0.0645	0.0052	-0.0053	-0.0023	-63.9
0.0465	0.0052	-0.0046	-0.0023	-63.8
0.0232	0.0075	-0.0083	-0.0015	-63.7
0.003	0.0052	-0.0053	0.0007	-63.6
-0.0181	0.0045	-0.0008	-0.0015	-63.6
-0.027	0.0015	0.0007	-0.0015	-63.5
-0.0338	-0.0008	0.0037	-0.0053	-63.5
-0.0383	0.0007	0.0052	-0.0075	-63.5
-0.0503	0.0007	0.0135	-0.0015	-63.4
-0.0443	0.003	0.024	-0.0008	-63.3
-0.0181	0.0022	0.0307	0.0015	-63.3
0.009	0.0045	0.0382	0.0037	-63.2
0.0382	0.0045	0.0345	0.003	-63.2
0.0502	0.003	0.0262	0.0052	-63.1
0.0465	0.0015	0.0195	0.0052	-63.1
0.0292	-0.0015	0.012	0.0052	-63
0.0172	-0.003	0.0052	0.0022	-63
0.0052	-0.0046	-0.006	0.0007	-63
-0.012	-0.0046	-0.0091	0.003	-62.9
-0.0181	-0.0046	-0.0143	0.003	-62.8
-0.024	-0.0053	-0.0203	0.0015	-62.8
-0.024	-0.0046	-0.021	-0.0023	-62.7
-0.0225	-0.0053	-0.021	-0.0053	-62.7
-0.0233	-0.0083	-0.0091	-0.0075	-62.6
-0.0165	-0.0075	-0.0046	-0.0075	-62.6
-0.0195	-0.003	-0.003	-0.0053	-62.6
-0.021	0.0015	-0.0038	-0.003	-62.5
-0.0218	0.0045	-0.0083	0.0015	-62.4
-0.024	0.0082	-0.006	0.0007	-62.4
-0.012	0.012	-0.0083	0.0007	-62.3
0.0007	0.009	-0.0008	0	-62.3
0.0127	0.0082	0.0022	-0.0015	-62.2
0.0195	0.0082	-0.0008	0	-62.1
0.0187	0.0052	0.0007	-0.0015	-62.1
0.0217	0.0037	-0.0015	-0.0008	-62.1
0.0225	0.0015	0.0067	0.0015	-62
0.009	-0.0008	0.0142	-0.0015	-61.9
-0.0098	0.0007	0.0172	-0.0008	-61.9
-0.0346	-0.0038	0.021	0	-61.8
-0.0555	-0.0068	0.0127	-0.0023	-61.8
-0.0555	-0.0083	-0.0015	-0.0008	-61.7
-0.0398	-0.0083	-0.0195	0.0007	-61.7
-0.0038	-0.0068	-0.0278	0.0007	-61.6
0.0412	-0.006	-0.0225	0.0007	-61.6
0.075	-0.0053	-0.0143	0	-61.5
0.087	-0.0046	0	0.0015	-61.5
0.0652	-0.0053	0.009	-0.0015	-61.4
0.0315	-0.0053	0.0157	-0.0015	-61.3
0.003	-0.0046	0.0202	0.0007	-61.3
-0.0195	-0.0023	0.0165	-0.0008	-61.2
-0.027	-0.0015	0.0097	-0.0008	-61.2
-0.0308	-0.0008	0.0022	0.0007	-61.1
-0.0361	0.0015	-0.003	0.003	-61.1
-0.0368	0.0007	-0.0068	0.0045	-61
-0.027	-0.0008	-0.0068	0.0022	-60.9
-0.003	-0.0008	-0.006	0.0045	-60.9
0.0082	-0.0008	0.0015	0.0022	-60.8
0.0097	-0.003	0.0105	0.0015	-60.8
0.0045	-0.003	0.0142	0.0052	-60.7
-0.0075	-0.0023	0.0202	0.003	-60.7
0.0142	-0.0046	0.0255	-0.0008	-60.6
0.0442	-0.0091	0.027	-0.0053	-60.5
0.0547	-0.0098	0.0232	-0.0046	-60.5
0.0412	-0.0083	0.0157	-0.0023	-60.4
-0.0015	-0.0038	0.0097	-0.003	-60.4
-0.024	0	0.0007	-0.0008	-60.3
-0.0443	0.0022	-0.0083	-0.0023	-60.3
-0.0488	0.003	-0.0165	-0.0046	-60.3
-0.0256	0.003	-0.0256	-0.003	-60.2
-0.0113	0.0052	-0.0293	-0.0046	-60.2
0.0165	0.0037	-0.0293	-0.0038	-60.1
0.0285	0.006	-0.0218	-0.003	-60.1
0.0217	0.0045	-0.0188	-0.0023	-60
0.012	0.003	-0.0113	0.0015	-60
0.0007	0.006	-0.0008	0.0037	-60
0	0.0037	0.009	0.003	-59.9
-0.021	0.003	0.024	0.0007	-59.9
-0.0383	0.0015	0.0262	-0.0008	-59.9
-0.0458	0.0015	0.024	0.0015	-59.8
-0.0555	0.0037	0.0202	0.0052	-59.8
-0.0436	0.003	0.0195	0.0067	-59.7
-0.0368	0.0045	0.018	0.0052	-59.7
-0.0248	0.0015	0.0067	0.0045	-59.6
-0.0008	-0.0008	-0.0008	0.0052	-59.6
0.039	0.0007	-0.0091	0.0052	-59.5
0.0757	0	-0.0165	0.0022	-59.5
0.075	0.0007	-0.0233	-0.0015	-59.4
0.063	0.0007	-0.0195	-0.0068	-59.4
0.0195	0.0007	0	-0.006	-59.3
-0.0308	0.0007	0.0232	-0.0068	-59.3
-0.0495	-0.0008	0.0472	-0.0068	-59.2
-0.0458	-0.0008	0.0592	-0.0046	-59.2
-0.0218	0.0007	0.066	-0.0038	-59.1
-0.0143	0.0037	0.0585	-0.003	-59.1
-0.0218	-0.0008	0.0382	-0.0053	-59
-0.027	-0.006	0.0067	-0.006	-59
-0.0346	-0.0075	-0.03	-0.0068	-59
-0.0308	-0.0075	-0.0548	-0.0053	-58.9
-0.0233	-0.0046	-0.0721	-0.0015	-58.8
0.012	-0.0046	-0.0675	0.0007	-58.8
0.0705	-0.0015	-0.0503	0.0045	-58.7
0.099	-0.0008	-0.0315	0.0045	-58.7
0.0892	-0.003	-0.0098	0.003	-58.6
0.063	-0.0038	0.0045	0.0045	-58.6
0.0315	-0.0068	0.0105	0.0045	-58.5
0.003	-0.0068	0.009	0.0052	-58.5
-0.0203	-0.006	0.0045	0.0045	-58.5
-0.0428	-0.0053	0.0022	0.0037	-58.4
-0.042	-0.0038	0	0.0022	-58.3
-0.0256	-0.0023	-0.0015	0.0015	-58.3
-0.006	-0.0008	-0.0008	-0.0008	-58.2
0	-0.0015	0.003	-0.0053	-58.2
-0.0098	-0.0023	0.0045	-0.0068	-58.1
-0.0091	-0.0008	0.0045	-0.006	-58.1
-0.0173	-0.0008	0.006	-0.003	-58
-0.0158	0.0007	0.006	-0.0008	-58
-0.0091	0.0015	0.0067	0.0015	-57.9
-0.0173	0.003	0.0127	0.0067	-57.9
-0.0008	0.0082	0.0157	0.009	-57.8
0.021	0.0067	0.018	0.0075	-57.8
0.0382	0.0045	0.0172	0.003	-57.7
0.042	0.003	0.009	0	-57.6
0.024	0.0015	0.003	-0.0008	-57.6
0.0172	0.0045	-0.003	-0.0023	-57.6
0.0037	0.0045	-0.0053	-0.0023	-57.5
-0.0038	0.0052	-0.003	-0.0015	-57.4
-0.0075	0.006	-0.0015	0.0015	-57.4
-0.015	0.0067	0.003	0.003	-57.3
-0.0053	0.0067	0.0007	0.0007	-57.2
0.0015	0.0067	0.0007	0	-57.2
0.0052	0.006	-0.0008	-0.0008	-57.1
0	0.006	-0.0046	-0.0008	-57.1
-0.0105	0.0067	-0.0083	0	-57
-0.0128	0.0037	-0.0128	-0.0008	-56.9
-0.0128	0.0015	-0.0105	0.0007	-56.9
-0.006	0.0007	-0.0068	-0.0015	-56.8
-0.0046	-0.003	0	-0.0038	-56.7
-0.0023	-0.0046	0.0037	-0.0038	-56.7
0.0067	-0.003	0.0097	-0.0053	-56.6
0.0067	-0.003	0.015	-0.0053	-56.6
-0.0046	-0.0023	0.0157	-0.0053	-56.5
-0.0173	-0.0038	0.0187	-0.0046	-56.4
-0.0173	-0.0015	0.0217	-0.0008	-56.3
-0.0038	0.0015	0.024	0.003	-56.3
0.0067	0.0007	0.0195	0.0015	-56.2
0.0127	-0.0008	0.018	-0.0008	-56.2
0.015	-0.0008	0.015	-0.0023	-56.1
0.0127	0.0007	0.0015	-0.0046	-56
0.0165	0	-0.0038	-0.0053	-55.9
0.0247	0	-0.0075	-0.0068	-55.8
0.0247	-0.0008	-0.0068	-0.0068	-55.8
0.0217	-0.0015	-0.0046	-0.0053	-55.7
0.0142	-0.003	-0.0038	-0.006	-55.7
0.0007	-0.0053	-0.0068	-0.0038	-55.6
-0.024	-0.0046	-0.0128	-0.0015	-55.5
-0.039	-0.0038	-0.0105	-0.0008	-55.4
-0.042	-0.003	-0.0068	-0.0008	-55.4
-0.0375	-0.0015	-0.003	0.0015	-55.3
-0.0218	0.0007	0.003	0.0045	-55.2
-0.0113	0.0007	0.0015	0.0052	-55.1
0.0082	0.0007	0.0015	0.0067	-55.1
0.0202	0.0007	0.0022	0.006	-55
0.0127	-0.003	-0.003	0.0037	-54.9
-0.0008	-0.0023	-0.012	0.0045	-54.9
-0.0195	0.0007	-0.0158	0.0082	-54.8
-0.0218	0.0007	-0.0225	0.0082	-54.7
-0.0233	-0.0008	-0.027	0.0045	-54.6
-0.0285	-0.003	-0.0188	0.0037	-54.5
-0.0218	-0.003	-0.012	0.003	-54.4
-0.0113	-0.0023	-0.0023	0.0015	-54.4
0.009	-0.003	0.0075	-0.0008	-54.3
0.0315	-0.0053	0.0195	-0.003	-54.2
0.0337	-0.0075	0.039	-0.006	-54.1
0.03	-0.006	0.0495	-0.0083	-54
0.0255	-0.0015	0.048	-0.0053	-53.9
0.0075	0.0015	0.0322	0	-53.8
-0.0053	0.0015	0.012	0.0007	-53.7
-0.0158	0.0022	-0.0008	-0.0023	-53.6
-0.0083	0.003	-0.0105	-0.0038	-53.6
0.0165	0.0037	-0.0068	-0.0053	-53.5
0.0045	0.0022	-0.0068	-0.0053	-53.4
-0.0098	0.0007	-0.0015	-0.003	-53.3
-0.0135	0.0007	0.0105	-0.0008	-53.2
-0.012	0.0015	0.012	0.0022	-53.1
0.0045	0.0022	0.018	0.0067	-53.1
0.0007	0.003	0.0075	0.0082	-53
-0.003	0.0022	-0.0008	0.009	-52.9
-0.0015	0.0022	-0.0068	0.0067	-52.7
0.0037	-0.0015	-0.0181	-0.003	-52.7
0.018	-0.003	-0.0218	-0.0091	-52.6
0.012	-0.0053	-0.0293	-0.012	-52.5
0.0195	-0.0068	-0.021	-0.0135	-52.4
0.0157	-0.0053	-0.0143	-0.0091	-52.3
-0.0091	-0.0023	-0.0053	-0.0046	-52.2
-0.0256	-0.0008	-0.0008	-0.0008	-52.1
-0.0353	-0.0008	-0.0105	0.003	-52
-0.0195	-0.0008	-0.0091	0.0052	-51.9
-0.0046	0	-0.0105	0.0082	-51.8
0.012	0.0007	0.0037	0.0067	-51.7
0.0217	0.0007	0.018	0.003	-51.6
0.0045	-0.0008	0.027	0.0015	-51.5
-0.0046	0.0007	0.0412	0.0015	-51.4
-0.0256	-0.0023	0.0307	-0.0008	-51.3
-0.0398	-0.0015	0.0232	-0.0008	-51.2
-0.0308	0.0007	0.0217	0.0022	-51.1
-0.0203	0	0.0315	0.0045	-51
-0.0023	-0.0008	0.0525	0.0052	-50.9
0.0135	-0.0038	0.0555	0.0037	-50.9
0.0142	-0.0046	0.0547	-0.0008	-50.8
-0.0068	-0.0023	0.0337	-0.006	-50.7
-0.0233	-0.0008	-0.0046	-0.0091	-50.6
-0.0256	0.0007	-0.039	-0.006	-50.5
-0.0233	0.0015	-0.0691	-0.0038	-50.4
-0.0143	0.0015	-0.0915	-0.003	-50.3
-0.0135	0	-0.1028	-0.0083	-50.2
-0.0128	-0.0008	-0.0938	-0.0068	-50.1
-0.0105	0.0015	-0.0788	0.0015	-50
-0.0143	0.0045	-0.0495	0.0045	-49.9
-0.0098	0.0067	-0.0135	0.0067	-49.8
0.0022	0.0045	0.0112	0.0052	-49.7
0.0165	0.0015	0.0427	0.0007	-49.6
0.03	0.0015	0.057	-0.0046	-49.5
0.03	0	0.0577	-0.0038	-49.5
0.024	0.0015	0.0517	0	-49.4
0.0337	0.0037	0.0345	0.0015	-49.3
0.039	0.0037	0.024	0.0075	-49.2
0.0457	0.0022	0.0142	0.0075	-49.1
0.048	0.003	0.0127	0.003	-49
0.0367	0.0037	0.0067	0.0015	-48.9
0.0285	0.003	-0.0015	-0.0008	-48.8
0.0075	0.0045	-0.0038	-0.0015	-48.7
-0.0195	0.0037	-0.0105	-0.0038	-48.6
-0.033	0.0015	-0.003	-0.003	-48.6
-0.0361	0.0007	0.006	-0.0008	-48.5
-0.0233	-0.0015	0.0135	0.0007	-48.4
-0.012	-0.003	0.0157	-0.0015	-48.3
-0.0083	-0.006	0.0037	-0.003	-48.2
-0.006	-0.0046	-0.0015	-0.0038	-48.2
-0.0083	-0.0015	-0.0143	-0.0053	-48.1
-0.0015	-0.0015	-0.0181	-0.0023	-48
0.0015	0	-0.0128	-0.0023	-47.9
0.0075	-0.0008	-0.0053	0	-47.8
0.0255	0	0.0075	0.003	-47.7
0.0322	0	0.0127	0.0037	-47.6
0.0262	0.0015	0.0202	0.0097	-47.5
0.0037	0.003	0.009	0.0105	-47.4
-0.0188	0.0022	0.0045	0.0082	-47.4
-0.0293	0.003	0.0045	0.0082	-47.3
-0.0488	0.0022	-0.003	0.0007	-47.2
-0.057	0.0022	0.0045	-0.003	-47.1
-0.0413	0.0045	0.009	-0.003	-47
-0.0105	0.0045	0.0232	-0.0053	-47
0.0142	0.003	0.0345	-0.0098	-46.9
0.0202	-0.0046	0.0292	-0.0165	-46.8
0.0217	-0.0091	0.0277	-0.0165	-46.7
0.018	-0.0105	0.0082	-0.0098	-46.6
0.012	-0.0091	0.0015	-0.0053	-46.6
0.0045	-0.0046	-0.003	-0.0008	-46.5
0.0045	-0.0038	-0.0075	0.0007	-46.4
0.0255	-0.0023	-0.0015	0.003	-46.3
0.033	-0.003	-0.006	0.0052	-46.2
0.0007	-0.0008	-0.0046	0.0052	-46.2
-0.0285	0.0022	-0.0181	0.0037	-46.1
-0.0428	0.0015	-0.027	0.0015	-46
-0.0638	0.003	-0.0308	0.0015	-45.9
-0.0608	0.0052	-0.0368	0.003	-45.9
-0.0346	0.0052	-0.0195	0.0015	-45.8
-0.0008	0.0037	-0.012	0.0007	-45.7
0.0345	0.0015	-0.0053	-0.0008	-45.6
0.0427	0.0015	-0.0015	-0.0008	-45.5
0.0427	0.0007	0.0022	-0.0015	-45.5
0.0472	-0.0008	0.021	-0.0053	-45.4
0.0367	-0.0038	0.0315	-0.0098	-45.3
0.0045	-0.0083	0.0307	-0.0105	-45.2
-0.0323	-0.0083	0.024	-0.003	-45.1
-0.0473	-0.003	0.0127	0.003	-45
-0.0608	-0.003	-0.0053	0.0067	-45
-0.0518	-0.0023	-0.0225	0.0097	-44.9
-0.0256	-0.0015	-0.0361	0.009	-44.8
-0.021	-0.0015	-0.039	0.0067	-44.7
-0.012	-0.0046	-0.0233	0.0022	-44.6
-0.0008	-0.0046	0	0.003	-44.6
0.024	-0.0008	0.0292	0.003	-44.5
0.0592	0	0.0472	0.003	-44.4
0.072	-0.0008	0.0457	0.003	-44.3
0.0652	-0.0008	0.0337	0.0015	-44.3
0.0577	0	0.015	0.0022	-44.2
0.0562	0	0.0045	-0.003	-44.1
0.036	-0.0015	-0.0046	-0.006	-44.1
-0.0008	-0.0008	-0.0098	-0.0046	-44
-0.0375	0.0007	-0.0105	-0.0015	-43.9
-0.0706	-0.0015	-0.012	0.0007	-43.8
-0.081	-0.0015	-0.0008	0.0007	-43.8
-0.0773	-0.0015	0.012	0	-43.7
-0.0443	-0.0046	0.024	-0.0015	-43.6
0.0015	-0.003	0.021	-0.0008	-43.6
0.0337	-0.0015	0.0082	0.0022	-43.5
0.0517	0.0007	0.0075	0.0015	-43.4
0.0427	0.003	0	0	-43.3
0.0195	0.0015	-0.003	-0.003	-43.2
-0.0008	0.003	-0.0075	-0.0015	-43.2
-0.0128	0.003	-0.0143	-0.0023	-43.1
-0.0218	0.0045	-0.0083	-0.003	-43.1
-0.027	0.0075	0.0015	-0.0015	-43
-0.0218	0.0045	0.012	-0.0015	-42.9
-0.0225	0.006	0.0135	-0.0008	-42.8
-0.0195	0.0082	0.0165	-0.0015	-42.8
-0.0143	0.0052	0.018	0.0015	-42.7
-0.0075	0.003	0.0127	0.0007	-42.6
-0.0015	0.0015	0.006	-0.0008	-42.5
0.003	0.0007	-0.0091	-0.0015	-42.5
0.021	-0.0008	-0.0195	-0.0053	-42.4
0.0292	0	-0.0278	-0.003	-42.3
0.0232	-0.0008	-0.0346	0.0007	-42.3
0.0015	-0.0008	-0.039	0.0007	-42.2
-0.027	-0.0015	-0.048	0	-42.1
-0.0383	-0.0038	-0.0443	-0.0015	-42
-0.0488	-0.0015	-0.033	-0.0046	-42
-0.039	0.0015	-0.0143	-0.003	-41.9
-0.012	0.003	0.0082	0.0007	-41.8
0.0247	0.0007	0.0232	0.0037	-41.8
0.0645	-0.0015	0.0352	0.0015	-41.7
0.0742	-0.0015	0.0405	0.0007	-41.6
0.0705	-0.0008	0.0427	0.0082	-41.5
0.0577	0.0015	0.0427	0.0067	-41.5
0.0307	0.0007	0.0345	0.003	-41.4
0.0067	-0.0046	0.018	0.0007	-41.3
-0.0248	-0.0083	-0.0023	0.0007	-41.3
-0.0338	-0.0083	-0.0203	-0.0008	-41.2
-0.0256	-0.0053	-0.042	-0.0008	-41.1
-0.0083	-0.0015	-0.0578	-0.0008	-41.1
0.0165	-0.0023	-0.0555	-0.0053	-41
0.0165	-0.0046	-0.0315	-0.006	-40.9
0.0217	-0.0015	0.0015	-0.0075	-40.9
0.0157	-0.0008	0.033	-0.0098	-40.8
-0.0165	-0.0015	0.0592	-0.0053	-40.7
-0.0511	-0.0015	0.0645	-0.003	-40.6
-0.0668	0	0.0532	0.0007	-40.6
-0.0473	0.003	0.0345	0.0045	-40.5
-0.0188	0.0045	0.0157	0.0067	-40.5
0.015	0.0022	0.0052	0.0052	-40.4
0.0405	-0.0008	-0.0128	0.0015	-40.3
0.0457	-0.0015	-0.0181	-0.0023	-40.2
0.036	-0.0015	-0.0158	-0.0015	-40.2
0.0225	0	-0.0248	-0.0053	-40.1
0.0067	-0.0008	-0.0195	-0.0083	-40.1
-0.0165	0.0015	-0.0128	-0.0046	-40
-0.0188	0.003	-0.0038	0.0015	-40
-0.0203	0.003	0.0112	0.0052	-39.9
-0.0233	0.0052	0.0142	0.0045	-39.8
-0.012	0.003	0.0142	0.003	-39.8
-0.0091	0.0015	0.0082	0.0037	-39.7
0.0015	0.0022	0.0052	0.003	-39.6
-0.0015	0.0052	0.0097	-0.0008	-39.6
-0.0023	0.0052	0.0232	-0.0023	-39.5
0.0015	0.0045	0.0427	-0.0015	-39.5
-0.0075	0.0052	0.0472	-0.0015	-39.4
-0.0038	0.003	0.0382	-0.003	-39.3
-0.006	0.003	0.0082	-0.0023	-39.3
-0.0098	0.0007	-0.024	-0.0023	-39.2
-0.021	0.0007	-0.048	-0.0008	-39.2
-0.039	0.0037	-0.0623	0.0022	-39.1
-0.0323	0.0007	-0.0525	0.0045	-39
-0.0015	-0.0015	-0.0308	0.0082	-39
0.027	-0.003	0.0067	0.006	-38.9
0.0442	-0.0046	0.0352	0.006	-38.8
0.048	-0.003	0.042	0.0045	-38.8
0.0157	-0.0015	0.036	0.0007	-38.7
-0.0293	0.0007	0.0157	0.0007	-38.7
-0.0608	0.0007	-0.0015	-0.003	-38.6
-0.084	0.0007	-0.0248	-0.0091	-38.6
-0.0938	0.0007	-0.0293	-0.0135	-38.5
-0.0871	0.0015	-0.03	-0.0105	-38.4
-0.0615	0.003	-0.0308	-0.0075	-38.3
-0.0233	0.0045	-0.0188	-0.0046	-38.3
0.027	0.0052	-0.0165	-0.0008	-38.3
0.0795	0.0045	0.0007	0.0015	-38.2
0.1252	0.0015	0.0202	0.003	-38.1
0.1545	-0.0008	0.0375	0.0052	-38.1
0.1515	-0.006	0.0405	0.009	-38
0.1357	-0.0068	0.0382	0.0067	-37.9
0.096	-0.0068	0.0382	0.0015	-37.9
0.0232	-0.0105	0.0232	-0.003	-37.8
-0.0308	-0.0135	0.0262	-0.0038	-37.8
-0.0683	-0.0143	0.0307	-0.0015	-37.7
-0.0878	-0.0113	0.0315	-0.003	-37.6
-0.1021	-0.0091	0.033	-0.0008	-37.6
-0.1043	-0.0068	0.015	0.006	-37.5
-0.0743	-0.0046	-0.0113	0.0082	-37.4
-0.0645	-0.0046	-0.0428	0.0067	-37.4
-0.039	-0.0038	-0.0691	0.0067	-37.3
-0.0091	-0.0038	-0.0871	0.0022	-37.2
0.0015	-0.0068	-0.0938	-0.0023	-37.2
0.0247	-0.0083	-0.075	-0.0023	-37.1
0.0367	-0.0068	-0.0593	-0.012	-37
0.0577	-0.0053	-0.0338	-0.0293	-37
0.0562	-0.003	0.0157	-0.0278	-36.9
0.0547	0.003	0.0525	-0.0158	-36.9
0.045	0.0082	0.0742	-0.0083	-36.8
0.0022	0.009	0.075	-0.003	-36.7
-0.0278	0.003	0.0465	-0.0038	-36.6
-0.0503	0.0015	0.0105	-0.0008	-36.6
0	0.0045	-0.0158	-0.0008	-36.5
0.0532	0.0015	-0.0248	-0.0008	-36.5
0.0667	-0.0008	-0.0233	0.0037	-36.4
0.069	-0.0015	-0.0053	0.0067	-36.3
0.0202	0.003	0.0127	0.012	-36.3
-0.0113	0.003	0.0232	0.006	-36.2
-0.063	0.0015	0.0367	0.0082	-36.1
-0.099	0.0067	0.042	0.0195	-36
-0.0803	0.0067	0.0427	0.0142	-36
-0.0773	0.0067	0.0472	0.012	-35.9
-0.0361	0.009	0.0382	0.0105	-35.9
-0.0053	0.0052	0.021	0.003	-35.8
0.0135	-0.0008	0.0082	0.0015	-35.7
0.0232	-0.0075	-0.003	-0.0083	-35.7
0.0037	-0.012	-0.0091	-0.0113	-35.6
0.003	-0.012	-0.0278	-0.0091	-35.6
-0.0195	-0.0091	-0.0383	-0.0105	-35.5
-0.0383	-0.0053	-0.0495	-0.0075	-35.4
-0.0405	-0.003	-0.0578	-0.006	-35.3
-0.0346	0.0007	-0.048	-0.003	-35.3
-0.0046	0.0015	-0.0405	0.0022	-35.2
0.0255	0.003	-0.0203	0.0007	-35.1
0.0465	0.003	-0.003	0	-35.1
0.0225	0.003	0.0157	0.003	-35
-0.0203	0.003	0.0382	0.0037	-35
-0.0443	0.003	0.0457	0.0045	-34.9
-0.0488	0.0052	0.0547	-0.0015	-34.8
-0.0075	0.0037	0.054	-0.003	-34.8
0.0195	0.0022	0.0487	0.0007	-34.7
0.0465	0.0007	0.0412	0.003	-34.7
0.1005	-0.0008	0.0232	0.0075	-34.6
0.105	-0.0008	-0.0015	0.0082	-34.6
0.09	0.0007	-0.0263	0.0067	-34.5
0.0607	0.003	-0.0428	0.0037	-34.4
0.024	0.003	-0.0525	-0.0046	-34.4
0.0022	0.0007	-0.0503	-0.0075	-34.3
-0.0315	-0.0038	-0.0353	-0.0068	-34.2
-0.0668	-0.0038	-0.0188	-0.0068	-34.2
-0.093	-0.0046	-0.0023	-0.0053	-34.2
-0.1058	-0.0091	0.0127	-0.0068	-34.1
-0.0968	-0.0083	0.03	-0.006	-34
-0.0645	-0.006	0.0307	-0.0046	-34
-0.0248	-0.0008	0.0195	-0.0053	-33.9
0.0045	0.0007	0.0142	-0.003	-33.8
0.027	0	0.0015	-0.0015	-33.8
0.033	0.0015	-0.0015	0.0007	-33.7
0.0352	-0.0008	-0.0046	0.0067	-33.6
0.0157	0.0015	-0.0015	0.0082	-33.6
-0.015	0.0022	-0.003	0.009	-33.5
-0.042	0.0015	-0.0091	0.0082	-33.4
-0.0668	0.0045	0	0.003	-33.3
-0.0773	0.0022	0.0007	0.0007	-33.3
-0.0653	0.003	0.0112	-0.0046	-33.3
-0.0308	0.0045	0.0277	-0.0135	-33.2
0.0157	0.0007	0.0457	-0.0195	-33.1
0.0742	-0.0015	0.0517	-0.012	-33
0.1222	0.0045	0.048	0.0045	-32.9
0.1552	0.0105	0.048	0.0097	-32.9
0.1515	0.0075	0.024	0.0052	-32.9
0.108	0.0007	-0.0105	0	-32.8
0.0592	-0.003	-0.0555	0.0052	-32.7
-0.0008	-0.0038	-0.0915	0.0082	-32.6
-0.0488	-0.0008	-0.099	0.009	-32.6
-0.0585	0.003	-0.081	0.0082	-32.5
-0.0428	0.0007	-0.0405	0.0007	-32.4
-0.0293	-0.0023	-0.0046	-0.003	-32.4
-0.0068	-0.003	0.0292	-0.0083	-32.3
0.0217	-0.0068	0.0412	-0.0128	-32.3
0.0225	-0.0068	0.0382	-0.0113	-32.2
0.0217	-0.0046	0.0375	-0.0038	-32.1
0.0045	-0.0053	0.0232	0.0007	-32
-0.0353	-0.0008	0.0112	0.003	-32
-0.0668	0	-0.0053	0.003	-32
-0.096	-0.0015	-0.0053	-0.0015	-31.9
-0.0788	-0.0023	0.0255	-0.0046	-31.8
-0.042	-0.003	0.0495	-0.0105	-31.7
-0.0053	-0.0008	0.0712	-0.0083	-31.7
0.0247	0.0015	0.0802	-0.0038	-31.6
0.0165	0.0015	0.075	-0.0068	-31.5
0.0217	0.0007	0.0495	-0.0091	-31.5
0.0315	-0.003	0.0067	-0.0015	-31.4
0.0405	-0.0008	-0.0338	0.0082	-31.4
0.0487	0.0022	-0.0863	0.0037	-31.3
0.021	0.0007	-0.1185	0.0052	-31.3
0	0.0052	-0.1381	0.0075	-31.2
-0.0346	0.0082	-0.1441	0.0045	-31.1
-0.0856	0.009	-0.12	-0.0015	-31.1
-0.099	0.0075	-0.0856	-0.0105	-31.1
-0.0795	0.003	-0.0361	-0.0105	-31
-0.0353	0.0015	0.0255	-0.0015	-30.9
0.0232	0.0007	0.0802	0.0067	-30.9
0.063	0.0015	0.105	0.009	-30.8
0.09	0.0022	0.1155	0.0105	-30.7
0.09	0.0067	0.108	0.018	-30.7
0.0487	0.0097	0.0855	0.018	-30.6
0.024	0.003	0.0577	0.0052	-30.6
0.006	0.0037	0.0247	0	-30.5
-0.0128	0.0015	0.0067	0.0045	-30.5
-0.0158	-0.003	-0.0158	0.0007	-30.4
-0.0308	-0.0075	-0.0308	-0.0046	-30.3
-0.0353	-0.0128	-0.0361	-0.0075	-30.3
-0.0368	-0.0113	-0.0346	-0.0083	-30.2
-0.0443	-0.0075	-0.0135	-0.0098	-30.2
-0.0405	-0.0068	0.0082	-0.0068	-30.1
-0.039	-0.003	0.027	-0.0023	-30.1
-0.0256	-0.0008	0.039	-0.0023	-30
-0.0068	0.0015	0.042	0	-29.9
0.0165	0.0022	0.0397	0.0022	-29.9
0.0442	-0.0008	0.0292	0.0015	-29.8
0.0367	-0.003	0.012	-0.0008	-29.7
0.0172	-0.0046	-0.0113	-0.0023	-29.7
-0.0046	-0.0046	-0.0323	-0.0015	-29.6
-0.0128	-0.0008	-0.045	0	-29.6
-0.0008	0.0015	-0.0383	0.003	-29.5
0.0082	0.0022	-0.0068	-0.0053	-29.4
0.033	0.0007	0.0217	-0.0128	-29.4
0.027	-0.0046	0.0157	-0.0091	-29.3
-0.0165	-0.0038	-0.0075	-0.0053	-29.3
-0.0256	-0.0015	-0.0346	-0.0008	-29.2
-0.021	0.0007	-0.0465	0.0075	-29.2
0.0015	0.0045	-0.0256	0.0172	-29.1
0.0697	0.0052	-0.0053	0.0217	-29
0.111	0.0067	0.0052	0.0052	-29
0.081	0.0022	0.0157	-0.0015	-28.9
0.0622	-0.0038	0.0292	0.0045	-28.8
0.051	-0.0075	0.0315	0	-28.8
0.003	-0.0165	0.0277	0	-28.7
-0.0203	-0.024	0.0247	-0.003	-28.7
-0.0465	-0.0233	0.0105	-0.0053	-28.6
-0.0615	-0.0165	0.003	-0.0068	-28.5
-0.0721	-0.0105	-0.0105	-0.0105	-28.5
-0.0938	-0.0053	-0.0263	-0.0075	-28.4
-0.093	-0.0008	-0.033	-0.0105	-28.4
-0.0871	0.0015	-0.0458	-0.012	-28.3
-0.054	0	-0.0405	-0.0113	-28.2
-0.0135	0.0015	-0.0285	-0.0105	-28.2
0.0195	0.003	-0.0165	-0.0038	-28.1
0.0285	0.0045	0.0007	0.0007	-28
0.0195	0.0075	0.0217	0.0045	-28
0.0142	0.009	0.0547	0.0127	-27.9
-0.0023	0.0142	0.0817	0.0307	-27.9
-0.012	0.0187	0.093	0.0337	-27.8
-0.0346	0.0142	0.0735	0.018	-27.8
-0.0525	0.0067	0.0405	0.006	-27.7
-0.0683	-0.0038	0.0015	-0.0113	-27.6
-0.057	-0.0068	-0.039	-0.012	-27.6
0.0105	-0.0046	-0.0593	-0.0068	-27.5
0.0532	-0.0075	-0.0735	-0.0143	-27.5
0.1087	-0.0091	-0.0578	-0.0046	-27.4
0.1815	-0.0105	-0.0218	0.0157	-27.4
0.2122	-0.0075	0.0052	0.0232	-27.3
0.2077	-0.0068	0.0172	0.021	-27.2
0.1387	-0.0091	0.0277	0.024	-27.2
0.0517	-0.0083	0.0255	0.0127	-27.1
-0.0315	-0.0105	-0.0008	-0.0023	-27.1
-0.105	-0.0105	-0.033	-0.0091	-27
-0.1238	-0.0083	-0.0728	-0.0128	-27
-0.1178	-0.0053	-0.084	-0.0173	-26.9
-0.0908	0	-0.0765	-0.0181	-26.9
-0.0398	0.0015	-0.0413	-0.0165	-26.8
-0.0128	0.0045	0.0187	-0.0158	-26.7
0.006	0.0052	0.0645	-0.0098	-26.7
0.0135	0.0067	0.0915	-0.0053	-26.6
0.006	0.0097	0.0907	-0.0053	-26.6
0.012	0.0082	0.0765	-0.0091	-26.5
0.003	0.006	0.0502	-0.012	-26.5
-0.012	0.0052	0.0277	-0.012	-26.4
-0.0263	0.0052	0.0067	-0.0128	-26.3
-0.0383	0.0082	-0.012	-0.0113	-26.3
-0.0353	0.0112	-0.0128	-0.0105	-26.2
-0.0405	0.0142	-0.0181	-0.0046	-26.1
-0.0368	0.0187	-0.0128	-0.0046	-26.1
-0.0473	0.0157	-0.0091	-0.0038	-26.1
-0.0585	0.0142	-0.0105	0.0067	-26
-0.0511	0.0142	0.0142	0.0105	-25.9
-0.0443	0.009	0.0277	0.009	-25.9
-0.0053	0.0015	0.0412	0.0097	-25.8
0.0217	-0.0075	0.0517	-0.0008	-25.7
0.0375	-0.012	0.045	0.0015	-25.7
0.0667	-0.0091	0.033	0.0045	-25.7
0.0652	-0.0075	0.0135	0.0007	-25.6
0.0577	-0.006	-0.0083	0.006	-25.5
0.039	-0.0015	-0.0346	0.0015	-25.4
0.0397	-0.0038	-0.0503	-0.0015	-25.4
0.0352	-0.0091	-0.0533	-0.0046	-25.3
0	-0.0075	-0.0428	-0.003	-25.2
-0.0098	-0.0053	-0.012	0.0045	-25.2
-0.0443	-0.0038	0.003	0.0067	-25.1
-0.0525	-0.0053	0.006	0.006	-25
-0.03	-0.0091	-0.0053	-0.0068	-25
-0.0105	-0.0098	-0.039	-0.0091	-24.9
0.0225	-0.0068	-0.0518	-0.012	-24.8
0.0067	-0.0046	-0.0398	-0.0091	-24.8
0.0082	0.0007	-0.012	-0.003	-24.7
0.0022	0.0015	0.0097	-0.0038	-24.6
-0.0188	0.003	0.027	0.003	-24.5
-0.012	0.006	0.039	-0.0046	-24.5
-0.0353	0.0007	0.039	-0.0105	-24.4
-0.0315	0	0.0555	-0.0046	-24.3
-0.033	0.0022	0.063	0.0067	-24.3
-0.0256	0.0052	0.0502	0.0225	-24.2
0.0045	0.009	0.0232	0.0277	-24.1
-0.0023	0.0112	-0.0105	0.024	-24
0.006	0.0082	-0.0413	0.0157	-24
0.0112	0.0007	-0.0675	0.0142	-23.9
0.0217	-0.0068	-0.075	0.0082	-23.9
0.0165	-0.0158	-0.0893	-0.0068	-23.8
-0.0105	-0.0165	-0.0923	-0.0188	-23.7
-0.0128	-0.0143	-0.0721	-0.0218	-23.6
-0.021	-0.0091	-0.0383	-0.015	-23.6
0.003	-0.0008	0.0007	-0.0105	-23.5
0.0345	0.0022	0.0352	-0.0068	-23.4
0.057	0.0052	0.069	-0.006	-23.4
0.0757	0.0045	0.078	-0.003	-23.3
0.0397	0.003	0.078	-0.0038	-23.2
0.0067	0.0037	0.0705	-0.0105	-23.1
-0.0225	0.003	0.0562	-0.0015	-23.1
-0.0308	0.0052	0.0472	0.015	-23
-0.0046	0.0015	0.0315	0.027	-23
0.012	0.0022	0.0255	0.0277	-22.9
0.048	0.0045	0.0142	0.024	-22.8
0.0555	0.0007	-0.0008	0.018	-22.7
0.0405	-0.0046	-0.012	0.0097	-22.7
0.0217	-0.0083	-0.0158	0.003	-22.6
-0.0278	-0.0053	-0.0105	-0.0008	-22.5
-0.0473	0.0007	-0.0113	-0.006	-22.5
-0.0518	0.0037	-0.0008	-0.0165	-22.4
-0.0413	0.0037	0	-0.0248	-22.4
-0.0256	0.003	0	-0.0203	-22.3
-0.033	-0.0015	0.0045	-0.0113	-22.2
-0.0233	-0.003	0.003	-0.0091	-22.1
-0.0256	0	0.0112	-0.0046	-22.1
-0.024	0.0007	0.009	-0.003	-22.1
-0.0218	0.0007	0.0142	0.0007	-22
-0.0278	0.0015	0.0112	0.0015	-21.9
0.0037	0.0015	0.0067	-0.0008	-21.8
0.0345	0.0015	0.0127	0.0037	-21.8
0.0555	0.0022	0.003	0.0022	-21.7
0.0532	-0.0008	0.0052	0.003	-21.6
0.0367	-0.0053	0.003	0.0067	-21.6
0.0202	-0.003	0.024	0.006	-21.5
-0.0091	0.0007	0.0412	0.0082	-21.5
-0.0233	0.0007	0.0165	0.009	-21.4
-0.0458	-0.0008	0.0022	0.0045	-21.3
-0.057	-0.0015	-0.0383	-0.0008	-21.3
-0.0278	-0.003	-0.0788	0.009	-21.2
0.0067	-0.0053	-0.105	0.0127	-21.2
0.036	-0.003	-0.1013	0.012	-21.1
0.027	0.0007	-0.0623	0.012	-21
0.0142	-0.0015	-0.0495	-0.0008	-20.9
0.0187	-0.0038	-0.0233	-0.0098	-20.9
0.012	-0.0053	-0.015	-0.021	-20.8
0.0142	-0.0068	-0.012	-0.0263	-20.7
-0.0083	-0.0023	0.0052	-0.027	-20.7
-0.0256	0.0022	-0.0008	-0.0346	-20.6
-0.0165	0.0045	0.018	-0.0181	-20.6
-0.0143	0.006	0.0397	-0.0008	-20.5
0.0007	0.0067	0.0615	0.009	-20.4
-0.0046	0.0052	0.0787	0.0202	-20.3
-0.0195	-0.0008	0.0697	0.015	-20.3
-0.0353	-0.0015	0.0712	0.0067	-20.2
-0.033	-0.0038	0.0667	-0.0165	-20.2
-0.003	-0.0046	0.045	-0.0195	-20.1
0.0255	-0.003	0.0142	0.0007	-20.1
0.0645	-0.003	-0.0165	-0.012	-20
0.072	-0.0053	-0.0346	-0.0173	-19.9
0.039	-0.003	-0.0285	-0.012	-19.9
0.0135	-0.0008	0.0045	-0.0008	-19.8
-0.0143	0.0007	0.0277	0.0277	-19.8
-0.0195	0.0007	0.0187	0.033	-19.7
-0.0181	-0.0046	-0.012	0.0315	-19.7
-0.0143	-0.0053	-0.0443	0.0307	-19.6
-0.003	-0.0008	-0.048	0.0232	-19.6
0.006	0.006	-0.0398	0.0105	-19.5
0.0427	0.0045	-0.0203	-0.0105	-19.4
0.0517	-0.0023	-0.0091	-0.0158	-19.4
0.0202	-0.0038	-0.0053	-0.0218	-19.4
0.0045	-0.003	0.0037	-0.0315	-19.3
-0.0233	0.0007	0.009	-0.0256	-19.3
-0.0503	0.0045	0.0367	-0.0256	-19.2
-0.0645	0.0082	0.0502	-0.0181	-19.1
-0.0563	0.0127	0.0705	0	-19.1
-0.0293	0.0157	0.0817	0	-19
-0.0173	0.012	0.0615	0.006	-19
0.0067	0.0052	0.0352	0.0165	-18.9
0.0142	-0.0015	-0.0413	0.0292	-18.9
-0.0068	-0.003	-0.1125	0.042	-18.8
-0.0256	-0.0091	-0.1426	0.033	-18.8
-0.0511	-0.0158	-0.12	0.0172	-18.7
-0.0555	-0.0143	-0.084	-0.003	-18.7
-0.0585	-0.0091	-0.0743	-0.0173	-18.6
-0.0353	-0.0015	-0.0263	-0.0203	-18.6
-0.0128	0.0007	0.0097	-0.0233	-18.5
-0.0173	0.0015	0.042	-0.0195	-18.5
0.003	0.0037	0.0817	-0.0143	-18.5
-0.0143	0.0052	0.0817	-0.0046	-18.4
-0.039	0.0082	0.0862	-0.003	-18.3
-0.063	0.0082	0.075	-0.0015	-18.3
-0.066	0.009	0.0705	0.0105	-18.2
-0.0091	0.0082	0.0765	0.0195	-18.2
0.0255	0.006	0.0742	0.027	-18.1
0.0825	0.0045	0.0847	0.027	-18.1
0.0982	-0.0008	0.0825	0.024	-18
0.0885	-0.0053	0.0997	-0.0008	-18
0.12	-0.0083	0.1027	-0.0323	-17.9
0.1222	-0.0053	0.0457	-0.0278	-17.9
0.141	-0.0008	-0.0615	-0.012	-17.8
0.1057	0.0052	-0.1965	-0.0038	-17.7
0.0367	0.0105	-0.2948	0.006	-17.7
-0.012	0.0097	-0.3308	0.0052	-17.6
-0.0765	0.0037	-0.2836	0.009	-17.6
-0.0998	0.003	-0.1658	0.0097	-17.5
-0.1073	0.0015	-0.0308	-0.0158	-17.5
-0.0495	-0.0068	0.0562	-0.0195	-17.4
0.0495	-0.0083	0.0997	-0.0053	-17.3
0.1162	-0.0046	0.1387	-0.0046	-17.3
0.1462	-0.006	0.1447	-0.0075	-17.2
0.084	-0.0053	0.1507	-0.0023	-17.1
0.012	0	0.1462	0.0082	-17.1
-0.0578	0.0045	0.1252	0.0195	-17.1
-0.0968	0.0097	0.1102	0.033	-17
-0.0758	0.009	0.0585	0.0292	-16.9
-0.078	0.0007	0.0067	0.0195	-16.9
-0.0638	-0.0068	-0.042	0.0015	-16.8
-0.0555	-0.0143	-0.075	-0.03	-16.7
-0.0653	-0.0225	-0.0885	-0.0533	-16.7
-0.0495	-0.0165	-0.1006	-0.0458	-16.6
-0.042	-0.0046	-0.0848	-0.0293	-16.6
-0.0233	0.0007	-0.066	-0.0195	-16.5
-0.0098	0.0067	-0.0181	-0.006	-16.4
-0.003	0.0105	0.0517	0.0067	-16.3
-0.0038	0.0135	0.0937	0.0277	-16.3
-0.0256	0.0142	0.1222	0.0502	-16.2
-0.0555	0.009	0.1102	0.0562	-16.2
-0.1043	0.0052	0.0592	0.0457	-16.1
-0.1335	0.0045	0.0037	0.0307	-16
-0.0953	0.0067	-0.0443	0.0067	-16
0.0075	0	-0.0585	-0.0263	-15.9
0.1282	-0.0113	-0.0383	-0.0533	-15.8
0.2107	-0.0195	0.015	-0.0765	-15.8
0.2257	-0.0203	0.102	-0.0593	-15.7
0.1785	-0.0128	0.144	-0.0368	-15.7
0.123	-0.0046	0.0952	-0.0091	-15.6
0.0697	0.006	0.0262	0.024	-15.6
-0.0008	0.0052	-0.042	0.0045	-15.5
-0.06	-0.0015	-0.0638	0.0015	-15.4
-0.0856	-0.003	-0.0668	0	-15.4
-0.0975	-0.0038	-0.084	0.003	-15.3
-0.0856	-0.0008	-0.0953	0.0172	-15.3
-0.0473	0.0007	-0.1238	0.021	-15.2
-0.0158	0.0015	-0.1065	0.045	-15.2
0.0195	-0.0008	-0.12	0.0352	-15.1
0.0352	-0.006	-0.1441	0.0097	-15
0.0277	-0.012	-0.1253	-0.0075	-15
-0.0015	-0.012	-0.075	-0.0165	-14.9
-0.0413	-0.0083	0.0255	-0.0181	-14.9
-0.0653	-0.0053	0.0855	-0.0188	-14.8
-0.0706	-0.0008	0.1365	-0.006	-14.8
-0.0503	0.0015	0.1635	-0.0008	-14.7
-0.0278	0.0067	0.1552	-0.0008	-14.6
-0.0068	0.006	0.1387	0	-14.6
-0.0008	0.003	0.0802	0.003	-14.5
-0.0023	0.003	0.021	0.003	-14.5
0.0142	0.0045	-0.0338	-0.0008	-14.4
0.0135	0.0105	-0.045	-0.0053	-14.4
0.0187	0.0105	-0.021	-0.0113	-14.3
0.0367	0.012	0.0067	-0.0143	-14.2
0.0315	0.0127	0.0592	-0.024	-14.2
-0.0083	0.0105	0.084	-0.0023	-14.1
-0.0773	0.0097	0.1155	0.0255	-14.1
-0.126	0.0052	0.1335	0.0307	-14
-0.1343	-0.0023	0.078	0.0412	-14
-0.1103	-0.0053	0.009	0.0307	-13.9
-0.0181	-0.0068	-0.0645	0.036	-13.8
0.1065	-0.0038	-0.1268	0.0307	-13.8
0.204	-0.003	-0.186	-0.0015	-13.7
0.2767	-0.012	-0.216	-0.0046	-13.6
0.2685	-0.0203	-0.162	-0.0165	-13.6
0.18	-0.0233	-0.0795	-0.0525	-13.5
0.0555	-0.0165	0.0472	-0.063	-13.5
-0.0645	-0.0083	0.135	-0.0503	-13.4
-0.1358	-0.0046	0.171	-0.0368	-13.4
-0.1928	0.003	0.192	-0.0165	-13.3
-0.1943	0.0105	0.1425	0.018	-13.3
-0.1223	0.0105	0.069	0.0517	-13.2
-0.0143	0.0075	-0.057	0.027	-13.1
0.075	-0.0046	-0.1815	-0.0038	-13.1
0.0922	-0.0158	-0.2438	0.0045	-13.1
0.0705	-0.021	-0.2258	-0.0046	-13
0.0307	-0.0218	-0.1208	-0.0046	-13
0	-0.0173	-0.027	-0.0053	-12.9
-0.0173	-0.0128	0.0322	-0.0105	-12.8
-0.042	-0.003	0.0345	0.0067	-12.8
-0.057	0.003	0.0082	0.0292	-12.7
-0.048	0.003	-0.012	0.048	-12.7
-0.0165	0.0075	-0.0398	0.0442	-12.6
0.0157	0.0135	-0.0293	0.0307	-12.6
0.036	0.0105	0.0187	0.0007	-12.6
0.0157	0.0015	0.0645	-0.048	-12.5
-0.0015	0.0022	0.0892	-0.0465	-12.4
0.0037	0.0045	0.129	-0.0233	-12.4
0.006	0.0045	0.1747	-0.0308	-12.3
0.0165	-0.0008	0.2122	-0.0293	-12.3
0.0007	-0.0023	0.2265	-0.0098	-12.2
0.0045	0	0.1852	0.021	-12.2
0.039	0.0022	0.1537	0.045	-12.2
0.0577	0.009	0.099	0.0367	-12.1
0.0697	0.015	0.033	0.036	-12
0.048	0.018	-0.0338	0.0457	-12
0.0307	0.0165	-0.1148	0.0292	-11.9
-0.0256	-0.0015	-0.1711	-0.0091	-11.9
-0.123	-0.0165	-0.2768	-0.0518	-11.8
-0.1875	-0.0181	-0.3105	-0.0495	-11.8
-0.2198	-0.015	-0.2933	-0.0165	-11.7
-0.1426	-0.0015	-0.2648	-0.0225	-11.7
-0.015	0.0067	-0.1358	-0.0046	-11.7
0.075	0.0082	-0.0098	0.0277	-11.6
0.108	0.0007	0.105	-0.0023	-11.5
0.0765	-0.0143	0.1755	-0.0436	-11.5
0.057	-0.0181	0.162	-0.0315	-11.4
0.0195	-0.0105	0.1035	-0.0128	-11.4
-0.0015	-0.0068	-0.0158	-0.0091	-11.3
-0.0091	-0.003	-0.108	0.0127	-11.3
-0.027	0.0052	-0.1365	0.0127	-11.3
-0.0105	0.0105	-0.0428	0.0142	-11.2
-0.0143	0.0135	0.1537	-0.0046	-11.1
0.003	0.0142	0.24	-0.0361	-11.1
0.024	0.0165	0.2647	-0.048	-11
0.0142	0.0135	0.1912	-0.042	-11
0.024	0.0097	0.0517	0.0165	-10.9
0.0247	0.0075	-0.0533	0.0472	-10.8
0.0472	-0.0038	-0.1703	0.0645	-10.8
0.075	-0.0098	-0.1485	0.0892	-10.8
0.0727	-0.012	-0.1343	0.0495	-10.7
0.0015	-0.0181	-0.1441	0.0052	-10.6
-0.1028	-0.0098	-0.1328	-0.006	-10.6
-0.1343	-0.003	-0.099	-0.0053	-10.5
-0.1441	-0.0023	0.0435	-0.0053	-10.5
-0.12	0.003	0.0915	-0.0053	-10.4
-0.0645	0.0105	0.1747	-0.003	-10.4
-0.0075	0.0135	0.1995	-0.0248	-10.3
0.039	0.0097	0.114	-0.039	-10.3
0.033	0.009	0.0427	-0.0338	-10.2
0.0157	0.009	-0.1178	-0.0098	-10.2
-0.027	0.0067	-0.1696	0.0232	-10.1
-0.0608	0.0052	-0.1688	0.051	-10.1
0.0052	-0.0015	-0.0743	0.0495	-10
0.1252	-0.0075	0.0645	0	-9.9
0.2137	-0.0053	0.138	-0.0346	-9.9
0.2437	-0.0008	0.2197	-0.0338	-9.9
0.27	-0.0015	0.21	-0.0346	-9.8
0.267	-0.0075	0.207	-0.0091	-9.8
0.1777	-0.0165	0.1065	0.0105	-9.7
0.0367	-0.0278	-0.027	-0.0075	-9.7
-0.1223	-0.0218	-0.09	0.0112	-9.6
-0.234	-0.0105	-0.1778	0.0067	-9.6
-0.2438	-0.0083	-0.186	0.0052	-9.5
-0.1823	-0.0068	-0.183	0.027	-9.5
-0.1118	-0.012	-0.1463	-0.0315	-9.4
-0.0511	-0.0068	-0.0825	-0.0405	-9.4
0.015	0.006	-0.0143	0.0112	-9.3
0.0427	0.0097	0.0742	0.0232	-9.3
0.0367	0.0082	0.0907	0.0405	-9.2
0.0082	0.006	0.1312	0.0217	-9.2
-0.0458	0.0097	0.2085	-0.0548	-9.1
-0.0691	0.0195	0.2835	-0.042	-9.1
-0.0691	0.027	0.3337	0.0015	-9
-0.0638	0.0195	0.273	-0.0638	-9
-0.039	0.006	0.1612	-0.0856	-8.9
-0.0135	0.0082	0.0277	-0.0353	-8.9
0.0232	0.0075	-0.1388	0.015	-8.8
0.0465	0.0007	-0.3285	0.0517	-8.8
0.0127	-0.0075	-0.4313	0.045	-8.7
-0.0653	-0.0181	-0.3548	0.018	-8.7
-0.1058	-0.0165	-0.291	-0.0218	-8.6
-0.0503	-0.0143	-0.2198	-0.0105	-8.6
0.0435	-0.0113	-0.0818	0.0315	-8.5
0.1485	-0.0023	0.0195	0.0345	-8.5
0.222	0.003	0.0967	0.0442	-8.4
0.1995	0.003	0.0982	0.0585	-8.4
0.0952	-0.0023	0.0907	0.069	-8.3
-0.042	-0.0046	0.084	0.042	-8.3
-0.1403	-0.0008	0.06	-0.0181	-8.2
-0.18	0.0015	0.0495	-0.0285	-8.2
-0.1553	0.0067	0.0135	-0.024	-8.1
-0.0721	0.009	0.0075	-0.045	-8.1
0.006	0.0097	0.033	-0.0668	-8.1
0.072	0	0.0607	-0.0915	-8
0.1125	-0.0083	0.1552	-0.0706	-8
0.12	0.0007	0.3045	-0.039	-7.9
0.0937	0.0082	0.3907	-0.0578	-7.9
0.039	0.0105	0.4065	-0.0405	-7.8
-0.0046	0.018	0.303	0.0165	-7.8
-0.0511	0.0307	0.036	0.0817	-7.8
-0.1741	0.033	-0.3225	0.09	-7.7
-0.3406	0.015	-0.6698	0.0765	-7.7
-0.4253	-0.0083	-0.7995	0.0937	-7.7
-0.4155	-0.021	-0.6023	0.0345	-7.6
-0.2723	-0.0195	-0.2348	-0.0195	-7.6
0.0667	-0.0046	0.081	0.0307	-7.5
0.429	0.0157	0.3022	0.0637	-7.5
0.6495	0.0262	0.3307	0.009	-7.4
0.6832	0.0127	0.258	-0.0285	-7.4
0.5175	-0.0098	0.195	-0.0015	-7.4
0.2512	-0.0181	0.0855	0.018	-7.3
-0.024	-0.0368	0.0502	-0.024	-7.3
-0.2288	-0.0533	-0.0698	-0.048	-7.3
-0.306	-0.0383	-0.1988	-0.0135	-7.2
-0.2745	-0.0225	-0.2295	-0.0285	-7.2
-0.1935	-0.0158	-0.2625	-0.0158	-7.2
-0.1305	-0.0053	-0.1988	0.0007	-7.2
-0.0795	0.003	-0.1748	-0.0046	-7.1
-0.0353	0.0082	-0.135	0.0232	-7.1
-0.0128	0.0105	-0.0765	0.0255	-7.1
0.0127	0.0157	0.0517	0.0547	-7.1
0.033	0.0217	0.2272	0.0352	-7
0.0337	0.0232	0.2805	0.012	-7
0.0142	0.0232	0.3405	-0.0046	-7
-0.0188	0.0142	0.2895	-0.0856	-6.9
-0.057	0.0037	0.1965	-0.111	-6.9
-0.0878	0.0022	0.1177	-0.0721	-6.9
-0.0848	0.0082	0.0037	-0.0413	-6.8
-0.0413	0.012	-0.0315	-0.0203	-6.8
0.0337	0.0142	-0.0368	0.0007	-6.8
0.0825	0.0195	0.0232	0.0142	-6.8
0.105	0.0157	0.0585	0.0157	-6.7
0.1087	0.0105	0.0795	0.0127	-6.7
0.054	0.003	0.1102	-0.0068	-6.7
-0.0203	-0.0113	0.0645	-0.0098	-6.6
-0.105	-0.012	0.0592	0.009	-6.6
-0.1763	-0.0143	0.0255	0.0022	-6.5
-0.189	-0.012	-0.039	0.0262	-6.5
-0.114	0.0045	-0.1155	0.048	-6.5
0.0562	0.0052	-0.2235	0.0622	-6.4
0.2017	-0.0128	-0.2565	0.045	-6.4
0.249	-0.0308	-0.2078	0.012	-6.3
0.2332	-0.0293	-0.0608	0.0165	-6.3
0.1627	-0.0218	0.0517	-0.039	-6.3
0.0592	-0.0143	0.0675	-0.0091	-6.3
-0.0165	-0.0038	0.0517	0.0345	-6.2
-0.0578	-0.0053	0.018	0.0015	-6.2
-0.0713	-0.0008	0.0007	-0.0278	-6.2
-0.0758	-0.0053	-0.0593	-0.09	-6.1
-0.054	-0.0038	-0.1065	-0.0585	-6.1
-0.039	0.0052	-0.099	-0.048	-6.1
-0.0645	0.0075	-0.0225	-0.0405	-6.1
-0.0458	0.0172	0.1095	0.0067	-6
-0.0256	0.024	0.171	0.012	-6
-0.0075	0.0255	0.2107	0.045	-6
-0.0008	0.0217	0.1785	0.057	-5.9
-0.0413	0.0142	0.1125	0.0817	-5.9
-0.0645	0.003	0.0802	0.075	-5.9
-0.12	-0.0098	0.0592	0.0525	-5.9
-0.219	-0.0113	0.054	0.066	-5.9
-0.2858	-0.0143	0.048	0.0607	-5.8
-0.246	-0.0083	0.1192	0.0262	-5.8
-0.0938	-0.0046	0.099	-0.057	-5.8
0.1297	0	-0.0225	-0.0495	-5.7
0.3652	0.0112	-0.2048	0.003	-5.7
0.447	0.0015	-0.5063	-0.033	-5.7
0.3802	-0.0113	-0.6465	-0.0128	-5.7
0.2092	-0.0083	-0.5003	-0.0533	-5.6
-0.0091	-0.0053	-0.2738	-0.1965	-5.6
-0.1658	0.0045	-0.1021	-0.2145	-5.6
-0.258	0.018	0.1372	-0.12	-5.5
-0.1815	0.0247	0.291	-0.0278	-5.5
-0.027	0.018	0.3367	0.0045	-5.5
0.0952	-0.003	0.3742	0.0555	-5.5
0.1822	-0.0143	0.3345	0.0645	-5.4
0.123	-0.0165	0.3427	0.0727	-5.4
0.057	-0.0091	0.3142	0.1125	-5.4
-0.0195	0.0045	0.2482	0.12	-5.4
-0.1478	0.0045	0.171	0.156	-5.4
-0.1515	-0.006	0.1087	0.0892	-5.3
-0.1193	-0.024	0.0442	-0.0428	-5.3
-0.0683	-0.0383	-0.1845	-0.0578	-5.3
0.0277	-0.0263	-0.3615	-0.0428	-5.3
0.1125	-0.0181	-0.4815	-0.0856	-5.2
0.2272	-0.0113	-0.5213	-0.045	-5.2
0.2332	0	-0.4125	-0.0143	-5.2
0.138	0.009	-0.3481	-0.0023	-5.2
0.0292	0.012	-0.1741	0.0352	-5.1
-0.1006	0.009	-0.0015	0.0217	-5.1
-0.1515	0.009	0.1042	0.039	-5.1
-0.195	0.0142	0.2377	0.0412	-5.1
-0.2078	0.021	0.2542	0.0585	-5
-0.1875	0.0172	0.2835	0.0555	-5
-0.1853	0.0105	0.2407	0.03	-5
-0.1118	0.009	0.15	0.018	-5
-0.0615	0.0052	0.0892	-0.0653	-5
-0.0008	0.0007	0.0082	-0.1125	-5
0.0922	-0.0008	0.0292	-0.0885	-4.9
0.1687	0.0082	0.0427	-0.0615	-4.9
0.2557	0.0112	0.0592	-0.0518	-4.9
0.2962	0.0142	0.1005	0.0232	-4.9
0.2872	0.0195	0.1102	0.0712	-4.9
0.1777	0.0007	0.0682	0.012	-4.8
0.06	-0.0015	0.0645	0.0157	-4.8
-0.0398	0.0082	0.2025	0.0082	-4.8
-0.1988	0.0045	0.363	0.0007	-4.8
-0.3285	0.0075	0.4732	0.066	-4.7
-0.4725	0.0075	0.4327	0.0735	-4.7
-0.5243	-0.0143	0.21	-0.0353	-4.7
-0.4688	-0.0368	-0.1688	-0.1185	-4.7
-0.3878	-0.0315	-0.6105	-0.024	-4.7
-0.0518	-0.0218	-0.9083	0.009	-4.7
0.4282	-0.0203	-0.9758	0.0322	-4.6
0.8055	-0.003	-0.7748	0.0847	-4.6
0.9345	-0.0008	-0.471	0.0157	-4.6
0.6802	-0.0128	-0.246	0.0007	-4.6
0.3457	-0.0233	-0.0218	-0.039	-4.6
0.0382	-0.0225	0.0495	-0.0443	-4.6
-0.21	-0.0008	0.069	-0.0413	-4.6
-0.2925	0.0067	0.1372	-0.0818	-4.5
-0.3406	0.0157	0.1297	0.0142	-4.5
-0.2985	0.0232	0.1785	0.036	-4.5
-0.2633	0.009	0.2332	-0.003	-4.5
-0.2558	0.0067	0.3007	0.009	-4.5
-0.2288	0.012	0.363	0.0082	-4.5
-0.2423	0.024	0.3652	0.0315	-4.5
-0.162	0.0307	0.3622	0.0472	-4.5
-0.0975	0.0315	0.2655	0.0525	-4.5
-0.003	0.0307	0.1425	-0.0165	-4.5
0.189	-0.0008	-0.0315	-0.1155	-4.5
0.3472	-0.024	-0.114	-0.075	-4.4
0.4792	-0.0285	-0.0263	0.0157	-4.4
0.4432	-0.0405	-0.0405	-0.0143	-4.4
0.2805	-0.0361	-0.0563	-0.0511	-4.4
0.0757	-0.0165	-0.0893	-0.0046	-4.4
-0.1065	-0.0068	-0.0765	0.0367	-4.4
-0.1726	0.0045	-0.0038	0.0682	-4.4
-0.1898	0.006	-0.0615	0.0397	-4.3
-0.1613	-0.0091	-0.0773	0.0217	-4.3
-0.1785	-0.0083	-0.0923	0.0622	-4.3
-0.186	0.0082	-0.0068	0.0645	-4.3
-0.1305	0.0142	0.1192	0.0442	-4.3
-0.0788	0.009	0.1965	-0.012	-4.3
0.0202	-0.0015	0.3367	-0.075	-4.3
0.0682	-0.012	0.3015	-0.0173	-4.3
0.069	-0.0113	0.1845	0.012	-4.2
0.0645	-0.0128	-0.0046	-0.0181	-4.2
0.048	-0.0015	-0.1193	-0.0368	-4.2
0.0787	0.012	-0.1043	-0.1305	-4.2
0.093	0.0157	-0.1973	-0.0825	-4.2
0.0922	0.0165	-0.2175	0.0007	-4.2
0.0495	0.0052	-0.2093	0.0765	-4.2
-0.0683	0.0097	-0.1275	0.177	-4.1
-0.2026	0.015	-0.1013	0.1117	-4.1
-0.3218	-0.0015	-0.2423	-0.003	-4.1
-0.3413	-0.021	-0.2933	-0.1283	-4.1
-0.2948	-0.024	-0.3248	-0.09	-4.1
-0.1935	-0.0158	-0.2363	0.0187	-4.1
-0.0398	-0.0053	-0.0615	0.0427	-4.1
0.0825	0.0187	0.0532	0.138	-4.1
0.2257	0.027	0.1455	0.069	-4.1
0.3022	0.0105	0.195	-0.1035	-4.1
0.3135	0.0015	0.2617	-0.0893	-4
0.3435	0.0105	0.2737	0.0322	-4
0.303	0.0052	0.1845	0.009	-4
0.2422	-0.0181	0.0712	-0.1043	-4
0.0892	-0.0195	0.036	-0.117	-4
-0.0923	-0.0075	0.111	-0.0675	-4
-0.186	-0.015	0.165	0.006	-4
-0.2948	-0.0195	0.1635	0.0315	-4
-0.3023	-0.0128	0.042	-0.0068	-4
-0.2821	-0.0143	-0.0856	-0.0015	-4
-0.252	-0.0098	-0.0721	0.0307	-4
-0.1365	0.0045	-0.0758	0.0457	-4
-0.084	0.0127	-0.0398	0.0412	-4
-0.0668	0.006	-0.0068	-0.0068	-4
-0.1268	-0.0015	0.0135	-0.0113	-4
-0.159	0	0.0877	-0.024	-3.9
-0.0375	0.0045	0.009	-0.0165	-3.9
0.1117	0.012	-0.0593	0.0442	-3.9
0.2865	0.0097	-0.1163	0.0352	-3.9
0.3877	0.0105	-0.2168	0.078	-3.9
0.3712	0.0097	-0.2011	0.0525	-3.9
0.303	-0.0015	-0.063	-0.0091	-3.9
0.216	0.0037	0.0712	0.0577	-3.9
0.1552	0.0105	0.1342	0.069	-3.9
0.072	0.0015	0.1957	0.0397	-3.9
0.039	0.0015	0.1627	0.027	-3.9
0.0667	-0.0068	0.105	0.0165	-3.9
0.0862	-0.0181	0	-0.0555	-3.9
0.0877	-0.0128	-0.0263	-0.189	-3.9
-0.0165	-0.0091	0.0127	-0.1403	-3.9
-0.09	0.0097	-0.045	-0.0181	-3.9
-0.1073	0.0187	0.0652	0.03	-3.9
-0.1463	0.018	0.1665	0.129	-3.9
-0.1006	0.0232	0.153	0.0622	-3.9
-0.0308	-0.0015	0.0405	-0.021	-3.9
0.009	-0.0173	-0.237	-0.0428	-3.9
-0.0105	-0.0233	-0.369	-0.12	-3.9
-0.0691	-0.0203	-0.3375	-0.0668	-3.9
-0.1088	-0.0053	-0.24	-0.0721	-3.9
-0.1305	0.0082	-0.1223	-0.0225	-3.9
-0.099	0.0202	-0.0398	0.0517	-3.8
-0.1268	0.0142	0.0427	0.0435	-3.8
-0.1815	0.0157	0.0742	0.0465	-3.8
-0.1965	0.0067	0.1432	-0.0248	-3.8
-0.2011	0.0045	0.2617	0.0202	-3.8
-0.108	0.0187	0.408	0.054	-3.8
0.0315	0.015	0.4747	0.0667	-3.8
0.1792	-0.0008	0.4035	0.066	-3.8
0.261	-0.033	0.2587	-0.0645	-3.8
0.1957	-0.0458	-0.0053	-0.0511	-3.8
0.09	-0.0398	-0.2625	-0.0046	-3.8
-0.0128	-0.0323	-0.4935	-0.0285	-3.8
-0.048	-0.003	-0.6323	0.0255	-3.8
-0.003	0.009	-0.636	0.0555	-3.8
0.0382	0.0165	-0.5153	0.0345	-3.8
0.0915	0.0277	-0.1748	0.0352	-3.8
0.0997	0.0217	0.1012	-0.003	-3.8
0.0465	0.0195	0.2685	-0.021	-3.8
-0.0068	0.0112	0.372	-0.0315	-3.8
-0.081	0.0187	0.3622	-0.042	-3.8
-0.2228	0.024	0.312	0.069	-3.7
-0.4133	0.0202	0.1807	0.1417	-3.7
-0.4778	0.0232	0.081	0.1185	-3.7
-0.3795	-0.003	0.0127	-0.0233	-3.7
-0.2063	-0.027	-0.0473	-0.2145	-3.7
0.0735	-0.0293	-0.0555	-0.1493	-3.7
0.3855	-0.0256	-0.024	-0.0555	-3.7
0.5227	-0.0113	0.003	0.0007	-3.7
0.513	0.0142	0.03	0.1125	-3.7
0.474	0.024	0.0682	0.0787	-3.7
0.3892	0.0045	-0.0653	0.0202	-3.7
0.216	-0.0188	-0.2955	-0.0518	-3.7
-0.0233	-0.027	-0.4425	-0.0525	-3.7
-0.2085	-0.0158	-0.372	-0.0353	-3.7
-0.3511	-0.0068	-0.2026	-0.0623	-3.7
-0.3728	0.0007	-0.045	-0.012	-3.7
-0.2603	0.0142	0.273	-0.0143	-3.7
-0.1628	0.0255	0.5475	0.0435	-3.7
-0.06	0.0307	0.7072	0.0255	-3.7
-0.0338	0.0232	0.7275	-0.0691	-3.7
-0.0181	0.021	0.5872	0.0367	-3.7
0.0607	0.012	0.3157	0.0322	-3.7
0.1282	-0.0203	-0.1965	-0.0878	-3.7
0.1837	-0.0346	-0.729	0.0285	-3.7
0.1455	-0.0203	-0.9045	0.0457	-3.7
0.0555	-0.015	-0.6983	-0.0128	-3.7
-0.0443	-0.0053	-0.4725	0.0427	-3.7
-0.0915	0.0127	-0.21	0.0495	-3.7
-0.0181	0.0165	0.0142	0.1252	-3.7
0.0802	0.0142	0.159	0.1387	-3.7
0.1492	-0.0008	0.339	0.0757	-3.7
0.132	-0.0263	0.237	-0.1305	-3.7
0.0532	-0.039	0.0937	-0.1703	-3.7
-0.0083	-0.033	0.0202	-0.081	-3.7
-0.0885	-0.0353	-0.0195	-0.1943	-3.7
-0.0818	-0.0233	0.018	-0.0698	-3.6
0.009	0.0045	0.0202	-0.0091	-3.6
0.0075	0.0172	0.0877	-0.0105	-3.6
-0.0218	0.024	0.1117	0.0405	-3.6
-0.0975	0.0195	0.1807	0.0052	-3.6
-0.1515	0.0142	0.255	0.0352	-3.6
-0.1305	0.0127	0.327	0.003	-3.6
-0.1268	0.0322	0.429	0.0795	-3.6
-0.054	0.0487	0.3937	0.1185	-3.6
-0.0158	0.0457	0.357	0.081	-3.6
-0.0293	0.033	0.1725	0.1867	-3.6
-0.0165	0.0045	-0.1013	0.2175	-3.6
0.0127	-0.0308	-0.3533	0.093	-3.6
0.0937	-0.0675	-0.6368	-0.1058	-3.6
0.1792	-0.0713	-0.6915	-0.1778	-3.6
0.2377	-0.0398	-0.5775	-0.105	-3.6
0.207	-0.0181	-0.3421	-0.0555	-3.6
0.0622	-0.0091	-0.033	-0.0683	-3.6
-0.09	0.0045	0.2587	-0.0165	-3.6
-0.1726	0.018	0.423	0.0735	-3.6
-0.2378	0.0187	0.3465	0.0997	-3.6
-0.2063	0.0082	0.1837	0.0765	-3.6
-0.042	-0.0158	-0.0165	-0.0046	-3.6
0.0442	-0.0083	-0.2468	-0.0113	-3.6
0.0697	0.003	-0.471	-0.0923	-3.6
0.0952	0	-0.5026	-0.0983	-3.6
0.1207	0.012	-0.39	-0.0458	-3.6
0.1327	-0.0015	-0.1973	-0.0698	-3.6
0.135	-0.003	0.0457	-0.0428	-3.6
0.1395	-0.0053	0.216	-0.1328	-3.6
0.042	-0.0143	0.39	-0.081	-3.6
-0.0615	0.003	0.405	0.0052	-3.6
-0.1275	0.0052	0.339	0.0472	-3.6
-0.1441	0.0082	0.195	0.1215	-3.6
-0.093	0.009	-0.0083	0.0945	-3.6
-0.0353	0.0007	-0.126	0.0502	-3.6
0.0517	-0.0015	-0.129	-0.0346	-3.6
0.0952	0.0045	0.012	-0.0128	-3.6
0.0817	0.0195	0.1012	-0.0518	-3.6
-0.0165	0.0157	0.2025	-0.0413	-3.6
-0.1756	0.0112	0.2947	0.0772	-3.6
-0.2948	0.006	0.384	-0.0315	-3.6
-0.378	-0.0023	0.474	0.006	-3.6
-0.3345	0.0105	0.3847	0.0435	-3.6
-0.1665	0.0075	0.1717	-0.039	-3.6
0.1102	0.003	-0.1155	0.0787	-3.6
0.3637	-0.006	-0.3825	0.0705	-3.6
0.423	-0.0263	-0.6376	-0.0795	-3.6
0.3015	-0.0278	-0.765	-0.1253	-3.6
0.0855	-0.0263	-0.75	-0.0668	-3.6
-0.0165	-0.0181	-0.612	-0.0375	-3.6
-0.0428	-0.006	-0.2655	0.0075	-3.6
0.0082	0.0067	-0.0128	0.0457	-3.6
0.066	0.006	0.2325	0.0255	-3.6
0.0082	0.0045	0.3802	0.0637	-3.6
0.0232	0.0052	0.3727	0.063	-3.5
0.0277	-0.003	0.3255	0.069	-3.5
-0.0173	0.003	0.1777	0.03	-3.5
-0.0555	0.0052	0.1357	-0.0053	-3.5
-0.0503	0.0097	0.0135	-0.0105	-3.5
0.03	0.0127	0.0007	-0.0353	-3.5
-0.0068	0.0135	0.0975	-0.012	-3.5
-0.12	0.0262	0.0877	-0.015	-3.5
-0.18	0.0277	0.1072	0.006	-3.5
-0.1965	0.0292	0.0292	0.0442	-3.5
-0.1178	0.018	0.0435	0.0187	-3.5
0.0727	-0.0105	0.0787	-0.0165	-3.5
0.2295	-0.0308	0.0562	0.0345	-3.5
0.3157	-0.0263	0.0105	0.0195	-3.5
0.3142	-0.0181	-0.0878	-0.0458	-3.5
0.1912	-0.0173	-0.0915	0.0142	-3.5
0.051	-0.0188	-0.0848	0.0382	-3.5
-0.123	-0.0158	-0.0173	0.0375	-3.5
-0.2513	-0.0165	0.081	-0.0023	-3.5
-0.312	-0.0098	0.2235	-0.0525	-3.5
-0.3068	0.0112	0.3202	-0.0615	-3.4
-0.2678	0.003	0.2707	-0.1305	-3.4
-0.2768	-0.0015	0.1477	-0.1426	-3.4
-0.1493	0.0067	-0.0773	-0.0465	-3.4
0.054	0.0202	-0.1703	0.0615	-3.4
0.2947	0.0262	-0.195	0.1515	-3.4
0.4837	-0.0038	-0.2798	0.168	-3.4
0.435	-0.0195	-0.3668	0.1462	-3.4
0.3142	-0.0128	-0.4463	0.0367	-3.4
0.1027	-0.021	-0.4043	-0.1553	-3.4
-0.0878	-0.0158	-0.2985	-0.1223	-3.4
-0.1515	0.0067	-0.1155	-0.0585	-3.4
-0.2011	0.009	0.054	-0.0683	-3.4
-0.1965	0.003	0.0787	-0.0353	-3.4
-0.192	0.0007	0.1702	-0.0368	-3.4
-0.1396	0.0172	0.2212	0.057	-3.4
-0.0623	0.0352	0.2707	0.0855	-3.4
-0.0308	0.0285	0.339	0.0862	-3.4
-0.0225	0.0052	0.3082	0.1042	-3.4
-0.0608	-0.0128	0.2332	0.069	-3.4
-0.0398	-0.0046	0.054	0.1012	-3.4
-0.0795	0.0165	-0.0181	0.1732	-3.4
-0.1628	0.0345	-0.0713	0.1365	-3.4
-0.1478	0.0232	-0.0788	-0.183	-3.4
-0.156	-0.0105	-0.0533	-0.3188	-3.4
-0.1043	-0.0293	-0.1455	-0.1538	-3.4
-0.0008	-0.0488	-0.0968	-0.1268	-3.4
0.156	-0.0443	-0.0443	-0.0638	-3.4
0.3742	-0.0346	-0.0143	-0.0188	-3.4
0.471	-0.0293	-0.0143	-0.0405	-3.4
0.462	-0.0098	-0.1388	-0.0053	-3.4
0.3547	-0.0008	-0.1665	-0.0158	-3.4
0.2602	0.0157	-0.0803	0.0007	-3.4
0.156	0.018	0.0915	0.018	-3.4
-0.0353	0.015	0.2062	0.0615	-3.4
-0.1463	0.0135	0.2107	0.081	-3.4
-0.2138	0.0045	0.15	0.0517	-3.4
-0.2483	0.012	-0.0015	0.0195	-3.4
-0.2723	0.0127	-0.0503	-0.0518	-3.4
-0.264	0.0165	-0.0728	-0.0308	-3.4
-0.2123	0.0195	-0.1073	0.0345	-3.4
-0.2633	0.015	0.0082	0.069	-3.4
-0.2535	0.0127	0.117	0.1327	-3.4
-0.1313	0.0037	0.1305	0.1237	-3.4
0.0937	-0.0053	0.0427	0.0465	-3.4
0.4245	-0.0128	-0.1448	-0.0195	-3.3
0.5992	-0.0195	-0.2138	-0.0953	-3.3
0.5775	-0.0105	-0.1125	-0.0878	-3.3
0.3322	0.0015	0.0352	-0.033	-3.3
0.084	-0.0046	0.1837	-0.0128	-3.3
-0.0053	0.003	0.225	0.033	-3.3
-0.1238	0.0142	0.1027	0.0825	-3.3
-0.1441	0.0157	-0.1125	0.054	-3.3
-0.1838	0.0067	-0.3255	0.0067	-3.3
-0.237	-0.0075	-0.3533	0.0195	-3.3
-0.2685	-0.0181	-0.2543	-0.1163	-3.3
-0.3488	-0.0203	-0.156	-0.1823	-3.3
-0.3158	-0.0091	-0.0105	-0.0773	-3.3
-0.3248	-0.0038	0.12	-0.1065	-3.3
-0.2348	0.0202	0.2872	-0.0038	-3.3
-0.0856	0.0382	0.387	0.0735	-3.3
-0.0495	0.0315	0.4027	0.0382	-3.3
0.1102	0.0277	0.465	0.012	-3.3
0.2722	0.0127	0.4102	-0.06	-3.3
0.4507	0.0112	0.3832	0.0765	-3.3
0.5062	0.0082	0.3097	0.1785	-3.3
0.4177	-0.0091	0.0937	0.1792	-3.3
0.3277	-0.0308	-0.057	0.192	-3.3
0.081	-0.0525	-0.261	0.0247	-3.3
-0.075	-0.0645	-0.3773	-0.2265	-3.3
-0.2273	-0.0511	-0.3391	-0.2041	-3.3
-0.3233	-0.0233	-0.5003	-0.0795	-3.3
-0.3075	-0.0293	-0.8101	-0.0848	-3.3
-0.4021	-0.0181	-1.107	-0.0008	-3.3
-0.3593	0.0052	-1.0133	-0.0105	-3.3
-0.3075	0.024	-0.435	0.0427	-3.3
-0.2003	0.0442	0.0262	0.099	-3.3
0.0112	0.0352	0.4665	0.0765	-3.3
0.1252	0.024	0.7192	0.0495	-3.3
0.2715	-0.003	0.6855	-0.1118	-3.3
0.336	-0.0158	0.5775	-0.0458	-3.3
0.363	0	0.2812	-0.0091	-3.3
0.3292	-0.0008	0.1305	-0.0346	-3.3
0.18	0.0045	0.0142	0.0352	-3.3
0.0937	0.0105	-0.0173	0.0067	-3.3
-0.0361	0.012	0.0442	0.0585	-3.2
-0.1688	0.0195	0.0307	0.033	-3.2
-0.3008	0.0097	0.102	-0.0713	-3.2
-0.4148	0.003	0.0765	-0.0833	-3.2
-0.429	0.0082	0.0517	-0.0405	-3.2
-0.366	0.003	0.054	-0.0091	-3.2
-0.093	0.0097	0.069	0.0135	-3.2
0.2085	0.0112	0.1012	0.0607	-3.2
0.3877	-0.0008	0.093	0.0465	-3.2
0.4335	0.0007	0.1657	0.0367	-3.2
0.309	0.0052	0.1837	0.0585	-3.2
0.1507	0.0202	0.1657	0.0855	-3.2
-0.0353	0.033	0.1485	0.1275	-3.2
-0.1441	0.018	0.1147	0.1275	-3.2
-0.1493	-0.0195	0.0075	-0.0698	-3.2
-0.0263	-0.0593	-0.318	-0.2535	-3.2
0.132	-0.0638	-0.6638	-0.1441	-3.2
0.165	-0.0443	-0.7538	-0.0518	-3.2
0.207	-0.0346	-0.5693	-0.0278	-3.2
0.1582	-0.0173	-0.3105	0.0142	-3.2
0.0847	0.0007	-0.0181	-0.0203	-3.2
0.003	0.012	0.2542	0.0022	-3.2
-0.0938	0.0135	0.411	0.0405	-3.2
-0.1215	0.003	0.507	0.0817	-3.2
-0.198	0.0045	0.4425	0.087	-3.2
-0.2153	0.0045	0.3037	0.0345	-3.2
-0.2003	0.0037	0.12	0.0345	-3.2
-0.153	0.009	-0.0593	0.0165	-3.2
-0.0675	0.021	-0.0825	0.0255	-3.2
0.0577	0.027	-0.0518	-0.0091	-3.2
0.2145	0.009	0.0525	-0.0353	-3.2
0.1387	-0.0008	0.138	0.0307	-3.2
-0.0353	-0.0068	0.1702	0.024	-3.2
-0.1898	-0.0181	0.144	-0.0548	-3.2
-0.2925	-0.0181	-0.039	-0.084	-3.2
-0.1733	-0.0195	-0.2783	-0.039	-3.2
0.003	-0.0128	-0.5116	-0.0383	-3.2
0.1957	0.0067	-0.6083	0.0037	-3.2
0.3517	0.018	-0.5633	0.0142	-3.2
0.3082	0.0255	-0.2873	-0.0405	-3.2
0.2227	0.027	0.123	-0.0436	-3.2
0.0922	0.0225	0.3405	-0.0495	-3.2
-0.0518	0.0105	0.507	-0.0195	-3.2
-0.1613	-0.0128	0.4462	-0.0465	-3.2
-0.2918	-0.0143	0.2775	-0.024	-3.2
-0.291	0.0105	0.0757	0.0607	-3.2
-0.216	0.0262	-0.2026	0.1237	-3.2
-0.0818	0.0232	-0.2948	0.228	-3.2
0.072	0.0142	-0.3436	0.288	-3.2
0.1462	0.0127	-0.2715	0.153	-3.2
0.2107	-0.0038	-0.1778	-0.0698	-3.2
0.2085	-0.0278	-0.0818	-0.0953	-3.2
0.1927	-0.042	0.1005	-0.2048	-3.2
0.0907	-0.0578	0.1927	-0.2243	-3.2
-0.0615	-0.048	0.288	-0.096	-3.2
-0.1418	-0.024	0.3105	-0.1268	-3.2
-0.2325	-0.0105	0.3382	-0.0533	-3.2
-0.1973	0	0.3075	-0.054	-3.2
-0.1215	0.009	0.0787	-0.0293	-3.2
-0.0233	0.0202	-0.0825	0.0337	-3.2
0.1365	0.0195	-0.1973	0.0427	-3.2
0.18	0.0067	-0.2048	0.1005	-3.2
0.2002	-0.0075	-0.2108	0.0517	-3.2
0.1552	-0.003	-0.2475	0.0592	-3.2
0.0607	0.0097	-0.159	0.0592	-3.2
0.012	0.0142	-0.0878	0.0127	-3.2
-0.0638	0.012	0.0322	-0.027	-3.2
-0.0706	0.0052	0.123	-0.0465	-3.2
-0.0765	0.0105	0.195	0.0022	-3.2
-0.1313	0.015	0.237	0.027	-3.2
-0.1598	0.0187	0.222	0.003	-3.3
-0.1928	0.009	0.1987	-0.0225	-3.3
-0.15	0.0015	0.0877	0.0165	-3.3
-0.0473	-0.0008	-0.0135	0.0195	-3.3
0.0652	-0.0128	-0.1313	-0.012	-3.3
0.1477	-0.0068	-0.1763	0.0607	-3.3
0.1282	0.0082	-0.1463	0.1057	-3.3
0.057	0.0232	-0.0653	0.0585	-3.3
-0.0518	0.0217	0.141	-0.0915	-3.3
-0.0975	0.0015	0.3007	-0.195	-3.3
-0.0975	-0.0091	0.3615	-0.0773	-3.2
-0.0623	-0.0203	0.2722	-0.0503	-3.2
0.0015	-0.027	0.0862	-0.0158	-3.2
0.0037	-0.0158	-0.108	0.0795	-3.2
0.0862	-0.0053	-0.2445	0.0352	-3.2
0.1605	-0.0165	-0.4013	0.042	-3.2
0.2347	-0.027	-0.5761	0.0577	-3.2
0.294	-0.0248	-0.5438	0.0367	-3.2
0.21	-0.024	-0.483	0.0112	-3.2
0.1275	-0.0105	-0.324	-0.0181	-3.2
-0.0353	0.0105	-0.0533	-0.0053	-3.2
-0.1711	0.0142	0.126	-0.0015	-3.2
-0.2385	0.0127	0.2932	0.012	-3.2
-0.2873	0.0135	0.3772	0.0607	-3.2
-0.195	0.0127	0.4155	0.0712	-3.2
-0.1095	0.0075	0.399	-0.0323	-3.2
0.0502	-0.006	0.288	-0.0608	-3.2
0.1942	-0.0098	0.195	0.0142	-3.2
0.1957	-0.012	0.0727	-0.024	-3.2
0.141	-0.0128	0.0052	-0.0405	-3.2
-0.0165	-0.0053	-0.0323	-0.0465	-3.2
-0.1253	0.0007	-0.063	-0.0555	-3.2
-0.2063	0.0142	0.0502	-0.0225	-3.2
-0.1965	0.0277	0.1207	-0.0181	-3.2
-0.06	0.0367	0.1177	0.012	-3.2
0.069	0.0277	0.0172	0.0315	-3.2
0.2137	-0.0023	-0.0675	0.063	-3.2
0.2565	-0.0203	-0.0361	0.0352	-3.2
0.1905	-0.0181	-0.1508	-0.0375	-3.2
0.0502	-0.0105	-0.2761	-0.0368	-3.2
-0.1028	0.0007	-0.3555	-0.0315	-3.3
-0.156	0.0187	-0.261	0.003	-3.3
-0.189	0.0285	-0.0165	0.0697	-3.3
-0.1613	0.0315	0.1155	0.099	-3.3
-0.0856	0.024	0.219	0.0967	-3.3
-0.054	-0.0128	0.1537	-0.027	-3.3
-0.0256	-0.042	0.087	-0.1013	-3.3
-0.0053	-0.042	-0.0046	-0.0046	-3.3
0.0495	-0.0293	-0.1741	-0.027	-3.3
0.1215	-0.0158	-0.2123	-0.0195	-3.3
0.1612	-0.0098	-0.231	0.0067	-3.3
0.159	-0.0083	-0.0923	-0.0278	-3.3
0.084	-0.0008	-0.042	0.009	-3.3
-0.0135	-0.0023	-0.0871	-0.0105	-3.3
-0.1118	0.0045	-0.0713	0.0217	-3.3
-0.1426	0.0135	-0.0285	0.0157	-3.3
-0.0915	0.0127	0.162	-0.0346	-3.3
-0.0368	0.0105	0.2137	-0.0368	-3.3
0.012	0.0165	0.2595	-0.0308	-3.3
0.0105	0.0262	0.2332	-0.012	-3.3
0.0127	0.0157	0.1305	-0.0098	-3.3
-0.0015	0.0097	0.0705	0.0165	-3.3
-0.0428	0.0082	-0.084	0.0442	-3.3
-0.0428	0.0052	-0.0683	0.0757	-3.3
-0.0653	0.0045	-0.042	0.0877	-3.3
-0.06	0.0097	-0.003	0.084	-3.3
-0.0068	0.0202	0.0667	0.0585	-3.3
0.0457	0.0172	0.0502	-0.039	-3.3
0.0517	-0.006	0.0765	-0.1373	-3.3
-0.0053	-0.0278	0.051	-0.1523	-3.3
-0.0143	-0.0143	0.036	-0.0871	-3.3
-0.0256	-0.0023	-0.0023	-0.0413	-3.3
0.0195	-0.0053	-0.0443	-0.0233	-3.3
0.1072	-0.0091	-0.0465	0.0382	-3.3
0.0795	-0.012	-0.0848	0.0495	-3.3
0.0825	-0.0008	-0.0128	0.0157	-3.3
0.0667	0.0037	-0.021	0.0375	-3.3
0.027	-0.0023	-0.1043	0.0307	-3.3
0.0832	-0.0113	-0.1726	-0.0068	-3.3
0.1117	-0.0158	-0.216	0.0277	-3.3
0.1372	-0.003	-0.0803	0.0442	-3.3
0.084	-0.0015	-0.0068	0.0255	-3.3
-0.0368	-0.0008	0.0892	0.0052	-3.3
-0.0915	-0.0023	0.1642	-0.0293	-3.3
-0.1635	0.0007	0.1725	-0.0068	-3.3
-0.1778	0.009	0.2047	0.0142	-3.3
-0.1411	-0.0046	0.0982	0.009	-3.3
-0.0908	-0.0083	0.0645	-0.0105	-3.3
-0.0346	-0.012	0.009	-0.0308	-3.3
-0.0068	-0.012	-0.0428	-0.0285	-3.3
0.0367	-0.0008	-0.0165	-0.0158	-3.3
0.0495	0.0097	0.0045	0.003	-3.3
0.0832	0.0157	0.1305	0.0405	-3.3
0.069	0.0157	0.2092	0.084	-3.3
0.0277	0.009	0.207	0.042	-3.3
0.0562	0.006	0.0675	0.03	-3.3
0.0495	0.0165	-0.1688	0.048	-3.3
0.069	0.0022	-0.3135	-0.0563	-3.3
0.0495	-0.0105	-0.2618	-0.1148	-3.3
-0.0091	-0.0083	-0.1711	-0.0548	-3.3
-0.0608	-0.0135	-0.1575	0.0015	-3.3
-0.1741	-0.0098	-0.0668	0.0097	-3.3
-0.1718	-0.0083	-0.0555	-0.0338	-3.3
-0.1305	-0.0105	-0.048	-0.0293	-3.3
-0.0691	-0.012	-0.0203	-0.0346	-3.3
0.039	-0.0158	-0.0256	-0.054	-3.3
0.051	-0.0098	0.0292	0.054	-3.3
0.0592	-0.0046	0.0442	0.0517	-3.3
0.0172	-0.0008	0.0637	0.0097	-3.3
-0.0181	0.0052	0.0352	-0.0015	-3.3
0.003	0.0067	0.0067	-0.0593	-3.3
-0.0143	0.006	-0.0008	-0.0158	-3.3
-0.0023	0.0022	0.015	-0.027	-3.3
-0.0548	-0.0015	0.105	-0.0181	-3.3
-0.1245	0.0045	0.156	0.0052	-3.3
-0.123	0.012	0.2002	0.0135	-3.3
-0.0825	0.015	0.2175	0.0645	-3.3
0.0142	0.0082	0.1777	0.042	-3.3
0.072	0.003	0.0855	0.0405	-3.3
0.0922	0.0105	-0.0638	0.0225	-3.3
0.0742	0.0112	-0.1343	-0.0091	-3.3
0.0285	0.0007	-0.0968	0	-3.3
0.0645	0.0052	-0.048	-0.0008	-3.3
0.1342	0.0135	-0.0046	-0.0008	-3.3
0.1815	0.012	0.0255	-0.003	-3.3
0.1687	0.0022	-0.0023	0	-3.3
0.1125	-0.0046	-0.0848	0.0142	-3.3
0.0495	-0.0075	-0.1268	0.054	-3.3
-0.0173	-0.0181	-0.1463	0.0375	-3.3
-0.0143	-0.0285	-0.2445	-0.048	-3.3
-0.0346	-0.0256	-0.2595	-0.0158	-3.3
-0.0758	-0.012	-0.1658	0.0337	-3.3
-0.0578	-0.006	-0.0735	0.0105	-3.3
-0.0585	0.0075	0.06	0.027	-3.3
-0.03	0.0157	0.1327	-0.0143	-3.3
-0.0098	0.0082	0.1485	-0.0938	-3.3
-0.0308	0.0045	0.1425	-0.0938	-3.3
-0.0428	0.0022	0.1162	-0.033	-3.3
-0.0675	-0.0008	0.1177	-0.0158	-3.3
-0.0375	-0.0023	0.0855	0.003	-3.3
-0.0158	-0.0015	0.0592	0.0322	-3.4
-0.03	-0.0053	0.0217	0.0307	-3.4
-0.0098	-0.0015	-0.0135	0.0397	-3.4
-0.0165	0.0052	-0.012	0.0135	-3.4
-0.0233	0.0067	0.0187	-0.0046	-3.4
-0.0233	0.0082	0.129	-0.027	-3.4
-0.0518	0.012	0.1935	-0.0143	-3.4
-0.0465	0.0112	0.2025	0.027	-3.4
-0.0068	0.0015	0.192	0.0652	-3.4
0.0195	0.0037	0.123	0.1237	-3.4
0.0765	0.0015	0.0007	0.0765	-3.3
0.1402	-0.0158	-0.2183	-0.0885	-3.3
0.1365	-0.0256	-0.3893	-0.1635	-3.3
0.099	-0.0181	-0.384	-0.0503	-3.3
0.0195	-0.0015	-0.2806	0.0165	-3.3
-0.0465	-0.0023	-0.1635	0.003	-3.3
-0.0938	-0.012	-0.021	-0.0188	-3.3
-0.1426	-0.0098	0.0915	-0.0361	-3.3
-0.132	-0.0038	0.1717	-0.0165	-3.3
-0.1245	-0.0008	0.222	-0.0143	-3.3
-0.0818	0.0067	0.15	0.0307	-3.3
-0.0233	0.0082	0.0795	0.0487	-3.3
0.003	0.0135	0.0337	0.066	-3.3
0.054	0.0157	-0.0188	0.0652	-3.3
0.0562	0.006	-0.0735	0.0105	-3.3
0.0795	-0.006	-0.1388	-0.0773	-3.3
0.1222	-0.0143	-0.1568	-0.1125	-3.3
0.1177	-0.0075	-0.0773	-0.0053	-3.3
0.111	-0.006	-0.0143	0.0007	-3.3
0.0442	-0.0075	0.0142	0.003	-3.3
-0.0173	-0.0053	0.0765	-0.0015	-3.3
-0.0645	0.0007	0.0945	-0.0368	-3.3
-0.1035	0.009	0.1215	-0.0083	-3.3
-0.1095	0.0105	0.1192	-0.0098	-3.3
-0.1305	0.012	0.0982	0.063	-3.3
-0.0953	0.012	0.0562	0.0802	-3.3
-0.0503	0.009	-0.0203	0.0382	-3.3
0.0172	-0.0068	-0.0218	0.0045	-3.3
0.1087	-0.0113	-0.048	-0.0218	-3.3
0.1432	-0.0053	-0.066	0.0022	-3.3
0.1597	-0.0105	-0.0885	-0.0181	-3.3
0.1005	-0.0083	-0.0878	-0.027	-3.3
0.03	0.0045	0.0022	-0.0135	-3.3
0.0007	0.0127	0.0525	-0.0046	-3.3
-0.0346	0.0097	0.117	0.006	-3.3
-0.0308	0.006	0.1402	0.012	-3.3
-0.0256	0.0082	0.123	0.018	-3.3
-0.0075	0.003	0.1042	-0.0083	-3.3
-0.0113	-0.0098	0.033	-0.0218	-3.3
-0.0608	-0.0083	-0.027	-0.003	-3.3
-0.0893	-0.0038	-0.1095	0.0015	-3.3
-0.1418	-0.0068	-0.1538	-0.0015	-3.3
-0.1455	0.006	-0.0893	-0.0165	-3.3
-0.0878	0.0195	0.0135	0	-3.3
-0.0105	0.0195	0.1155	0.042	-3.3
0.0952	0.0165	0.1785	0.0832	-3.3
0.1627	0.0112	0.1087	0.102	-3.3
0.2272	-0.0038	-0.084	0.0337	-3.3
0.2115	-0.0143	-0.2685	0.0165	-3.3
0.108	-0.0173	-0.3015	-0.0285	-3.3
0.0195	-0.0308	-0.2235	-0.1455	-3.3
-0.0765	-0.027	-0.1088	-0.078	-3.3
-0.093	-0.015	0.0547	-0.0285	-3.3
-0.0998	-0.0128	0.0847	-0.0405	-3.3
-0.1185	-0.0008	0.042	0.0075	-3.3
-0.0893	0.0067	-0.0203	-0.0173	-3.3
-0.0743	0.0105	-0.048	-0.003	-3.3
-0.0398	0.012	0.0082	0.0067	-3.3
-0.0405	0.009	0.0322	0.015	-3.3
-0.0503	0.0112	0.111	0.0607	-3.3
-0.0278	0.009	0.1365	0.0262	-3.3
-0.0143	-0.0008	0.144	-0.0165	-3.3
0.018	-0.0091	0.1425	-0.0405	-3.3
0.0202	0.0007	0.0847	-0.0368	-3.3
0.0277	0.0105	0.0457	-0.0173	-3.3
0.0555	0.0112	-0.0368	0.0105	-3.3
0.0855	0.0112	-0.0083	0.042	-3.3
0.1365	0.0045	0.0495	0.0352	-3.3
0.1192	-0.0023	0.0405	0.0142	-3.3
0.0555	-0.0128	0.0487	0.0045	-3.3
-0.0128	-0.0173	-0.0165	0.0015	-3.4
-0.057	-0.0158	-0.0668	-0.0143	-3.4
-0.0548	-0.0083	-0.0825	-0.0135	-3.4
-0.0683	0.0045	-0.0645	-0.0053	-3.4
-0.054	0.009	0.0052	0.012	-3.4
-0.0203	0.0105	0.0037	0.0405	-3.4
0.0255	0.0045	-0.0165	0.0412	-3.4
0.057	-0.003	-0.0293	0.0135	-3.4
0.024	-0.0068	-0.0758	-0.0181	-3.4
0.0157	-0.0023	-0.1305	-0.012	-3.4
-0.0015	0.0022	-0.147	-0.0143	-3.4
-0.0225	-0.0008	-0.0871	-0.0128	-3.4
-0.0143	0.0007	-0.03	-0.0008	-3.4
-0.0308	0.0015	0.0255	-0.0128	-3.4
-0.0203	-0.0015	0.078	-0.012	-3.4
-0.042	-0.0008	0.093	-0.0053	-3.4
-0.063	-0.0008	0.102	-0.0105	-3.4
-0.0495	-0.003	0.0727	-0.0075	-3.4
-0.0465	0.0007	0.0705	-0.0008	-3.4
-0.0068	0.0007	0.0517	-0.0008	-3.4
0.0097	0.0007	0.015	-0.0015	-3.4
0.0225	0.003	0.006	-0.0053	-3.4
0.036	0.0052	-0.0098	-0.0023	-3.4
0.0142	0.006	0.0165	-0.0046	-3.4
0.0082	0.0015	0.0255	-0.006	-3.4
-0.0053	0.003	0.0375	-0.0023	-3.4
0.0067	0.0052	0.0375	0	-3.4
0.027	0.0067	0.021	0.0195	-3.4
0.0202	0.009	0.0157	0.0405	-3.4
0.033	0.0052	-0.0323	0.0262	-3.4
0.0322	0.0015	-0.0278	-0.0105	-3.4
0.0375	0.0022	-0.0218	-0.0233	-3.4
0.0457	0.0007	-0.0458	-0.0278	-3.4
0.0187	-0.003	-0.0675	-0.024	-3.4
0.0067	-0.0046	-0.0713	-0.0158	-3.4
0.0015	-0.0098	-0.0195	-0.0308	-3.4
0.0007	-0.0083	0.0367	0.0007	-3.4
0.012	-0.003	0.099	0.0082	-3.4
-0.0165	-0.0083	0.117	-0.0053	-3.4
-0.039	-0.0091	0.1125	0.0112	-3.4
-0.0443	-0.0068	0.1065	0.0022	-3.4
-0.0503	-0.0068	0.0382	0.0172	-3.4
-0.0405	0	-0.0668	0.0105	-3.4
-0.042	-0.0008	-0.18	0.0202	-3.4
-0.0233	-0.0015	-0.195	0.0367	-3.4
-0.0068	-0.003	-0.165	0.0202	-3.4
-0.003	-0.0068	-0.1275	0.0045	-3.4
0.0172	-0.003	-0.0413	-0.0293	-3.4
0.0165	-0.0023	0.003	-0.0315	-3.4
0.0172	-0.0015	0.0547	-0.021	-3.4
0.012	0.0007	0.0772	-0.0173	-3.4
-0.0015	0.0007	0.0742	-0.003	-3.4
-0.006	0.0007	0.0772	-0.0113	-3.4
-0.0105	0.0007	0.048	-0.0091	-3.4
-0.0038	0.0022	0.0517	0.0037	-3.4
0.0007	0.0007	0.0277	0.0067	-3.4
0.0082	0.0015	0.012	0.0127	-3.4
0.0142	0.003	-0.0008	0.0142	-3.4
0.0105	0	-0.0181	0.018	-3.4
0.012	0.0007	0.003	0.015	-3.4
0.003	0.0067	0.015	0.0217	-3.4
-0.0083	0.0067	0.0352	0.0165	-3.4
-0.027	0.0007	0.03	-0.0195	-3.4
-0.0368	0.0007	0.018	-0.042	-3.4
-0.0293	-0.003	-0.0075	-0.042	-3.4
-0.0315	-0.003	-0.0346	-0.0233	-3.4
-0.0165	0.0022	0.009	-0.006	-3.4
0.003	-0.0015	0.0352	0.0045	-3.4
0.0082	-0.0015	0.0487	0.0105	-3.4
0.0165	0.003	0.0757	0.0217	-3.4
0.018	-0.0008	0.063	0.0292	-3.4
0.0255	-0.0068	0.0412	0.0285	-3.4
0.0517	-0.0098	-0.0323	0.0165	-3.4
0.0885	-0.0113	-0.1253	-0.0023	-3.4
0.1072	-0.0015	-0.147	-0.0046	-3.4
0.0907	0.003	-0.1268	-0.0023	-3.4
0.0457	0.0022	-0.0825	-0.0008	-3.4
-0.0098	0.0052	-0.012	0.0052	-3.4
-0.0443	0.0015	0.0472	0.006	-3.4
-0.06	-0.0008	0.0615	0.0052	-3.4
-0.0608	-0.0038	0.0382	0.0067	-3.5
-0.0555	-0.0053	-0.0083	-0.0015	-3.5
-0.0495	-0.0008	-0.0315	-0.0023	-3.5
-0.0346	0.003	-0.033	-0.0046	-3.5
-0.024	0.0045	-0.0113	-0.0128	-3.5
-0.0173	0.0015	0.006	-0.012	-3.5
-0.0256	0.0045	0.0157	-0.0091	-3.5
-0.066	0.006	0.0345	-0.0075	-3.5
-0.0765	0.003	0.0352	0.0007	-3.5
-0.0473	0.003	0.0397	0.006	-3.5
0	0.0037	0.042	0.0105	-3.5
0.057	0.0015	0.042	0.0187	-3.5
0.0907	0	0.0435	0.018	-3.5
0.1057	0.0045	0.0412	0.0165	-3.6
0.093	0.0052	0.048	-0.0038	-3.6
0.0517	-0.0023	0.0502	-0.0248	-3.6
0.012	-0.0053	0.042	-0.015	-3.6
-0.0188	-0.0015	0.033	-0.0015	-3.6
-0.0195	0.0037	0.0217	0.012	-3.6
-0.0181	-0.0015	-0.0105	0.0045	-3.6
-0.039	-0.0083	-0.0511	-0.0135	-3.6
-0.0675	-0.0098	-0.1185	-0.0165	-3.6
-0.0788	-0.0083	-0.1815	-0.0173	-3.6
-0.0495	-0.0053	-0.1448	-0.0083	-3.6
-0.0008	-0.0053	-0.075	-0.0091	-3.6
0.0142	-0.0008	-0.0256	-0.0075	-3.6
0.0022	0	0.0315	-0.003	-3.7
0.0217	-0.0008	0.0645	0.0015	-3.7
0.0442	0.0022	0.0907	0.012	-3.7
0.0442	-0.0015	0.1057	0.0135	-3.7
0.0292	-0.0008	0.0892	0.015	-3.7
-0.0015	0.0007	0.0802	0.0052	-3.7
-0.0113	-0.0008	0.057	0.009	-3.7
-0.012	0.0015	0.0217	0.0255	-3.7
-0.0128	-0.0008	-0.0195	0.018	-3.7
-0.0173	-0.0023	-0.0706	0.0067	-3.8
-0.0293	-0.0015	-0.084	-0.0008	-3.8
-0.0225	-0.003	-0.0773	-0.0233	-3.8
-0.015	-0.0015	-0.0593	-0.0578	-3.8
-0.012	0.0015	-0.0308	-0.0346	-3.8
-0.0053	0.0097	-0.0008	0.0015	-3.9
0.0127	0.0112	0.027	-0.0068	-3.9
0.03	0.0037	0.0322	0.0052	-3.9
0.018	0.003	0.0457	0.012	-3.9
0.0082	0.003	0.0502	0.0165	-3.9
0.0067	0.003	0.0532	0.0382	-3.9
0.0067	0.0007	0.0495	0.027	-3.9
0.0195	-0.0053	0.0157	-0.0181	-3.9
0.0097	-0.0098	-0.0143	-0.0353	-4
-0.012	-0.0105	-0.0518	-0.0165	-4
-0.024	-0.0083	-0.075	-0.0256	-4
-0.0346	-0.0075	-0.0645	-0.0053	-4
-0.0263	0.0007	-0.039	-0.0015	-4
-0.024	0.0007	-0.0046	-0.012	-4.1
-0.0181	0.003	0.0382	0.003	-4.1
0.0015	0.0082	0.0607	-0.0075	-4.1
0.0172	0.0067	0.0727	0.0022	-4.1
0.0435	0.0075	0.0615	0.0015	-4.1
0.0517	0.009	0.0322	0.009	-4.1
0.0562	0.012	0.0157	0.0202	-4.1
0.0592	0.0067	-0.0068	0.006	-4.2
0.0427	-0.0008	-0.03	0.0082	-4.2
0.018	-0.0008	-0.0368	0.003	-4.2
-0.033	-0.003	-0.0203	-0.0068	-4.2
-0.0706	-0.0075	-0.0091	-0.012	-4.2
-0.0795	-0.0083	0.0045	-0.0083	-4.2
-0.0825	-0.0068	0.0082	0.0082	-4.3
-0.0623	-0.0046	0.0015	0.0202	-4.3
-0.0293	-0.0046	0.0135	0.018	-4.3
-0.0046	-0.0015	0.012	0.0172	-4.3
0.0127	0.0007	0.0285	0.0165	-4.4
0.018	0	0.0472	0.003	-4.4
0.0105	0.0015	0.0615	-0.0046	-4.4
0.003	0.0045	0.0712	-0.0188	-4.4
0.012	0.0052	0.0457	-0.0113	-4.4
0.021	0.0052	0.0142	0.012	-4.5
0.021	0.0007	-0.0443	0.0052	-4.5
0.0202	-0.003	-0.093	-0.0173	-4.5
0.0015	-0.0053	-0.1073	-0.033	-4.5
-0.0113	-0.0023	-0.1006	-0.0075	-4.5
0.0015	-0.0015	-0.063	0.0075	-4.6
0.0067	-0.0023	-0.033	-0.0015	-4.6
0.012	-0.0008	-0.0105	0.0037	-4.6
0.0165	-0.0038	0.0105	-0.0068	-4.6
0.0195	-0.0015	0.012	-0.003	-4.6
0.0337	0	-0.006	0.0045	-4.7
0.0337	0.0007	-0.0173	0.0015	-4.7
0.0232	0.0007	-0.0023	0.0015	-4.7
0.009	-0.0015	0.009	-0.0083	-4.7
-0.0091	-0.0015	0.0217	-0.0015	-4.8
-0.0173	-0.0015	0.042	0.0015	-4.8
-0.0278	-0.0008	0.0465	0.0045	-4.8
-0.03	0	0.0465	0.0015	-4.9
-0.024	0.0007	0.036	-0.003	-4.9
-0.0218	0.003	0.0172	-0.0008	-4.9
-0.0195	0.0037	-0.0098	-0.0008	-4.9
-0.0165	0.003	-0.0195	0.0082	-5
-0.0083	0.0022	-0.003	0.0127	-5
-0.012	-0.0008	0.006	0.006	-5
-0.0158	-0.0068	0.018	-0.0083	-5
-0.0195	-0.0053	0.0195	-0.012	-5.1
-0.0218	0.0015	0.018	-0.0068	-5.1
0.0015	0.0015	0.012	-0.0075	-5.1
0.0157	0.0007	0.012	-0.0023	-5.1
0.009	-0.0008	0.0382	0.0082	-5.2
0	-0.0038	0.0375	0.0195	-5.2
-0.0068	-0.0083	0.003	0.0195	-5.2
0.0232	-0.0068	-0.0398	0.018	-5.3
0.0675	-0.003	-0.0436	0.0165	-5.3
0.093	-0.0046	-0.015	-0.0053	-5.3
0.0817	-0.0038	0.0075	-0.0233	-5.4
0.0442	-0.0046	0.0307	-0.012	-5.4
0.0097	0	0.033	-0.0075	-5.4
-0.0195	0.0022	0.021	-0.0091	-5.4
-0.0375	-0.0008	-0.0068	-0.0046	-5.4
-0.0473	0	-0.0405	-0.0038	-5.5
-0.0495	-0.0008	-0.0578	0.0015	-5.5
-0.0495	-0.0008	-0.0548	0.0015	-5.5
-0.0458	0	-0.039	0	-5.6
-0.033	0.0015	-0.0248	0	-5.6
-0.0233	0.0037	0.0045	-0.003	-5.7
-0.012	0.0007	0.024	-0.0083	-5.7
-0.0015	0.0015	0.0315	-0.0105	-5.7
0.0067	0.0015	0.0337	-0.0098	-5.7
