File Name: 5Nmar.log
Channel 1: 'RF', 6563 values, engineering units: mV, no filters.
Channel 2: 'BF', 6563 values, engineering units: mV, no filters.
Channel 3: 'VM', 6563 values, engineering units: mV, no filters.
Channel 4: 'ST', 6563 values, engineering units: mV, no filters.
Channel 5: 'FX', 329 values, engineering units: deg, no filters, extrapolated from 50 to 1000 samples per second.

0.0037	-0.0015	-0.0008	-0.0173	59.9
0.0015	-0.0015	-0.0015	-0.006	59.9
0	-0.0015	0	-0.012	60
0.0007	-0.003	0	-0.0143	60
0.0022	-0.0038	0.0007	-0.0173	60
0.0037	-0.0008	0.0015	-0.0181	60
0.0052	0.0022	-0.003	-0.0143	60
0.0067	0.0045	-0.0046	-0.0135	60
0.0082	0.003	-0.003	-0.0083	60.1
0.0105	0.0037	-0.0046	-0.0105	60.1
0.0097	0.003	-0.0023	-0.0083	60.1
0.0067	0.0022	-0.0015	-0.0008	60.1
0.0082	0.0037	-0.0008	0.0015	60.1
0.0045	0.0045	-0.0015	0.0075	60.2
0.0037	0.0037	-0.003	0.0022	60.2
0.0037	-0.0008	-0.003	-0.0008	60.2
-0.0008	-0.0008	-0.0038	0.0007	60.2
0	-0.0008	-0.0023	-0.0015	60.2
-0.0008	-0.003	-0.0046	-0.0015	60.2
-0.0015	-0.0023	-0.006	-0.003	60.3
-0.003	0.0015	-0.0068	-0.0046	60.3
-0.0038	0.0015	-0.0075	-0.006	60.3
0.0007	-0.0023	-0.006	-0.0068	60.3
-0.003	-0.0023	-0.0046	-0.0015	60.3
-0.0023	-0.0053	-0.0015	0.003	60.3
-0.003	-0.0046	-0.003	0.0082	60.2
-0.0015	-0.0015	-0.0046	0.0045	60.2
0	-0.0023	-0.0046	-0.0053	60.2
-0.0023	-0.0015	-0.003	-0.0105	60.2
0.003	-0.0015	-0.0015	-0.015	60.2
0.0015	-0.0015	-0.0046	-0.0165	60.1
0	-0.0023	-0.0023	-0.0173	60.1
0.0007	-0.0046	-0.0015	-0.0225	60.1
0.0015	-0.0053	-0.003	-0.0218	60.1
0	-0.0046	-0.0015	-0.0195	60.1
-0.0015	-0.0038	-0.003	-0.015	60.1
0.0007	0	-0.0015	-0.0015	60
-0.0023	0.0045	0.0007	0.012	60
-0.0015	0.0067	0.0045	0.0195	60
-0.0015	0.006	0.0037	0.0247	60
-0.0015	0.0045	0.0015	0.0307	59.9
0.0022	0.0045	0	0.033	59.9
-0.0008	0.0045	-0.0015	0.0315	59.8
0	0.0037	-0.0008	0.018	59.8
-0.0015	0.0045	-0.0015	-0.003	59.8
-0.0038	0.0052	-0.0023	-0.0068	59.7
-0.0038	0.0075	-0.0008	-0.0053	59.7
-0.0038	0.0082	-0.003	-0.0091	59.6
-0.0046	0.0075	-0.0053	-0.0098	59.5
-0.0068	0.0052	-0.0038	-0.0158	59.5
-0.0038	0.0022	-0.0046	-0.0158	59.4
-0.0046	0.003	-0.0015	-0.0128	59.4
-0.0038	0.0015	-0.0015	-0.0098	59.3
-0.0008	-0.0008	-0.0008	-0.003	59.3
-0.0008	-0.0053	0.0007	0	59.2
-0.0008	-0.0075	-0.0015	0.003	59.1
0.0007	-0.0068	-0.0015	0.006	59.1
0.0037	-0.0068	-0.0008	0.0135	59
0.0022	-0.0015	-0.003	0.0157	59
0.0022	-0.0008	-0.0008	0.0172	58.9
0.0052	-0.0008	0.0007	0.0195	58.8
0.0052	0.0015	0.003	0.0112	58.8
0.0045	-0.0008	0.003	0.0045	58.7
0.0052	0.0007	0	0.0015	58.6
0.0037	-0.0046	0	-0.003	58.5
0.003	-0.0105	0	-0.0075	58.4
0.0082	-0.0098	0.0007	-0.0075	58.3
0.0067	-0.0083	-0.0015	-0.0068	58.2
0.0045	-0.006	-0.0038	-0.0038	58.1
0.0045	-0.0023	-0.003	-0.003	58
0.0007	0.0022	-0.0015	-0.003	57.9
0	0.009	-0.0008	-0.0023	57.8
0	0.0165	0	-0.0038	57.7
-0.0008	0.0112	-0.0008	-0.0023	57.6
0.0015	0.0052	-0.0015	-0.006	57.6
0.0007	0.0045	-0.0008	-0.0128	57.4
0.0007	0.0015	0.0007	-0.0158	57.3
0.0022	0.0007	0.0007	-0.0135	57.2
0.0015	-0.0008	-0.0015	-0.015	57.1
0.003	-0.0015	-0.0008	-0.0075	57.1
0.003	-0.0023	0.0007	0.0007	56.9
0.0067	-0.003	-0.0008	-0.0053	56.8
0.0045	-0.0053	-0.0015	-0.0053	56.7
0.0082	-0.0091	0.0007	0.0045	56.6
0.0097	-0.0113	0.0015	0.0165	56.5
0.0067	-0.0105	0.0015	0.0217	56.4
0.0082	-0.0008	0.0045	0.0067	56.2
0.003	0.0112	0.0052	-0.0233	56.1
0.0037	0.018	0.0052	-0.0405	56
0.0052	0.0202	0.0045	-0.0428	55.9
0.0045	0.0142	0.0037	-0.0428	55.8
0.0067	0.0007	0.0037	-0.0165	55.7
0.0075	-0.0068	0.0007	0.0015	55.5
0.0067	-0.0053	0.003	0.0097	55.4
0.003	-0.0143	0.0037	0.039	55.3
0.0052	-0.0173	0.0022	0.0442	55.2
0.003	-0.0113	0.0037	0.0315	55.1
0.0037	-0.0165	0.0007	0.0195	54.9
0.003	-0.0143	-0.0008	0.0037	54.8
-0.0015	-0.0075	0.0007	-0.003	54.7
-0.0008	-0.0083	0.0015	-0.0046	54.5
-0.0008	-0.0046	0.0015	-0.003	54.4
0.0007	-0.0053	0.0007	-0.0046	54.2
-0.0015	-0.0068	0.0007	-0.006	54
0.003	-0.0068	0.0015	-0.0068	53.9
0.003	-0.0075	0.0007	-0.0075	53.7
0	-0.0046	-0.0023	-0.0038	53.5
0.003	-0.0128	-0.003	-0.0046	53.4
0.0007	-0.0218	-0.0023	-0.006	53.2
0.0015	-0.0165	-0.0023	-0.0053	53
0.0052	0.0045	-0.0015	-0.003	52.8
0.006	0.024	-0.0008	-0.0008	52.7
0.0045	0.024	0.0015	0.0052	52.5
0.0007	0.0322	0.0007	0.009	52.3
0	0.0382	-0.0008	0.009	52.2
-0.0015	0.0285	0.0007	0.009	52
-0.0023	-0.0046	0.0015	0.003	51.8
-0.003	-0.039	0	0	51.7
-0.0023	-0.0203	0.003	0.0037	51.5
-0.0008	-0.0015	0.003	0.0022	51.3
-0.0008	-0.0023	0.0015	0.0045	51.1
-0.0008	-0.0046	0.0022	0.0105	50.8
0.0007	0.0015	-0.0008	0.0127	50.6
0.0015	0.0142	-0.0015	0.0165	50.4
0.0015	0.0067	-0.0023	0.018	50.1
0.0037	-0.0008	-0.0046	0.0187	49.9
0.0007	-0.0113	-0.003	0.018	49.6
-0.0015	-0.0218	-0.003	0.0172	49.4
0.0007	-0.0233	-0.0015	0.0202	49.1
0	-0.0068	0.0007	0.024	48.9
-0.0015	0.012	0.0007	0.0262	48.6
0.0015	0.0075	0	0.0262	48.4
0.0022	-0.0008	-0.0015	0.027	48.1
-0.0008	0.0067	-0.0015	0.0202	47.9
-0.0008	0.0262	-0.0023	0.0082	47.6
-0.003	0.0412	-0.003	0.0045	47.4
-0.0053	0.0315	-0.0015	0.0082	47.1
-0.0023	0.018	0	0.012	46.9
-0.0023	0.0262	-0.0015	0.0142	46.6
-0.0015	0.0255	-0.0008	0.0142	46.4
0.0015	0.0142	0.0007	0.009	46.1
-0.0015	0.0015	0.0022	0.0105	45.9
0.0007	-0.0083	0.0007	0.0082	45.5
0.0022	-0.0165	0.0022	0.009	45.3
0.0007	-0.0278	0.0045	0.006	45
-0.0008	-0.0315	0.003	0.003	44.7
0.0015	-0.0256	0.0022	0.0007	44.4
0.0007	-0.0195	0.0037	-0.0008	44.1
0.0007	-0.0113	0.0037	-0.0015	43.8
0.0037	-0.0015	0.003	-0.0053	43.5
0.0052	-0.0038	0.0015	-0.0083	43.2
0.003	0.0007	0	-0.0098	42.9
0.0015	0.0007	-0.0008	-0.0128	42.7
0.006	-0.003	0.0015	-0.0135	42.3
0.006	-0.0008	0.003	-0.0135	42.1
0.0067	-0.0008	0.0015	-0.0143	41.8
0.0045	0.0015	0.0007	-0.0158	41.5
0.0037	0.0007	0.0007	-0.0143	41.2
0.0045	0.0015	-0.0008	-0.0128	40.9
0.0015	0.0007	-0.0038	-0.0091	40.6
0.0015	0.0022	-0.0038	-0.0075	40.3
-0.0023	0.0052	-0.0015	-0.0105	40
-0.0008	0.0045	-0.0023	-0.0083	39.7
0	0.0045	-0.0015	-0.0053	39.4
-0.0008	0.0037	-0.0023	-0.003	39.1
0.0037	0.0052	-0.0038	-0.003	38.8
0.0037	0.0052	-0.0023	-0.0038	38.6
0.0052	0.003	-0.0023	-0.0053	38.3
0.0052	0.003	-0.0008	-0.0015	38
0.0045	0.0037	-0.0015	0.0067	37.7
0.003	0.003	-0.0008	0.009	37.4
0.0007	0.0045	0	0.0112	37.1
-0.0015	0.003	-0.003	0.0112	36.8
-0.0038	0.0022	-0.0015	0.0127	36.5
-0.0008	0.0015	0	0.0142	36.2
-0.0015	0	0.0015	0.0112	35.9
0.0007	0	0.0045	0.012	35.6
0.0067	0	0.0015	0.0105	35.4
0.0052	0.0007	0.0015	0.0097	35.1
0.003	0.0007	0.0015	0.0067	34.8
0.0022	-0.0023	0.0007	0.003	34.4
0.0015	-0.0023	0.003	0.0022	34.2
0.0007	-0.003	0.0022	0	33.9
0.0022	-0.003	0.0007	-0.0023	33.7
0.0045	-0.0023	0	-0.003	33.4
0.0052	-0.0015	0.0007	-0.003	33.1
0.006	0	0.0015	-0.0038	32.8
0.0045	-0.0008	0.0015	-0.0068	32.6
0.0052	0.0015	-0.0008	-0.0075	32.3
0.0067	0.0015	-0.0015	-0.0083	32
0.0052	0.0022	-0.0023	-0.0113	31.8
0.003	0.0015	-0.0015	-0.0128	31.5
0.003	0.0007	0	-0.0143	31.2
0.003	-0.0008	-0.0015	-0.0165	31
0.003	-0.0008	-0.0008	-0.0165	30.7
0.0037	0	-0.0008	-0.0165	30.4
0.0022	-0.0038	0	-0.0181	30.1
0.0007	-0.0038	-0.0008	-0.0195	29.9
0.0007	-0.0038	-0.0023	-0.0195	29.6
-0.0008	-0.0046	0.0015	-0.0203	29.3
0	-0.0015	-0.0008	-0.0181	29
0	-0.003	-0.0015	-0.0165	28.8
0.0015	-0.0038	0.0007	-0.0165	28.5
0.003	-0.0015	0.0015	-0.0165	28.3
0.0015	-0.0008	0.0022	-0.0165	28
0.0052	-0.0008	0.0015	-0.0165	27.8
0.0045	-0.0023	0	-0.0143	27.5
-0.0008	-0.003	0.0007	-0.012	27.2
-0.0008	-0.0008	0	-0.0128	27
-0.0015	-0.0008	-0.0008	-0.0143	26.7
-0.0008	-0.0023	0.0022	-0.0135	26.5
0.0022	-0.0015	0.0022	-0.0143	26.2
0.0045	-0.0023	0.0045	-0.0143	25.9
0.0015	-0.0046	0.006	-0.015	25.7
0	-0.0038	0.0052	-0.0165	25.4
0	-0.0038	0.0052	-0.0165	25.2
-0.0023	-0.0023	0.0045	-0.0158	24.9
0.0007	0	0.0045	-0.0203	24.6
0.0007	-0.0008	0.0037	-0.0248	24.4
0.0007	-0.0015	0.0045	-0.0248	24.1
0.0045	-0.0046	0.003	-0.024	23.8
0.0007	-0.0053	0	-0.0218	23.6
-0.0015	-0.0075	0.0007	-0.0181	23.4
-0.0008	-0.0105	0.0015	-0.012	23.1
-0.003	-0.0075	0.0015	-0.0068	22.8
-0.0015	-0.0083	0.0015	-0.003	22.5
0.0015	-0.0068	0.0007	-0.0038	22.3
0.006	-0.0053	0.0007	-0.003	22
0.0075	-0.0053	-0.0008	-0.0023	21.8
0.0067	-0.003	0	-0.003	21.5
0.006	-0.003	0.0045	-0.0038	21.3
0.0052	-0.0015	0.0052	-0.003	21
0.0082	-0.0015	0.0052	-0.0015	20.8
0.009	-0.0015	0.0045	-0.0038	20.5
0.0097	-0.0008	0.0045	-0.006	20.2
0.0127	0	0.0067	-0.0068	20
0.0127	0.0007	0.0067	-0.0075	19.8
0.0157	0.0015	0.0045	-0.0105	19.5
0.0135	0.0015	0.0015	-0.0143	19.2
0.0097	-0.0015	0.0007	-0.0143	19
0.0082	0	0.0007	-0.0143	18.7
0.009	-0.0008	0.0015	-0.0135	18.5
0.0067	-0.0008	0	-0.0105	18.2
-0.0008	0.0015	0.0007	-0.0083	18
0.0007	0.0015	0.0015	-0.0091	17.8
-0.0015	0.003	-0.0015	-0.0091	17.5
-0.0023	0.0015	-0.003	-0.0053	17.3
0.0007	0.003	-0.0046	-0.006	17
-0.0008	0.0015	-0.0015	-0.0053	16.8
-0.0008	0.0037	-0.0008	-0.0046	16.6
0.0037	0.0045	-0.0015	-0.0015	16.3
-0.0008	0.0022	-0.0015	-0.0023	16.1
-0.0023	0.003	-0.0023	-0.0015	15.8
-0.0015	-0.0008	0.0007	0	15.6
-0.0008	-0.0008	0.0007	0.0015	15.3
0.0007	0	0.0007	0.0015	15.1
-0.0015	-0.0008	0.0022	-0.0008	14.8
-0.0015	0.0007	0	0.0015	14.6
-0.0015	0	-0.0008	0.0015	14.4
0.0007	0	0.0007	0.003	14.1
-0.0053	0.0007	0.0007	0.003	13.9
-0.0068	0.0007	0.0022	0.0022	13.7
-0.0046	0.0007	0.003	0.0037	13.5
-0.0053	-0.0008	0.0015	0.0015	13.4
0.0015	-0.0008	0.0015	0	13.2
0.003	0	-0.0008	-0.003	13
0.0037	0.0007	-0.0023	-0.0046	12.8
0.0052	0.0015	-0.0008	-0.0053	12.6
0.0022	0.0007	0.0015	-0.0083	12.5
-0.0023	0.0007	0.0007	-0.0128	12.3
-0.0023	0.0007	0.0022	-0.0158	12.1
-0.0008	-0.0008	0.0022	-0.0173	12
-0.0038	-0.0008	0	-0.0188	11.8
0	0	0.0015	-0.0203	11.6
0.0015	0	0.0007	-0.0195	11.4
-0.0008	-0.0008	0.003	-0.0203	11.2
0.0022	0.0015	0.0067	-0.0233	11.1
0.003	0.003	0.0022	-0.0248	10.9
0.0045	0.0015	0.0015	-0.027	10.7
0.0075	0.0015	0.0015	-0.0256	10.5
0.003	-0.0008	0.0015	-0.0248	10.3
-0.0008	-0.0015	0	-0.0218	10.2
-0.0023	-0.0015	-0.0008	-0.0203	10.1
-0.0008	-0.0015	0.0007	-0.0218	10
-0.0008	-0.0023	-0.0015	-0.0218	9.9
-0.003	-0.0015	-0.0015	-0.021	9.7
0.0015	-0.0008	0.0007	-0.0181	9.6
0.003	-0.003	0.0007	-0.0181	9.4
0.0052	-0.003	0.0007	-0.015	9.4
0.012	-0.0015	0.0022	-0.012	9.2
0.0142	0.0007	0.0045	-0.0083	9.1
0.0135	0.0007	0.0045	-0.0046	9
0.0052	0	0.003	0.0015	8.8
0.003	0.0007	0.003	0.0075	8.7
0.0075	0.003	0.0037	0.0127	8.6
0.0075	0.0052	0.0015	0.021	8.5
0.012	0.006	0.0022	0.0217	8.3
0.012	0.0052	0.0015	0.024	8.2
0.009	0.006	0	0.0277	8.1
0.0045	0.0045	0	0.0277	8
0.0015	0.003	0.0007	0.0292	7.8
0.0052	0.003	-0.0008	0.0292	7.8
0.0007	0.003	-0.0008	0.0307	7.7
-0.0015	0.003	-0.0008	0.0307	7.7
-0.003	0.0015	0	0.0315	7.6
-0.0068	-0.0008	0.0007	0.033	7.6
-0.0068	0.0007	-0.0008	0.033	7.5
-0.0068	0.0015	-0.0008	0.0315	7.5
-0.0046	0.0022	0.0007	0.0307	7.4
0.0007	0.0007	0	0.024	7.4
0.0007	-0.0015	0	0.018	7.3
0.0007	-0.0008	0.0007	0.0142	7.2
-0.0008	-0.0023	-0.0015	0.0082	7.2
-0.0038	-0.0053	-0.0015	0.006	7.2
-0.0038	-0.003	-0.0008	0.0052	7.1
-0.0068	-0.0046	-0.0008	0.009	7.1
-0.0038	-0.0038	-0.0015	0.0142	7
-0.0015	0	-0.0008	0.0157	6.9
-0.0015	-0.003	0	0.018	6.9
0.0015	-0.0015	0.0015	0.018	6.8
-0.0008	-0.0015	0.0022	0.018	6.7
0.0007	0	0.003	0.0195	6.7
0.003	0.0045	0.003	0.0232	6.7
0.003	0.0067	0.0015	0.0255	6.7
0.0052	0.009	-0.0008	0.0277	6.8
0.0067	0.006	-0.0015	0.03	6.8
0.0045	0.0067	0.0015	0.0292	6.8
0.003	0.0037	0.0015	0.027	6.8
0.0067	0.0007	-0.0008	0.0307	6.8
0.0015	0.0022	0	0.036	6.8
-0.0015	0.0007	0.0007	0.0322	6.8
-0.0008	0.0007	0.0007	0.0262	6.8
-0.0015	-0.0015	-0.0015	0.0232	6.8
0.0015	-0.0015	-0.0046	0.0255	6.8
0.0007	0.0022	-0.0046	0.0225	6.8
0	-0.0008	-0.003	0.0217	6.8
0.0045	-0.0023	-0.0008	0.0217	6.8
0.0075	-0.0015	0	0.0202	6.9
0.0075	-0.0008	-0.0008	0.0195	6.9
0.0067	0	-0.0015	0.0135	6.9
0.0022	-0.0015	-0.0008	0.0105	6.9
-0.0008	-0.003	0	0.0097	6.9
-0.0038	-0.0075	-0.0008	0.0067	6.9
-0.0083	-0.006	-0.0008	0.0082	7
-0.0053	-0.0046	-0.0008	0.0112	7
0.0037	-0.0015	-0.0015	0.009	7
0.0067	0.0007	0.0007	0.0097	7.1
0.0082	-0.0008	-0.0015	0.0135	7.1
0.009	0.0015	-0.0023	0.012	7.1
0.0105	0.0015	0.0015	0.0097	7.1
0.0112	0.0007	0.0007	0.0082	7.2
0.0082	0.0015	0.003	0.0082	7.2
0.0082	0.0015	0.0015	0.0082	7.2
0.0045	0.0022	-0.0008	0.0097	7.2
0.0015	0.0007	0.0007	0.0097	7.2
0.0015	0.0007	-0.0008	0.0112	7.3
-0.0038	0	0	0.0157	7.3
-0.003	0.0015	0	0.0142	7.3
-0.0008	0	-0.0015	0.0105	7.4
0	-0.0008	-0.0023	0.0082	7.4
-0.0015	0.0015	-0.003	0.0052	7.4
-0.0008	0.0007	0	0.0007	7.5
0.0022	0.0015	0.0007	-0.0008	7.5
0.0045	0.003	0.0007	-0.0015	7.5
0.0105	0.0022	-0.0008	-0.0015	7.5
0.012	0.0037	-0.0008	-0.003	7.6
0.0082	0.0007	-0.003	-0.0053	7.6
0.0067	-0.0015	-0.003	-0.0075	7.6
0.0052	-0.003	-0.003	-0.0105	7.6
-0.0008	-0.003	-0.0038	-0.0105	7.6
0.0015	-0.003	-0.0015	-0.0143	7.6
-0.0008	-0.0015	-0.0015	-0.0195	7.7
-0.0015	0.0015	0	-0.0181	7.7
0.0007	0.0015	-0.0008	-0.015	7.7
0	-0.0015	-0.0015	-0.0113	7.7
-0.0008	-0.003	0.0007	-0.006	7.8
-0.0008	-0.003	0.0007	-0.006	7.8
-0.0015	-0.003	0.0007	-0.0113	7.8
-0.0023	-0.0015	0.0007	-0.0091	7.8
-0.0015	0	0.0007	-0.0046	7.8
-0.0046	-0.0015	0	-0.003	7.9
-0.0046	0.0007	-0.0008	-0.0128	7.9
-0.003	0.003	-0.0015	-0.0368	7.9
-0.0023	0.0007	0.0007	-0.0383	8
-0.003	-0.0008	0.0037	0.0015	8
0.0015	0.0022	0.0045	0.03	8
0.0045	-0.0008	0.0045	0.0202	8.1
0.0045	-0.0046	0.003	0.003	8.1
0.0082	-0.0023	0.0022	0.0105	8.1
0.0037	0.0037	0.003	0.027	8.1
0.0045	0.0135	0.0015	0.0195	8.2
0.0045	0.0097	-0.0008	0.009	8.2
0.0037	0.0022	-0.0015	0.0075	8.2
0.006	0.003	-0.0015	0.018	8.2
0.003	0.0007	0	0.0382	8.3
0.003	-0.0046	-0.0008	0.0427	8.3
0.0015	-0.0075	-0.0008	0.0442	8.3
0.0007	-0.0083	-0.0008	0.0292	8.4
-0.0038	-0.0098	-0.0008	0.0142	8.4
-0.0038	-0.0105	0.0007	0.003	8.4
-0.003	-0.0128	0.0007	-0.0195	8.5
-0.006	-0.012	0.0007	-0.027	8.5
-0.0046	-0.0091	0	-0.039	8.5
-0.0046	-0.003	-0.0008	-0.0383	8.5
-0.0053	0.0105	-0.0015	-0.0308	8.5
-0.0015	0.0195	-0.003	-0.0293	8.5
-0.0015	0.015	-0.003	-0.006	8.5
-0.0015	0.0067	-0.0038	0.0262	8.5
0.0015	-0.0015	-0.0008	0.0232	8.6
0.0015	-0.0015	-0.0015	0.0037	8.6
0.003	0.0015	-0.0038	0.0082	8.6
0.0015	-0.003	-0.0038	-0.0165	8.6
0.0015	-0.0113	-0.0015	-0.027	8.6
0.003	-0.0128	-0.0008	-0.0015	8.7
0.0015	-0.0083	-0.003	-0.0181	8.7
0.0052	-0.0038	-0.0015	-0.0173	8.7
0.0037	-0.0015	-0.0023	-0.0263	8.7
0.0015	0.0022	-0.0038	-0.0593	8.7
0.0007	0.003	0.0007	-0.0278	8.7
0.0015	0.0052	0.006	0.0712	8.8
0.0022	-0.0068	0.0082	0.1327	8.8
0.0015	-0.0308	0.009	0.0735	8.8
0.0007	-0.0361	0.009	-0.003	8.8
-0.003	-0.0113	0.0075	-0.063	8.8
-0.0015	0.0202	0.0037	-0.099	8.8
0.003	0.0195	0.0007	-0.1163	8.8
0.0007	0.0015	-0.003	-0.1125	8.7
0.0015	-0.0105	-0.003	-0.0915	8.7
-0.0008	-0.012	-0.0053	-0.0278	8.7
-0.003	-0.0046	-0.0038	0.0427	8.7
0.0007	-0.0008	0.0015	0.057	8.7
0.0015	0.0127	0.006	0.1087	8.7
0.0045	0.0367	0.0082	0.0615	8.7
0.0052	0.0532	0.0067	-0.0653	8.7
0.0075	0.0255	0.0022	-0.0555	8.7
0.009	-0.0015	0.0007	-0.0203	8.6
0.0127	-0.006	0.0015	0.0255	8.6
0.0135	-0.0165	0.0007	0.0727	8.6
0.0097	-0.0225	0	0.0292	8.6
0.009	-0.0278	0.0015	-0.0105	8.6
0.0067	-0.0285	0.0015	-0.0113	8.5
0.006	-0.0203	0	-0.0091	8.5
0.0082	0.0082	0.0007	-0.0233	8.5
0.0075	0.027	-0.0008	-0.06	8.5
0.0052	0.0052	-0.003	-0.0938	8.5
0.003	0.0045	-0.0038	-0.147	8.4
0.0022	0.0127	-0.0046	-0.1463	8.4
-0.0023	0.03	-0.0046	-0.1013	8.3
-0.0015	0.0465	0.0007	-0.0293	8.3
0.009	0.0375	0.0022	0.0105	8.2
0.0112	0.0367	0.0022	-0.048	8.2
0.006	0.0405	0.0045	0.0075	8.2
0.0075	0.027	0.0037	0.0705	8.1
0.006	-0.0008	0.0082	0.0577	8.1
0.0082	-0.0346	0.0097	0.0262	8.1
0.0082	-0.0533	0.0082	-0.0233	8
-0.003	-0.0458	0.0052	-0.0308	8
-0.0053	-0.027	0.006	-0.0593	8
-0.0015	-0.0135	0.0052	-0.0706	7.9
-0.0053	-0.0135	-0.0015	-0.084	7.9
-0.0053	-0.0353	-0.0068	-0.123	7.8
0.0105	-0.0308	-0.0091	-0.0871	7.7
0.0045	0.0082	-0.012	-0.0503	7.6
-0.0008	0.009	-0.0135	-0.1155	7.6
0.0015	-0.0098	-0.0135	-0.1613	7.5
-0.0075	-0.0315	-0.0113	-0.1575	7.4
-0.0008	-0.0203	-0.0091	-0.0428	7.3
-0.0008	0.0135	-0.0046	0.1327	7.3
0	0.0127	0.0037	0.1372	7.2
0.0015	-0.0008	0.0142	0.1365	7.1
0.0045	-0.0165	0.0232	0.2077	7
0.0022	-0.0098	0.0285	0.2565	7
-0.0015	-0.0346	0.0307	0.2422	6.9
0.0052	-0.06	0.0315	0.1042	6.8
0.0037	-0.033	0.024	0.0225	6.7
0.0015	0.0165	0.0127	0.0127	6.7
-0.0015	0.0885	0.0045	0.012	6.6
-0.0008	0.096	-0.0038	-0.012	6.5
0.0052	0.066	-0.0105	-0.0353	6.4
0.0067	0.0367	-0.0158	0.003	6.3
0.0067	0.0135	-0.0165	0.0157	6.2
0.0052	0.0202	-0.0105	0.0412	6.2
0.0022	0.006	-0.0075	0.0532	6.2
-0.0015	0.0015	-0.0053	0.0712	6.1
-0.0015	-0.0165	-0.0046	0.0802	6.1
-0.003	-0.03	-0.0046	0.0472	6
-0.006	-0.0278	-0.003	-0.0285	6
-0.0015	-0.0315	-0.0008	-0.1088	5.9
0.0007	-0.0128	-0.003	-0.0518	5.9
0.0007	-0.0105	-0.003	-0.012	5.8
0.003	0.0037	-0.0046	-0.0225	5.8
0.003	0.0292	-0.0053	-0.0068	5.8
0.0045	0.0255	-0.0075	-0.0091	5.8
0.003	0.0052	-0.0068	-0.0053	5.7
0.003	-0.0015	-0.0053	-0.0091	5.7
-0.0008	-0.003	-0.0053	-0.0083	5.6
-0.003	-0.0098	-0.003	-0.003	5.6
-0.003	-0.0083	-0.0038	-0.003	5.5
-0.0053	-0.0098	-0.0046	0.0045	5.5
-0.006	-0.0053	-0.0046	0.0075	5.4
-0.0105	-0.006	-0.0038	0.0127	5.3
-0.0135	-0.0053	-0.003	0.0165	5.3
-0.012	-0.0038	-0.0038	0.0172	5.4
-0.0128	-0.006	-0.003	0.0195	5.4
-0.0135	-0.0046	-0.003	0.0217	5.4
-0.0068	-0.006	-0.0015	0.0232	5.4
-0.0038	-0.006	0.003	0.027	5.4
-0.0023	-0.0113	0.003	0.0277	5.4
-0.0015	-0.0128	0.003	0.0307	5.4
-0.0053	-0.0135	-0.0008	0.0315	5.5
-0.0046	-0.0143	-0.003	0.0352	5.5
-0.006	-0.0135	-0.0046	0.0412	5.5
-0.0053	-0.0181	-0.0046	0.0427	5.5
-0.003	-0.0165	-0.003	0.0525	5.5
-0.0046	-0.012	-0.006	0.0645	5.5
-0.003	-0.0128	-0.0083	0.0555	5.6
-0.0038	-0.0053	-0.0083	0.0217	5.6
-0.0015	0.0187	-0.0083	0.0172	5.6
-0.0015	0.0307	-0.006	0.0217	5.6
-0.0038	0.0007	-0.0046	-0.0405	5.6
0.0007	-0.0368	-0.0015	-0.0728	5.6
0.003	-0.0383	0.0045	0.042	5.6
0.0075	-0.0518	0.0052	0.126	5.5
0.0082	-0.0495	0.0007	0.0817	5.4
0.0105	-0.0195	-0.0008	0.0382	5.3
0.0135	0.0217	-0.0038	-0.039	5.3
0.0105	0.1057	-0.003	-0.0825	5.2
0.009	0.1207	-0.0008	-0.045	5.1
0.0082	0.1027	0.0022	0.0375	5
0.0127	0.093	0.003	0.1095	5
0.0142	0.0615	0.006	0.1342	4.9
0.015	0.09	0.0082	0.1147	4.8
0.0165	0.0795	0.0075	0.0427	4.8
0.0157	0.0547	0.0082	0.018	4.7
0.0172	0.0532	0.009	0.0345	4.6
0.021	0.0562	0.0105	0.099	4.5
0.0217	0.0547	0.0052	0.1162	4.5
0.0195	-0.0075	0.0052	0.096	4.4
0.0202	-0.0278	0.0052	0.0772	4.3
0.018	-0.0495	0.0007	0.039	4.2
0.0157	-0.0638	0.0015	0.027	4.1
0.0135	-0.06	0.003	-0.006	4
0.0105	-0.0713	0.0052	-0.0046	4
0.0045	-0.0675	0.0067	0.012	3.9
0.0007	-0.0698	0.009	0.0315	3.9
0.0015	-0.0593	0.009	0.0412	3.8
-0.0008	-0.0495	0.006	0.0187	3.7
-0.003	-0.024	0.0045	0.0015	3.6
-0.0008	-0.003	0.0022	-0.0113	3.6
0	0.003	0.0022	-0.0165	3.5
-0.0023	-0.003	0.0015	-0.0225	3.4
-0.0046	-0.0105	-0.0008	-0.0233	3.4
-0.0053	0.0082	-0.003	-0.0248	3.3
-0.006	0.0022	-0.0015	-0.027	3.2
-0.006	-0.0083	-0.0015	-0.033	3.1
-0.0068	-0.012	-0.0038	-0.0353	3.1
-0.0068	-0.0158	-0.0053	-0.0383	3
-0.0068	-0.0143	-0.0053	-0.042	3
-0.0068	-0.0135	-0.0053	-0.045	2.9
-0.006	-0.0105	-0.0046	-0.0503	2.8
-0.0053	-0.012	-0.0046	-0.0518	2.7
-0.0023	-0.0158	-0.0046	-0.0555	2.7
-0.003	-0.0158	0	-0.0578	2.7
-0.0038	-0.0098	-0.0015	-0.0608	2.7
-0.0008	-0.0046	-0.0008	-0.0638	2.8
-0.0015	-0.0015	0	-0.0675	2.8
-0.0046	-0.006	-0.003	-0.0691	2.8
-0.0053	-0.0091	-0.003	-0.0668	2.9
-0.0075	-0.0165	-0.0046	-0.0691	2.9
-0.0091	-0.0233	-0.0008	-0.0706	2.9
-0.0053	-0.024	0.0015	-0.0683	2.9
-0.003	-0.03	-0.0008	-0.0668	3
-0.0015	-0.0315	0.0015	-0.0758	3
-0.0015	-0.033	-0.0015	-0.078	3
0	-0.0158	-0.003	-0.0653	3
-0.0015	0.0172	-0.0038	-0.0623	3.1
-0.0046	0.0585	-0.0046	-0.0518	3.1
-0.0015	0.0682	-0.003	-0.0518	3.1
-0.0015	0.0255	-0.0038	-0.06	3.1
-0.0008	0.009	-0.003	-0.0555	3.1
0.003	-0.0091	-0.0075	-0.0645	3.1
0.0022	-0.0278	-0.0083	-0.0698	3.1
0.0015	-0.0278	-0.0083	-0.0743	3.2
0.0015	-0.0413	-0.0083	-0.0818	3.2
0.0007	-0.0346	-0.0083	-0.0938	3.2
0.0007	-0.0278	-0.0068	-0.0968	3.2
0	-0.012	-0.006	-0.0645	3.2
0.0007	0.021	-0.0046	-0.0405	3.2
0	0.0675	-0.003	-0.054	3.2
0.0015	0.099	-0.0053	-0.0578	3.2
0.0015	0.0825	-0.0068	-0.0615	3.3
-0.0008	0.0637	-0.0083	-0.0713	3.3
0.0022	0.0345	-0.0083	-0.0691	3.3
0.0015	0.0052	-0.0091	-0.0728	3.3
0.0007	-0.0023	-0.0068	-0.0668	3.3
0.0007	-0.0105	-0.0053	-0.0668	3.3
0.0022	-0.012	-0.003	-0.0668	3.3
0.0015	-0.0143	0	-0.0653	3.3
0.003	-0.015	-0.0015	-0.0585	3.3
0.0045	-0.0181	-0.0015	-0.0495	3.4
0.0045	-0.0308	-0.003	-0.0548	3.4
0.0082	-0.0405	0.0015	-0.0473	3.4
0.0082	-0.0413	0.006	-0.039	3.3
0.0052	-0.042	0.009	-0.0548	3.2
0.0082	-0.042	0.0127	-0.0706	3.2
0.0067	-0.0368	0.0135	-0.066	3.1
0.0105	-0.0405	0.0142	-0.0788	3.1
0.0097	-0.042	0.0135	-0.081	3
0.0082	-0.0315	0.0187	-0.0623	3
0.0082	0.0015	0.0232	-0.0563	2.9
0.009	0.0607	0.0225	-0.0458	2.8
0.0127	0.0975	0.0247	-0.0458	2.8
0.0127	0.0622	0.0232	-0.0436	2.7
0.0127	0.0075	0.024	-0.0436	2.7
0.0157	0.009	0.024	-0.042	2.6
0.015	0.006	0.024	-0.0405	2.6
0.0157	-0.0053	0.027	-0.0428	2.5
0.0202	0.0007	0.0277	-0.033	2.5
0.0187	0.0045	0.033	-0.0075	2.4
0.0165	0.021	0.0345	0.009	2.3
0.0157	0.0352	0.0345	0.0112	2.2
0.0157	0.0502	0.0352	0.018	2.2
0.0127	0.0472	0.0345	0.0217	2.2
0.012	0.027	0.0322	0.03	2.2
0.0165	0.0075	0.0307	0.03	2.2
0.012	-0.0128	0.0247	0.0247	2.1
0.012	-0.0203	0.0225	0.0202	2.1
0.012	-0.0263	0.0202	0.0202	2
0.0045	-0.0278	0.0165	0.0435	2
0.0052	-0.0263	0.0142	0.057	2
0.0067	-0.0256	0.012	0.069	1.9
0.0075	-0.0181	0.012	0.093	1.9
0.0082	0.0007	0.0112	0.114	1.8
0.0075	0.0277	0.0105	0.1305	1.8
0.0067	0.0465	0.0082	0.1357	1.8
0.0045	0.0255	0.003	0.1155	1.8
0.006	-0.003	-0.0015	0.105	1.7
0.0007	0.0045	-0.0046	0.1027	1.7
0.0015	-0.0113	-0.0053	0.1012	1.7
0.0015	-0.0256	-0.0075	0.1065	1.6
-0.0023	-0.033	-0.0091	0.1057	1.5
-0.0023	-0.0383	-0.012	0.1147	1.5
-0.0008	-0.0188	-0.012	0.1102	1.5
0.0015	-0.0068	-0.0128	0.1027	1.5
-0.0015	0.0045	-0.012	0.0982	1.5
0	0.009	-0.0113	0.0885	1.5
-0.0008	0.018	-0.012	0.0855	1.5
-0.003	0.0105	-0.0113	0.0825	1.5
-0.003	-0.012	-0.0128	0.0855	1.5
0.0007	-0.0105	-0.0128	0.0877	1.5
-0.0008	-0.0091	-0.012	0.084	1.5
-0.003	-0.0068	-0.0105	0.0795	1.5
0.0007	-0.0015	-0.0105	0.0682	1.5
-0.0008	0.003	-0.0128	0.0457	1.4
-0.0015	-0.0053	-0.0128	0.0457	1.4
-0.0008	-0.0203	-0.012	0.0615	1.4
-0.0023	-0.0158	-0.0143	0.0562	1.4
-0.003	-0.027	-0.0143	0.0405	1.4
-0.0015	-0.0233	-0.012	0.0615	1.4
-0.0015	-0.0083	-0.0068	0.1027	1.4
-0.0015	-0.0075	-0.0053	0.0892	1.3
0.003	0.0382	-0.0053	0.0607	1.3
0.0015	0.0802	-0.0046	0.0607	1.3
0.0007	0.0915	-0.0068	0.0607	1.3
-0.0008	0.0667	-0.0091	0.0577	1.3
-0.0015	0.0405	-0.0091	0.042	1.3
-0.003	0.033	-0.0105	0.0315	1.3
-0.0053	0.0075	-0.0135	0.0157	1.3
-0.0068	0.0007	-0.015	0.0015	1.2
-0.0105	-0.0091	-0.0165	-0.012	1.2
-0.0091	-0.0188	-0.0158	-0.021	1.2
-0.0083	-0.0128	-0.0181	-0.0165	1.2
-0.0083	-0.012	-0.0181	-0.0135	1.2
-0.0105	-0.0128	-0.0158	-0.0023	1.1
-0.0083	-0.042	-0.015	0.009	1.1
-0.0083	-0.063	-0.0105	0.0127	1.1
-0.0053	-0.0555	-0.0068	-0.0023	1.1
-0.003	-0.045	-0.0046	-0.0218	1
-0.0083	-0.0323	-0.003	-0.0413	1
-0.0068	-0.0218	-0.003	-0.039	1
-0.0068	-0.0105	-0.0046	-0.0023	0.9
-0.0083	0.012	-0.0068	0.0217	0.9
-0.0075	0.0547	-0.0046	0.0165	0.9
-0.0068	0.069	-0.0038	0.0007	0.9
-0.0008	0.0292	-0.003	0.009	0.8
0	0.012	-0.0015	0.0277	0.7
0.0045	0.0232	-0.0023	0.0187	0.7
0.0007	0.0172	-0.0053	-0.0038	0.6
-0.006	0.0187	-0.0098	-0.0143	0.6
-0.0046	0.0315	-0.0091	-0.0225	0.5
-0.0038	0.0345	-0.0046	-0.033	0.5
-0.0008	0.0067	-0.003	-0.0361	0.4
0.0007	-0.0098	-0.0008	-0.0285	0.4
0.0007	-0.0075	-0.0015	-0.0165	0.4
-0.0015	-0.0113	-0.0053	-0.0181	0.3
0.0007	-0.0083	-0.0038	-0.0218	0.2
0.0015	-0.0143	-0.0015	-0.0315	0.2
0.003	-0.0158	0.0015	-0.0353	0.1
0.0015	-0.0181	0	-0.0383	0.1
0.003	-0.0195	-0.0008	-0.0473	0
0.0105	-0.0158	0.0015	-0.0473	0
0.0097	-0.0165	0.0015	-0.0503	0
0.0075	-0.0135	0.003	-0.0436	0
0.0052	-0.012	0.0022	-0.0405	0
0.0045	-0.0098	0.0007	-0.033	-0.1
0.0007	-0.0105	0.0052	-0.0278	-0.1
0.0007	-0.0105	0.0052	-0.0315	-0.1
0.0067	-0.0091	0.003	-0.0353	-0.1
0.0075	-0.0068	0.0052	-0.0368	-0.2
0.0082	-0.0068	0.006	-0.0346	-0.2
0.0067	-0.0091	0.0082	-0.0338	-0.2
0.0075	-0.0053	0.0082	-0.0293	-0.2
0.0045	-0.0053	0.0067	-0.0263	-0.2
0.0045	-0.0008	0.0082	-0.0256	-0.3
0.0052	-0.003	0.0037	-0.0225	-0.3
0.0075	0.0007	0.0045	-0.0203	-0.3
0.0067	0.009	0.0037	-0.0195	-0.3
0.0007	0.0067	0.0045	-0.024	-0.4
0.0022	0.0022	0.0052	-0.039	-0.4
0.0007	0.0015	0.003	-0.0443	-0.4
0.0007	0.0015	0.0045	-0.0218	-0.5
0.0015	0.0015	0.003	-0.0046	-0.5
0.003	0.0015	0.0052	-0.0068	-0.5
0.0015	-0.0015	0.003	-0.0068	-0.4
0	-0.0008	-0.0008	-0.0098	-0.4
0.003	-0.0008	-0.0038	-0.0113	-0.4
0.0052	-0.003	-0.003	-0.012	-0.4
0.0052	-0.0008	-0.003	-0.0105	-0.4
0.0007	-0.0008	-0.0053	-0.0083	-0.4
-0.0015	0	-0.0046	-0.0083	-0.4
0	-0.0008	-0.003	-0.003	-0.4
0.0007	-0.0008	-0.003	-0.0046	-0.4
0.0007	-0.0023	-0.0015	-0.0015	-0.4
0	-0.0046	-0.0015	-0.0008	-0.3
0.0015	-0.0015	-0.0015	-0.0015	-0.3
0.0015	0.0015	-0.0015	-0.0023	-0.3
0	0.0022	-0.0046	-0.0038	-0.3
0.0007	0.0007	-0.0046	-0.0008	-0.3
0.0015	-0.0015	-0.0015	-0.0015	-0.3
0.0015	0	-0.0008	-0.0046	-0.3
0.003	0.0015	0.0015	-0.0023	-0.3
0.0075	0.0015	0.0015	-0.003	-0.3
0.0067	0.0015	0.003	-0.0038	-0.3
0.0082	0.0015	0.0037	-0.0008	-0.3
0.0052	0	0.0007	0.0015	-0.2
0.0015	-0.0008	-0.0008	0.0007	-0.2
0.003	-0.0008	-0.0015	0.0015	-0.2
0	0	-0.0015	0.0082	-0.2
-0.0046	-0.0015	-0.003	0.0142	-0.2
-0.0068	-0.0046	-0.0068	0.0165	-0.2
-0.0068	-0.0068	-0.0105	0.0165	-0.2
-0.0046	-0.0098	-0.0068	0.0217	-0.2
-0.0008	-0.0105	-0.003	0.0157	-0.2
0.0007	-0.0053	-0.003	-0.0046	-0.2
0.003	0.0127	-0.0008	0.0105	-0.2
0.0015	0.021	-0.0015	0.0322	-0.2
0.0022	0.0022	0	0.0142	-0.2
0.0015	0.003	0.0015	0.0075	-0.1
0.0007	0.0052	0.0007	-0.0015	-0.1
0.0037	-0.0091	0.0022	-0.0068	-0.1
0.003	-0.0158	0.0007	0.0045	-0.1
0.0015	-0.0361	-0.0015	-0.0008	-0.1
0.0007	-0.075	-0.0008	-0.0015	-0.1
0	-0.108	0.0015	-0.0083	-0.1
-0.0015	-0.1043	0.0045	-0.0128	-0.1
-0.0015	-0.0765	0.0052	-0.0158	-0.1
0.003	-0.0346	0.0037	-0.0173	-0.1
0.003	-0.0173	0.0015	-0.0143	-0.1
0.0022	-0.0368	0.0007	-0.0233	-0.1
0.003	0.0105	0.0022	-0.0181	-0.1
0.003	0.1312	0.003	0.0127	-0.1
0.0045	0.333	0.006	0.0345	-0.1
0.0052	0.3997	0.0045	0.0247	-0.1
0.0037	0.1627	-0.0008	0.0165	-0.1
0.0007	0.0532	-0.0038	0.0195	-0.1
0	0.0532	-0.0008	0.0277	-0.1
-0.0023	-0.0015	0.0052	0.054	-0.1
-0.0015	0.0337	0.0067	0.0615	-0.1
0	-0.027	0.0097	0.0247	-0.1
-0.0008	-0.0458	0.0105	-0.0008	-0.1
0.0015	-0.0428	0.006	-0.0181	-0.1
0.0007	-0.0675	0.0045	-0.0158	-0.1
0.003	-0.0428	0.0045	-0.0046	-0.1
0.0067	-0.0706	0.0037	-0.0143	-0.1
0.0037	-0.057	0.003	-0.0105	-0.1
0.0037	-0.054	0.0037	-0.0218	-0.1
0.003	-0.0495	0.003	-0.0218	-0.1
0.0015	-0.0368	0.003	-0.021	-0.1
0.0015	-0.0338	0	-0.0225	-0.2
0.0007	-0.0278	-0.0008	-0.0173	-0.2
0.0022	-0.033	0.0007	-0.0181	-0.2
0.0007	-0.0203	-0.0008	-0.0083	-0.2
0.006	-0.0195	0.003	-0.0091	-0.2
0.0105	-0.0165	0.0052	-0.0105	-0.2
0.0082	-0.0195	0.0052	-0.0091	-0.2
0.006	-0.0143	0.0045	-0.0083	-0.2
0.0022	-0.0105	0.003	-0.0091	-0.2
0.0045	-0.0091	0.0052	-0.0105	-0.2
0.0075	-0.0068	0.003	-0.0083	-0.3
0.0045	-0.0091	0.0052	-0.0098	-0.3
0.0037	-0.0053	0.0067	-0.0091	-0.3
0.0052	-0.0068	0.0052	-0.0098	-0.3
0.0052	-0.0038	0.0052	-0.0091	-0.3
0.003	-0.0008	0.0007	-0.0068	-0.3
-0.0023	-0.0053	-0.003	-0.006	-0.3
-0.003	-0.027	-0.003	-0.0091	-0.3
-0.0015	-0.0495	0	-0.0143	-0.3
0.0045	-0.0495	0.0045	-0.0128	-0.3
0.0082	-0.0413	0.0067	-0.0091	-0.4
0.0082	-0.0338	0.006	-0.0068	-0.4
0.0067	-0.0315	0.0052	-0.0068	-0.4
0.0052	-0.0278	0	-0.0046	-0.4
0.0015	-0.0091	-0.0015	0.0007	-0.4
-0.006	0.0142	-0.0023	0.0007	-0.4
-0.0053	0.045	-0.0023	-0.0008	-0.4
-0.0023	0.045	-0.003	0.0015	-0.4
0	0.0225	-0.0038	0.0127	-0.4
0.0007	0.0637	0.0007	0.0195	-0.4
-0.0008	0.1102	0.0007	0.0232	-0.5
-0.0008	0.114	0.0007	0.024	-0.5
0.0007	0.096	0.0015	0.0142	-0.5
0.0007	0.0757	0	0.0075	-0.5
-0.0023	0.0315	-0.0008	0.0007	-0.5
0.0007	-0.0195	-0.0015	-0.0053	-0.5
0	-0.0195	-0.0008	-0.006	-0.5
0.0022	0.0007	-0.003	-0.006	-0.5
0.0037	0.024	-0.0023	-0.0008	-0.5
0.0007	-0.006	-0.0015	-0.003	-0.5
0.006	-0.0233	-0.0015	-0.0046	-0.5
0.0045	-0.0083	0.0015	-0.006	-0.5
0.0022	-0.024	0.0007	-0.0053	-0.5
0.0015	-0.0233	0.0007	-0.003	-0.5
0.0045	-0.0293	0.0015	-0.0068	-0.5
0.0075	-0.0293	0.0015	-0.0053	-0.5
0.006	-0.0218	0.0045	-0.0053	-0.5
0.0082	-0.0233	0.0037	-0.0046	-0.5
0.0067	-0.0128	0.0022	-0.0053	-0.5
0.0045	-0.012	0.003	-0.006	-0.5
0.0045	-0.0256	0.0015	-0.006	-0.5
0.0052	-0.0375	0.0045	-0.006	-0.5
0.0015	-0.0346	0.003	-0.0038	-0.5
0.0015	-0.0293	0.0022	-0.0046	-0.5
0.0045	-0.0203	0.006	0.0022	-0.5
0.0022	0.0015	0.0015	0.0075	-0.5
0.0007	0.0382	-0.0008	0.0112	-0.5
0.0015	0.0592	0	0.012	-0.5
0.003	0.03	0.0007	0.006	-0.5
0.0037	0.0067	0.0015	0.0052	-0.5
0.0037	0.0082	-0.0038	0.0067	-0.5
0.0015	-0.0008	-0.0075	0.009	-0.5
0.0007	0.0037	-0.0046	0.0127	-0.5
0.0022	-0.003	-0.0046	0.012	-0.5
-0.0008	-0.012	-0.0015	0.0105	-0.5
0.0015	-0.024	0.0022	0.0067	-0.5
0.0052	-0.039	0.003	0.0052	-0.5
0.003	-0.0428	0.0052	0.003	-0.5
0.0045	-0.0473	0.0052	0	-0.5
0.006	-0.0436	0.0045	0.0022	-0.5
0.0037	-0.0368	0.0015	0.0067	-0.5
0.0015	-0.0053	-0.0008	0.0105	-0.5
0.003	0.042	0	0.0142	-0.5
0.0015	0.0367	-0.0015	0.0157	-0.5
-0.0053	-0.0015	0.0015	0.0067	-0.5
-0.003	-0.0023	0.0015	0.0007	-0.5
0.0007	0.0217	0.0007	0.0045	-0.5
-0.0008	0.078	0.0052	0.0097	-0.5
0.0045	0.1027	0.0082	0.0165	-0.5
0.0075	0.0412	0.0067	0.0187	-0.5
0.006	-0.015	0.0037	0.0195	-0.5
0.0015	-0.0383	0	0.012	-0.5
0	-0.0503	-0.0023	0.0037	-0.6
-0.003	-0.0608	-0.0023	-0.0015	-0.6
-0.0015	-0.0548	-0.0053	-0.0053	-0.6
0.0022	-0.0428	-0.0046	-0.0083	-0.6
0.0015	-0.0218	-0.0015	-0.0128	-0.6
0.0067	0.0195	0.0045	-0.0113	-0.6
0.009	0.051	0.0082	-0.0143	-0.6
0.009	0.0607	0.0082	-0.015	-0.6
0.0082	0.06	0.0075	-0.0083	-0.6
0.0082	0.033	0.006	0.0022	-0.7
0.0015	-0.027	0.0045	0.0135	-0.7
-0.0008	0.0105	0.0075	0.021	-0.7
0.0045	0.0727	0.009	0.03	-0.7
-0.0008	0.093	0	0.0375	-0.7
-0.0015	0.1027	-0.0075	0.039	-0.7
-0.0046	0.036	-0.0135	0.0307	-0.8
-0.0053	-0.0465	-0.0128	0.0165	-0.8
-0.0046	-0.057	-0.0091	0.006	-0.8
-0.0038	-0.027	-0.0091	-0.0083	-0.8
-0.0015	-0.0495	-0.0068	-0.0165	-0.8
-0.0038	-0.048	-0.0098	-0.0248	-0.8
-0.0053	-0.012	-0.0143	-0.0346	-0.8
-0.0091	0.015	-0.0158	-0.0315	-0.9
-0.0098	0.033	-0.0173	-0.0233	-0.9
-0.0105	0.0007	-0.0158	-0.0128	-0.9
-0.0083	-0.0218	-0.0083	-0.0068	-0.9
-0.0023	-0.0165	-0.003	-0.0053	-0.9
0.0015	-0.0323	0	-0.0023	-0.9
0.003	-0.0278	0.0022	0.0015	-0.9
0.003	-0.0008	0.0052	0.0052	-0.9
0.0022	0.0015	0.006	0.009	-1
0.0045	-0.0015	0.006	0.0097	-1
0.003	0.0022	0.0045	0.0105	-1
-0.0008	-0.0225	0.0052	0.006	-1
0.0022	-0.078	0.0052	-0.0015	-1
0.003	-0.0856	0.0037	-0.0053	-0.9
0.0037	-0.0788	0.006	-0.006	-0.9
0.0052	-0.0691	0.0075	-0.0098	-0.9
0.0045	-0.0285	0.0097	-0.0091	-0.9
0.006	0.0202	0.0112	-0.0008	-0.9
0.0045	0.0787	0.0097	0.0052	-0.9
0.0067	0.1312	0.0082	0.012	-0.9
0.0052	0.174	0.0045	0.0105	-0.9
0.0015	0.0937	-0.0008	0.0052	-0.9
-0.0023	0.0112	-0.0038	0.0045	-0.9
0.0007	0.012	-0.003	-0.0023	-0.9
0.0045	-0.0233	-0.0015	-0.0046	-0.9
0.003	-0.0143	-0.0008	-0.0068	-0.9
0.0075	-0.0256	0.0022	-0.0053	-0.9
0.0052	-0.0188	0.0052	-0.0091	-0.9
0.0082	0.0022	0.0075	-0.0143	-0.9
0.012	0.0045	0.0067	-0.0113	-0.9
0.009	0.024	0.003	-0.0053	-0.9
0.0045	0.0007	-0.0023	0.0015	-0.9
0.0007	-0.006	-0.0053	0.0022	-0.9
-0.003	-0.0181	-0.0083	0.0045	-0.8
-0.006	-0.0405	-0.0105	0.0045	-0.8
0	-0.0488	-0.0068	0.0007	-0.8
0.0022	-0.0555	-0.0038	-0.0046	-0.8
-0.0008	-0.054	-0.0053	-0.0075	-0.8
0.0037	-0.054	-0.006	-0.0083	-0.8
0.003	-0.048	-0.0068	-0.0143	-0.8
0.0015	-0.0436	-0.0053	-0.0135	-0.7
0.0015	-0.0135	-0.0046	-0.0128	-0.7
0	0.0195	-0.0053	-0.0181	-0.7
0.0022	0.003	-0.003	-0.0203	-0.7
0.0022	-0.033	0.0007	-0.0218	-0.7
0.0007	-0.0863	0.0067	-0.0173	-0.7
0.0007	-0.0743	0.0082	-0.0128	-0.7
0.003	-0.024	0.0105	-0.012	-0.6
0.0045	-0.0256	0.0142	-0.003	-0.6
0.0045	0.0885	0.015	0.009	-0.6
0.0052	0.1965	0.018	0.018	-0.6
0.0082	0.261	0.0202	0.027	-0.6
0.0075	0.2572	0.0127	0.024	-0.5
0.0052	0.0622	0.0007	0.012	-0.5
0.0022	0.0307	-0.0053	0.006	-0.5
-0.003	0.0015	-0.0083	-0.0046	-0.5
-0.0038	-0.063	-0.0128	-0.012	-0.5
-0.0046	-0.024	-0.0181	-0.0128	-0.4
-0.0083	-0.0525	-0.0188	-0.0105	-0.4
-0.0091	-0.027	-0.0158	-0.006	-0.4
-0.0068	-0.0353	-0.0143	-0.0046	-0.4
-0.0053	-0.0413	-0.012	-0.0053	-0.4
-0.0008	-0.039	-0.0091	-0.0105	-0.3
0.0015	-0.0503	-0.0068	-0.0113	-0.3
0.003	-0.033	-0.0023	-0.012	-0.3
0.0052	-0.0413	0	-0.0158	-0.2
0.006	-0.0278	0	-0.0158	-0.2
0.0045	-0.03	0.0037	-0.015	-0.2
0.0052	-0.0225	0.0052	-0.0113	-0.2
0.0067	-0.0135	0.006	-0.0083	-0.1
0.0075	-0.012	0.0082	-0.0046	-0.1
0.0067	-0.0105	0.009	-0.0053	-0.1
0.0075	-0.0225	0.0105	-0.003	-0.1
0.0075	-0.0233	0.0082	0.0015	0
0.003	-0.0165	0.0067	-0.0008	0
0.0052	-0.012	0.0082	0	0
0.0037	-0.015	0.0067	-0.0008	0
0.0007	-0.0068	0.0045	-0.0008	0
0.0022	0	0.006	0.0007	0.1
0.0015	0.0315	0.009	0.0015	0.1
0.0052	0.057	0.009	0.003	0.1
0.009	0.0292	0.009	0.0015	0.2
0.0082	0.009	0.0105	0.0007	0.2
0.0082	0.0067	0.0097	0.0045	0.2
0.0067	0.003	0.0045	0.0082	0.3
-0.0008	-0.003	-0.0015	0.0157	0.3
-0.0008	-0.0113	-0.0038	0.018	0.3
0.003	-0.0098	-0.0023	0.0157	0.3
-0.0008	-0.0135	-0.003	0.0142	0.4
-0.0008	-0.0203	-0.0023	0.0097	0.4
0	-0.0263	-0.0008	0.0075	0.4
-0.003	-0.0293	-0.0008	0.0045	0.4
-0.0015	-0.0068	0.0015	0.0015	0.5
0.0007	0.0277	0.0015	-0.003	0.5
0.0022	0.0187	0	-0.0105	0.5
0.003	-0.0315	0.0007	-0.0165	0.6
0.0045	-0.0495	0.0052	-0.0181	0.6
0.003	-0.027	0.0105	-0.0053	0.7
0.0067	0.0292	0.0105	0.0067	0.7
0.0045	0.063	0.006	0.012	0.7
0.0015	0.0615	0.0015	0.0202	0.8
-0.0008	0.0592	-0.0038	0.0255	0.8
-0.003	0.0495	-0.0068	0.0247	0.9
-0.0015	0.0487	-0.0046	0.0195	0.9
-0.0015	0.0382	-0.0008	0.0105	0.9
0.0015	0.036	0.0015	0.003	0.9
0.0015	0.0007	0.003	-0.003	0.9
0	-0.0218	0.0037	-0.0046	1
0.0015	-0.0083	0.0007	-0.0046	1
0.0007	-0.0008	-0.003	-0.006	1.1
0	-0.0015	-0.006	-0.0053	1.1
0.0007	-0.0495	-0.0128	-0.0068	1.1
-0.0046	-0.0533	-0.0128	-0.0083	1.2
-0.0068	-0.0721	-0.012	-0.0083	1.2
-0.0053	-0.09	-0.0113	-0.0083	1.2
-0.0053	-0.0728	-0.0038	-0.0083	1.3
-0.0015	-0.0593	-0.0015	-0.006	1.3
-0.0008	-0.0128	0.0007	-0.0046	1.3
0.0015	-0.0046	0.0015	-0.003	1.3
0.0037	0.051	0.0015	0.0015	1.4
0.0082	0.0952	0.003	0.0015	1.4
0.0097	0.0607	0.003	0.0052	1.4
0.006	0.075	0.0045	0.0052	1.5
0.0082	0.0472	0.0045	0.0037	1.5
0.0052	0.0202	0.0045	0.0037	1.5
0.0037	0.0502	0.0067	0.0015	1.6
0.0045	0.0172	0.0052	0.0007	1.6
0.0022	-0.0053	0.0045	-0.0008	1.6
0.0007	-0.0091	0.0052	-0.0008	1.7
0.0015	-0.0165	0.003	-0.0023	1.7
0.003	-0.0083	0.0045	0.0007	1.8
0.0037	-0.0143	0.0052	0.0007	1.8
0.0015	-0.0105	0.0037	0	1.8
-0.0008	-0.0113	0.0045	-0.0008	1.9
0.0007	-0.0105	0.0007	-0.0046	1.9
-0.0008	-0.0128	0.0015	-0.003	2
0.003	-0.0181	0.003	-0.0038	2
0.0007	-0.0143	0.0015	-0.0008	2.1
0.003	-0.012	0.0007	-0.0008	2.2
0.0052	-0.0075	-0.0008	-0.0008	2.2
0.0037	-0.0128	0	-0.0015	2.2
0.003	-0.033	-0.0015	-0.003	2.3
0.0037	-0.0563	0	-0.0015	2.3
0.0075	-0.063	0	-0.0015	2.4
0.006	-0.0638	-0.0038	-0.0046	2.4
0.0052	-0.06	0.0007	-0.006	2.5
-0.0008	-0.0293	0	-0.0038	2.5
0	0.0367	0.0007	-0.003	2.6
0.0015	0.111	0.003	-0.0015	2.6
-0.0015	0.1027	-0.0008	-0.0008	2.6
-0.0008	0.006	0.0007	-0.006	2.7
-0.0008	-0.0465	0	-0.0105	2.7
0.0015	-0.0953	-0.003	-0.015	2.8
0.0007	-0.1373	-0.003	-0.0165	2.8
0.0007	-0.1028	-0.0053	-0.0158	2.9
0.0015	-0.0458	-0.0053	-0.0075	2.9
0.003	0.045	-0.0046	-0.0008	3
0.0052	0.1095	-0.0008	0.003	3
0.0045	0.1897	0.0082	0.0112	3.1
0.0082	0.2542	0.0112	0.0127	3.1
0.0082	0.1695	0.0082	0.0067	3.1
0.0067	0.0772	0.0075	0.0007	3.2
0.003	0.0187	0.0015	0	3.2
0.0015	-0.0158	-0.0038	0.0007	3.3
0	-0.0015	-0.0053	0.003	3.3
-0.0015	-0.0143	-0.0046	0	3.4
0.0045	-0.0218	0	0.0007	3.4
0.0015	-0.0308	0.0007	0.0007	3.5
0.0007	-0.0383	-0.0015	0.0022	3.5
0.0022	-0.0308	-0.0015	-0.0015	3.6
-0.0008	-0.0383	0.0007	-0.003	3.6
0.0015	-0.0315	0.003	-0.0023	3.7
0.0007	-0.0285	0.0007	-0.0038	3.8
-0.0008	-0.0248	-0.0008	-0.0046	3.9
-0.0008	-0.021	-0.0008	-0.0068	3.9
-0.0008	-0.0225	0.0007	-0.003	4
-0.0015	-0.0203	0.0015	-0.0038	4
0.0022	-0.0218	0.0015	-0.0046	4.1
0.0037	-0.0248	0.0007	-0.003	4.2
0.0022	-0.03	0.0007	-0.0053	4.2
0.0067	-0.033	-0.0008	-0.0053	4.3
0.0037	-0.0375	-0.0038	-0.0046	4.4
0.003	-0.0361	-0.0015	-0.0046	4.5
0.0022	-0.0308	0	-0.0046	4.5
0	-0.0278	-0.0008	-0.0023	4.6
0	-0.0308	-0.0015	-0.0046	4.7
0.0007	-0.027	-0.0008	-0.0015	4.7
0.0007	0.0195	-0.0008	0.0007	4.8
-0.0008	0.0502	-0.003	0.0022	4.9
0.0007	0.0232	-0.003	0.0037	4.9
0.0015	0.0277	-0.003	0.0015	5
0.0007	0.0442	0	0.0045	5.1
0.0007	0.0405	-0.0015	0.0022	5.2
0.0015	0.0232	-0.006	-0.0008	5.3
0.0015	-0.0225	-0.006	-0.0008	5.4
0.0037	-0.0256	-0.0083	-0.0023	5.5
0.0067	-0.0068	-0.006	0.0015	5.6
0.0067	0.0322	-0.0053	0.0022	5.7
0.0052	0.0982	-0.0068	0.0015	5.8
0.0052	0.069	-0.0068	0	5.9
0.0052	-0.0008	-0.0083	-0.0053	6
0.0037	-0.033	-0.0105	-0.0083	6.1
0.003	-0.0645	-0.0113	-0.0091	6.2
-0.0008	-0.0765	-0.0083	-0.0105	6.3
-0.0008	-0.075	-0.0083	-0.0068	6.4
0.0007	-0.075	-0.0091	-0.0046	6.5
-0.0015	-0.0105	-0.0046	0.006	6.6
0.0007	0.051	-0.003	0.0127	6.7
0.0045	-0.015	-0.0046	0.0045	6.7
0.0052	-0.0233	-0.0046	0.0015	6.8
0.0052	0.0225	-0.003	0.0015	7
0.0007	0.0802	-0.0046	0.0045	7.1
-0.0008	0.159	-0.0046	0.0045	7.2
0.0015	0.1162	-0.0015	0.0067	7.2
0	0.1102	0.0015	0.006	7.3
-0.003	0.0382	0.0022	-0.003	7.5
-0.0046	-0.0218	0.0015	-0.0015	7.6
-0.0083	-0.0068	0.0022	-0.0038	7.6
-0.0046	-0.0563	-0.0023	-0.0015	7.8
-0.0038	-0.0203	-0.006	-0.0023	7.9
-0.0053	-0.0158	-0.0046	-0.003	8
-0.003	-0.012	-0.003	0.0015	8.1
-0.006	-0.0218	-0.0046	-0.0015	8.2
-0.0053	-0.0488	-0.0053	-0.0008	8.3
-0.0046	-0.0495	-0.0053	-0.0046	8.4
-0.0046	-0.0856	-0.0046	-0.0046	8.5
-0.0068	-0.0915	-0.0046	-0.0015	8.5
-0.006	-0.0795	-0.0015	0.0022	8.7
-0.003	-0.063	0.0037	0.009	8.8
-0.0046	-0.0818	0.0037	0.0037	8.9
-0.0015	-0.0691	0.0022	-0.0015	9.1
0.0007	-0.0233	0	0.0022	9.2
0.0015	0.0165	0.0007	0.0075	9.4
0.0015	-0.0181	0.0007	0.0022	9.6
0.0007	-0.099	-0.0023	-0.0068	9.7
0.0015	-0.0765	0.003	-0.0083	9.9
0.003	-0.0135	0.0067	0.0007	10
0.0052	0.0817	0.0097	0.012	10.2
0.0067	0.1537	0.0097	0.0195	10.3
0.0105	0.2167	0.0105	0.03	10.5
0.0097	0.234	0.009	0.0292	10.7
0.0052	0.171	0.0067	0.0202	10.8
0.0052	0.0877	0.0067	0.0157	11
0.0022	-0.0353	0.003	0.0052	11.2
0.0007	0	0.0015	0.009	11.3
0	-0.0135	-0.0008	0.0045	11.5
-0.0008	-0.1253	-0.0015	-0.0046	11.6
0.0007	-0.105	0	-0.0038	11.8
0.003	-0.1021	0.0015	-0.0053	11.9
0.0015	-0.0803	0.0067	-0.0053	12.1
0.0045	-0.006	0.0082	0.0037	12.2
0.0052	0.0555	0.009	0.0067	12.4
0.003	0.0157	0.0067	0.0045	12.6
0.0037	0.0255	0.0067	0.012	12.7
0.0052	0.0712	0.0097	0.012	12.9
0.0067	0.1597	0.0082	0.0157	13
0.0082	0.2302	0.0082	0.0105	13.2
0.0052	0.0187	0.0037	0.0015	13.4
0.0052	-0.0075	0.003	0.0045	13.5
0.0067	-0.0091	0.0037	0.0015	13.7
0.0082	-0.0585	0.0045	0.006	13.9
0.0067	-0.012	0.0052	0.0037	14
0.0067	-0.0443	0.0037	0.0022	14.2
0.0045	-0.0008	0.006	-0.0008	14.4
0.0015	-0.0293	0.0067	-0.0046	14.5
0.0052	-0.0278	0.0052	-0.003	14.7
0.0045	-0.024	0.003	-0.0038	14.8
0.0052	-0.0383	0.003	-0.0046	15
0.0067	-0.0165	0.0015	-0.0083	15.2
0.0045	-0.0315	0.003	-0.0068	15.4
0.0052	-0.0128	0.0045	-0.0098	15.6
0.0045	-0.0256	0.0015	-0.0105	15.8
-0.0008	-0.0218	-0.0008	-0.0128	16
-0.003	-0.0315	-0.0008	-0.0165	16.2
-0.0015	-0.0428	0.0015	-0.0158	16.4
-0.003	-0.0308	0.0007	-0.0165	16.6
-0.0015	-0.0233	-0.0008	-0.0165	16.8
0.0015	-0.0105	-0.0008	-0.0195	17
-0.0015	-0.0105	0	-0.0218	17.2
0.003	-0.0248	0	-0.024	17.4
0.003	-0.0706	-0.0023	-0.03	17.6
0.0022	-0.0848	-0.0015	-0.0323	17.8
0.0052	-0.066	-0.0038	-0.033	18
0.003	-0.0615	-0.0046	-0.033	18.2
0.0007	-0.0578	-0.003	-0.0346	18.4
-0.0023	-0.0233	-0.0023	-0.0248	18.6
0.0007	0.1125	0.0045	-0.0098	18.9
0.0052	0.2122	0.0052	-0.0083	19
0.0067	0.0742	0.0022	-0.0068	19.3
0.0045	0.0292	0.0007	-0.003	19.5
0.0007	0.0765	-0.0008	-0.0046	19.7
-0.0008	-0.0128	-0.0015	-0.0091	19.9
0.0007	-0.0098	-0.0023	-0.015	20.1
0	-0.0091	-0.0008	-0.0173	20.3
-0.003	-0.012	-0.0008	-0.0203	20.6
0.0007	-0.0053	0.0007	-0.0173	20.8
0.0007	-0.0188	0.003	-0.015	21
0.0045	-0.003	0.006	-0.0143	21.2
0.009	-0.0173	0.0067	-0.012	21.4
0.0082	-0.0091	0.006	-0.0158	21.6
0.0105	-0.012	0.0052	-0.015	21.9
0.0075	-0.0091	0.0045	-0.0165	22
0.0045	-0.0068	0.003	-0.0188	22.3
0.0052	-0.0105	0.0015	-0.0173	22.5
0.0067	-0.0158	0.0015	-0.0165	22.7
0.0037	-0.0225	0.0015	-0.0143	22.9
0.0052	0.0022	0.0007	-0.0098	23.1
0.003	-0.003	-0.0008	-0.0091	23.4
0.0007	-0.0046	-0.0015	-0.0075	23.6
0.0052	0.0045	-0.003	-0.0068	23.8
0.003	-0.0046	-0.0008	-0.0083	24
-0.0015	0.0007	-0.0015	-0.0083	24.2
-0.0046	-0.003	-0.003	-0.0098	24.4
-0.003	0.0007	-0.0023	-0.0105	24.7
-0.0008	0.003	-0.003	-0.0068	24.8
0.0022	0.0015	-0.0023	-0.003	25.1
0.0022	0.0045	-0.0008	-0.0015	25.3
0.0007	0	0.0007	-0.003	25.5
0.0022	-0.0008	0.0015	-0.0015	25.7
-0.0023	-0.0023	0.0007	0.0007	25.9
-0.0023	0.0007	-0.0008	0.0007	26.1
0.0007	0.0037	0.0007	0.0045	26.3
0.0015	0.0067	0.0015	0.0082	26.5
0.0037	0.009	0.0045	0.0097	26.8
0.003	0.0037	0.003	0.0105	27
0.003	0.0067	0.0037	0.0097	27.2
0.003	0.0022	0.0045	0.0082	27.4
0.0052	-0.0091	0.0037	0.0037	27.6
0.0075	-0.0046	0.0045	0.0067	27.8
0.0067	0.006	0.003	0.012	28
0.0097	0.0075	0.003	0.0127	28.3
0.0067	0.006	0.0067	0.0157	28.4
0.0037	0.0105	0.0067	0.0172	28.7
0.0037	0.009	0.0067	0.0202	28.9
-0.0008	-0.0008	0.0045	0.0217	29.1
-0.0015	0.003	0.0045	0.0217	29.3
-0.003	0.012	0.0045	0.0247	29.5
-0.0046	0.0067	0.0037	0.024	29.7
-0.0038	0.009	0.003	0.0247	30
-0.003	0.0067	0.0007	0.0232	30.2
-0.0008	0.0015	-0.0023	0.0187	30.4
-0.003	-0.0015	-0.0046	0.0142	30.6
-0.003	-0.0091	-0.0053	0.0105	30.8
-0.0046	-0.0128	-0.0053	0.0127	31
-0.0053	-0.0143	-0.0038	0.015	31.3
0.0015	-0.0083	-0.003	0.0165	31.5
0.0007	-0.003	0.0015	0.0165	31.7
0.003	-0.003	0.0045	0.0187	31.9
0.003	-0.0008	0.0045	0.0195	32.1
-0.0015	0	0.0037	0.0225	32.4
0.0015	0	0.0015	0.0262	32.5
0.0015	0.0007	0.003	0.0262	32.8
0.003	0.0015	0.0015	0.027	32.9
0.0052	0.0022	0.0015	0.0262	33.2
0.0052	0.0022	0.003	0.0277	33.4
0.0037	0.0022	0.0045	0.0277	33.6
0.0015	0.0022	0.0067	0.0247	33.8
0.0022	0.003	0.0037	0.024	34
0.0007	0.0022	0.0015	0.0217	34.2
0.0007	0.0045	-0.0015	0.0202	34.4
0.0022	0.0052	-0.0015	0.0187	34.6
0.0015	0.0052	0	0.0195	34.8
0.003	0.003	-0.003	0.0157	35
0.0045	0.003	-0.0023	0.0157	35.2
0.0052	0.003	-0.0015	0.0165	35.5
0.0037	0.0022	-0.0015	0.0157	35.6
0.003	0.003	-0.0015	0.0165	35.9
0.0015	0.0037	-0.0008	0.0142	36
0.0045	0.0067	-0.0015	0.0157	36.3
0.0082	0.0052	-0.0015	0.0165	36.5
0.0082	0.0037	-0.003	0.0187	36.7
0.0052	0.0045	-0.003	0.021	36.9
0.0067	0.003	0	0.0202	37.1
0.0067	0.0015	-0.0023	0.0232	37.3
0.0015	0.0007	-0.003	0.024	37.5
0.0015	0.003	-0.0023	0.0255	37.7
0.0052	0.0045	-0.0023	0.021	37.9
0.003	0.006	-0.0015	0.0165	38.1
0	0.006	-0.003	0.0165	38.3
0.0007	0.006	-0.0023	0.0165	38.6
-0.0023	0.006	-0.003	0.0195	38.7
-0.0015	0.0082	-0.003	0.0195	39
0.003	0.0142	-0.006	0.0165	39.1
0.0015	0.0127	-0.0083	0.0135	39.4
0.003	0.0045	-0.0068	0.0105	39.6
0.0037	-0.0008	-0.0046	0.0097	39.8
-0.0008	-0.0015	-0.0038	0.0067	40
-0.0038	-0.0046	-0.0083	-0.0008	40.2
-0.0046	-0.0046	-0.0068	-0.0068	40.4
-0.003	-0.0046	-0.0053	-0.0105	40.6
-0.0046	-0.0015	-0.0053	-0.0128	40.8
-0.0008	0.0022	-0.0023	-0.0128	40.9
0.0007	0.0045	-0.003	-0.0143	41.1
0.0007	0.0067	-0.0015	-0.0173	41.3
0.003	0.0067	-0.0008	-0.0195	41.4
-0.0008	0.0052	-0.0015	-0.0218	41.6
-0.0046	-0.003	-0.003	-0.024	41.8
-0.003	-0.0233	-0.0046	-0.024	42
-0.0008	-0.0225	-0.0046	-0.0225	42.2
0.0007	0.003	-0.0053	-0.0218	42.3
0.0015	-0.0068	-0.0046	-0.0203	42.5
0.0007	-0.0075	-0.0046	-0.0181	42.7
-0.0015	0	-0.0023	-0.012	42.9
-0.0015	-0.0083	-0.0015	-0.0038	43.1
0.0007	-0.0015	-0.0015	-0.0008	43.2
-0.0015	-0.0053	-0.0008	-0.0008	43.4
0	-0.0008	0.0007	-0.0038	43.6
0	-0.0008	-0.0008	-0.0068	43.7
0.0022	-0.0015	0.0007	-0.0053	43.9
0.0037	0.0015	0.0045	-0.0053	44.1
0.0007	-0.0053	0.0045	-0.0068	44.2
0.0015	-0.0046	0.0067	-0.0023	44.4
0.0022	-0.0046	0.0075	-0.0023	44.6
0.0015	0.003	0.0037	-0.0046	44.7
0.003	0.003	0.003	-0.0053	44.9
0.0045	0.0007	0.003	-0.006	45.1
0.0067	0.0022	0.0045	-0.0008	45.2
0.0052	-0.0008	0.0067	0.003	45.4
0.0052	-0.0015	0.0075	0.0015	45.6
0.0045	-0.003	0.0067	0.003	45.7
0.003	0.0007	0.0067	0.0067	45.9
0.006	-0.0015	0.0067	0.0052	46
0.0075	-0.003	0.0075	0.0052	46.2
0.009	-0.0015	0.0082	0.0082	46.4
0.0082	0.0007	0.0082	0.0082	46.5
0.0075	0.0022	0.0082	0.009	46.7
0.0045	0.0015	0.0067	0.009	46.9
0.0082	0.0045	0.0052	0.0082	47
0.009	-0.0015	0.0045	0.0045	47.2
0.0067	-0.0068	0.006	-0.0023	47.3
0.0052	-0.0083	0.0052	-0.0143	47.5
0.0052	-0.0128	0.0015	-0.0225	47.6
0.0052	-0.0158	0.0007	-0.021	47.7
0.0007	-0.0083	0.0015	-0.0181	47.9
0.0045	0.006	0.0015	-0.0083	48
0.0015	0.009	0.0007	-0.0053	48.1
0.0022	-0.0008	0.003	-0.0083	48.3
0.0052	-0.0038	0.0015	-0.0143	48.4
0.0007	-0.0053	0.0015	-0.024	48.6
0.0015	-0.0046	0.003	-0.0248	48.7
0.0007	-0.0015	0.0015	-0.0203	48.8
0.0015	0.0015	0.0007	-0.0135	49
0.003	0.0045	0.0007	-0.0053	49.1
0.0022	0.0075	-0.0008	-0.0046	49.2
0.0015	0.0105	0.0007	-0.0068	49.4
0.0052	0.015	0.0007	-0.0075	49.5
0.0067	0.0157	0.0007	-0.0046	49.6
0.0015	0.0007	0.003	0.0037	49.8
0.0015	-0.0083	0.0015	0.0127	49.9
0.0015	-0.0046	0.0007	0.0307	50
0.003	-0.0068	0.003	0.0382	50.1
0.003	-0.0083	0.0052	0.0405	50.2
0.0052	-0.0053	0.0052	0.0435	50.2
0.0052	0.0135	0.0045	0.0367	50.3
0.0022	0.0112	-0.0008	0.0292	50.4
0.003	-0.0173	-0.0008	0.0142	50.5
0.0015	-0.0203	-0.0046	0	50.6
-0.0008	-0.0143	-0.0068	-0.0143	50.7
-0.0008	0.0015	-0.0053	-0.0248	50.8
0	0.0007	-0.0068	-0.0293	50.8
0.0015	0.003	-0.0046	-0.0293	50.9
0	0.0105	-0.0038	-0.0256	51
0	-0.0091	-0.0046	-0.0256	51.1
-0.0015	-0.012	-0.0023	-0.0233	51.2
0	-0.0158	-0.0023	-0.0165	51.3
0.0015	0.0067	0.0007	-0.0135	51.3
0.0015	0.0195	0.0015	-0.0165	51.4
0.0015	0.012	-0.0015	-0.0195	51.5
0.0015	0.0217	-0.0008	-0.021	51.6
0.003	0.0082	-0.0015	-0.0203	51.6
0.0022	0.0045	-0.0008	-0.0195	51.6
0.0015	-0.0023	-0.0008	-0.0203	51.7
-0.0008	-0.0113	0	-0.0181	51.7
-0.0023	-0.0173	0.0007	-0.0128	51.7
0.003	-0.0008	0.0015	-0.0105	51.7
0.0045	0.0105	0.0007	-0.0098	51.8
0.0022	-0.0068	0	-0.0091	51.8
-0.0008	0.0015	-0.0015	-0.0038	51.8
-0.003	-0.0053	-0.0046	-0.0015	51.9
-0.0015	-0.0083	-0.0008	0	51.9
-0.003	0.0037	0.0007	0.003	51.9
-0.0046	0.0157	0.0015	0.0037	52
-0.0046	0.0277	0.003	0.0045	52
-0.0038	0.0142	0.0022	0.0052	52.1
-0.0046	0.0067	0.0045	0.0082	52.1
-0.0046	-0.0008	0.0045	0.0067	52.1
-0.003	-0.0008	0.0045	0.0045	52.2
-0.0008	0.0007	0.0045	-0.003	52.2
0.0015	-0.003	0.0037	-0.0105	52.2
0.0015	-0.003	0.003	-0.0091	52.2
0.0015	-0.0015	0.0015	-0.0068	52.2
-0.003	0.0007	0.003	-0.0046	52.2
-0.0008	-0.0015	0.0015	-0.003	52.2
0.0007	-0.003	0.003	-0.0053	52.2
-0.003	-0.0046	0.0015	-0.0083	52.2
-0.0008	-0.0046	0.0007	-0.012	52.2
0.0037	-0.003	0.0015	-0.012	52.2
0.0037	-0.003	0	-0.003	52.2
0.0045	-0.0008	0.003	0.0045	52.3
0.009	-0.0008	0.0052	0.0135	52.3
0.0052	0	0.0052	0.024	52.3
0.0052	-0.0015	0.0045	0.0315	52.3
0.0067	-0.0023	0.0015	0.0292	52.3
0.0052	-0.0015	0.003	0.0247	52.3
0.006	-0.0023	0.003	0.021	52.3
0.0052	-0.0015	0.003	0.0157	52.3
0.003	-0.0008	0.0007	0.012	52.3
0.0015	0	-0.0008	0.0045	52.3
0.003	-0.003	0.0007	-0.0038	52.3
0.0015	-0.0015	-0.0015	-0.0068	52.3
0.0007	-0.003	-0.0015	-0.0075	52.3
0.0007	-0.003	0	-0.0091	52.3
-0.0023	-0.003	-0.0008	-0.0091	52.4
-0.0008	-0.003	0.0015	-0.0091	52.4
0	0	0.0022	-0.0083	52.4
-0.003	-0.0015	0.0015	-0.0091	52.4
-0.0008	-0.0015	-0.0008	-0.0113	52.4
0.0022	-0.0046	-0.0008	-0.0105	52.4
0	-0.003	-0.0015	-0.0083	52.4
0.0007	-0.0038	0.0007	-0.0075	52.4
0.0015	-0.006	0.0007	-0.0083	52.4
-0.0008	-0.0023	-0.0008	-0.0075	52.4
-0.0008	-0.0015	0.0015	-0.0105	52.4
0.0015	-0.0015	0.0007	-0.0143	52.4
0	-0.003	-0.0008	-0.0181	52.4
-0.0008	-0.0053	-0.0038	-0.0195	52.5
-0.0008	-0.0053	-0.003	-0.0218	52.5
0.0007	-0.0075	-0.0038	-0.0278	52.5
0.0052	-0.0105	-0.0068	-0.0315	52.5
0.0082	-0.012	-0.0068	-0.033	52.5
0.0052	-0.0075	-0.0068	-0.0293	52.5
0.0045	-0.0083	-0.0038	-0.0256	52.4
0.0075	-0.0046	-0.003	-0.012	52.4
0.0045	-0.0008	-0.003	-0.0008	52.4
0.0075	0.0015	-0.0046	0.0082	52.4
0.0052	0.0015	-0.0053	0.018	52.3
0.0045	-0.0008	-0.003	0.0157	52.3
0.0082	-0.0008	-0.0023	0.0127	52.3
0.0037	0.0007	-0.003	0.0067	52.2
0.0052	0.0037	-0.0046	0.0037	52.2
0.0045	0.0105	-0.0023	0.0022	52.2
0.0052	0.0187	-0.0015	0.0007	52.2
0.006	0.0172	-0.003	0.0052	52.2
0.0037	0.0142	-0.0038	0.009	52.2
0.0022	0.0067	-0.003	0.0105	52.1
0.0015	0.0015	0.0015	0.0082	52.1
0.003	-0.0053	0.0015	0.009	52.1
0.003	-0.0181	-0.0023	0.0127	52.1
0.0007	-0.0105	-0.003	0.012	52
-0.0008	-0.0023	0	0.0142	52
0.0007	-0.0038	0.003	0.0157	51.9
0.0007	-0.0008	0.0015	0.0142	51.9
-0.0015	0.0135	-0.0015	0.009	51.8
-0.0015	0.0225	-0.003	0.003	51.8
-0.0023	0.0142	-0.0038	0.0052	51.7
-0.003	-0.0015	-0.0023	0.003	51.7
-0.003	-0.0173	-0.0038	0.0007	51.7
-0.003	-0.0293	-0.0023	0.0007	51.6
-0.003	-0.0323	0.0015	-0.0008	51.6
0.0007	-0.0263	0.0007	0	51.5
-0.0008	-0.0105	0.0007	0.0007	51.5
-0.003	0.027	0.0007	0.003	51.4
-0.0015	0.0577	-0.0023	0.0015	51.4
-0.0046	0.0637	-0.0046	0.003	51.3
-0.0046	0.0367	-0.0046	0.003	51.3
-0.0015	0.015	-0.003	0.003	51.3
-0.0008	0.0045	-0.0015	0.0067	51.2
0.003	-0.0023	0.0007	0.0015	51.2
0.0052	-0.0053	0.0007	-0.0068	51.1
0.003	-0.0173	-0.0008	-0.015	51
0.006	-0.0233	-0.0008	-0.0105	51
0.0045	-0.0218	-0.0015	-0.006	50.9
0.0022	-0.0105	-0.0015	-0.006	50.8
0.0015	-0.006	0.0007	-0.0015	50.8
0.0045	-0.003	-0.0015	-0.003	50.7
0.003	-0.0015	-0.0015	-0.003	50.6
0.003	-0.0083	0.0007	-0.0008	50.5
0.003	-0.0068	0.0007	0.0022	50.5
-0.003	-0.0053	0.0022	0.0045	50.4
0.0007	-0.006	0.0045	0.0067	50.3
-0.0008	-0.006	0.0052	0.0112	50.3
0.0007	-0.006	0.0037	0.0127	50.2
0.003	0.0037	0.0045	0.0165	50.1
0.0015	0.0052	0.0045	0.018	50
-0.0008	-0.0053	0.0015	0.018	49.9
-0.0023	-0.0008	0.0015	0.009	49.9
0.003	-0.0015	-0.0008	-0.006	49.8
0.003	-0.0008	-0.0015	-0.0053	49.8
0.0037	0.0015	-0.003	-0.003	49.6
0.0015	-0.0038	-0.0008	-0.0053	49.5
0.0007	-0.0008	0.0015	0	49.5
0.003	-0.0015	0.0007	-0.0015	49.3
0.0015	0.0022	0.0015	0.0007	49.2
0.0015	0.0015	-0.0008	-0.0008	49
0.0007	0.0007	-0.0008	-0.0023	49
0.0045	0.0007	-0.0008	0.0007	48.8
0.0052	0	0.0007	-0.0008	48.7
0.0082	0.0015	0.0037	0.0082	48.6
0.0097	0.0015	0.0052	0.027	48.5
0.0037	0.0052	0.0045	0.0285	48.3
0.0015	0.0045	0.0015	0.015	48.2
0.0015	-0.0008	0	0.0127	48.1
0.003	-0.0008	0.0022	0.0097	48
0.003	-0.0008	0.0045	0.0075	47.8
0.0045	-0.0068	0.0015	0.0082	47.7
0.0045	-0.0053	-0.0008	0.0105	47.6
-0.0008	-0.0053	-0.0008	0.0075	47.5
0	-0.0053	-0.0015	-0.0008	47.4
-0.003	-0.0053	-0.0023	0	47.2
-0.0015	-0.006	-0.003	0.0045	47.1
0.0045	-0.0015	0.0007	0.0052	46.9
0	-0.0008	0.0007	0.0007	46.8
0.0015	-0.003	0.0015	0.0045	46.6
0.003	0.0022	0.003	0.0015	46.4
0.0015	0.006	-0.0008	-0.0008	46.3
0.0037	0.0037	-0.0008	0.0075	46.1
0.006	0.0045	-0.0008	-0.0008	45.9
0.0067	0.0022	-0.0008	-0.0091	45.8
0.0052	0.0007	-0.0008	0.012	45.6
0.009	0.0015	-0.0008	0.0315	45.4
0.0105	-0.003	0.0022	0.006	45.3
0.0075	-0.003	0.0037	-0.0083	45.1
0.009	0.0015	0.0045	-0.0023	44.9
0.0067	0.003	0.006	-0.003	44.7
0.0007	-0.0008	0.0067	0.0022	44.6
-0.0015	-0.0015	0.0037	0.0022	44.4
-0.0023	-0.0008	0.0015	0.003	44.2
-0.003	0.0007	0	0.0015	44.1
0	0.0015	0	-0.0046	43.9
0.003	0.0022	-0.0008	-0.0053	43.7
0.0015	0	-0.0008	-0.0143	43.6
0.0037	-0.0015	-0.0008	-0.027	43.4
0.0015	-0.003	-0.0008	-0.0143	43.2
-0.0015	-0.0038	0	0.0082	43
0.0007	-0.0046	-0.003	0.012	42.8
-0.0015	-0.012	-0.0023	0.0045	42.7
-0.0038	-0.0128	0	0.0015	42.5
-0.0046	-0.0075	-0.0023	0.003	42.3
-0.0083	-0.003	-0.0046	-0.0091	42.1
-0.0068	0.0037	-0.0046	-0.0285	42
-0.0038	0.0082	-0.0008	-0.0218	41.8
0.003	0.018	0.0075	-0.0008	41.6
0.0067	0.0255	0.0127	0.006	41.4
0.012	0.018	0.015	0.0067	41.3
0.0142	0.009	0.012	0.0015	41.1
0.0082	0.0045	0.0082	-0.0075	40.9
0.0105	-0.0015	0.0082	-0.0165	40.7
0.0082	-0.003	0.0067	-0.0233	40.5
0.0045	-0.0038	0.0052	-0.0128	40.3
0.0045	-0.0068	0.003	0.006	40.2
0.003	-0.0083	0.003	-0.003	40
0.0007	-0.0083	0.0052	-0.0256	39.8
-0.0015	-0.0015	0.0007	-0.0203	39.6
-0.0008	0.0015	-0.0015	-0.0256	39.5
-0.0046	0.0045	-0.003	-0.0405	39.3
-0.0023	0.0037	-0.006	-0.0533	39.1
-0.0008	-0.0046	-0.0053	-0.0465	39
-0.003	-0.0038	-0.0053	-0.0218	38.8
0	0.0037	-0.0023	-0.03	38.6
-0.0053	0.0142	-0.0015	-0.0361	38.4
-0.0046	0.0112	-0.003	-0.0488	38.2
-0.0053	-0.0015	-0.0023	-0.0465	38.1
-0.0068	-0.0046	-0.0015	-0.0383	37.9
-0.003	-0.0068	-0.003	-0.0361	37.7
-0.0015	-0.0038	-0.0038	-0.0233	37.6
-0.0008	-0.0015	-0.0008	-0.0195	37.4
0.0007	-0.003	0.0007	-0.0046	37.2
0.0067	-0.0008	0.0022	0.003	37
0.0082	0.0007	0.0007	0.0067	36.8
0.0075	-0.0008	0.0022	0.012	36.7
0.009	-0.0015	0.003	0.015	36.5
0.0045	-0.0008	0.0037	0.015	36.3
0.0037	0.0007	0.0045	0.0157	36.1
0.0045	0	0.003	0.015	35.9
0.003	0.0007	0.0045	0.0075	35.7
0.0045	0.0015	0.0015	0.0037	35.5
0.0022	0.0007	0.0015	0.003	35.4
0.0015	0.0007	0.0007	0.0037	35.2
0.0015	0.0015	-0.0038	0.003	35
-0.0008	0.0007	-0.0038	0.0015	34.8
0.0015	0.0015	-0.0015	0	34.6
-0.0008	0.0022	-0.003	0.006	34.4
0	0.0007	-0.003	0.009	34.2
0	0.0015	0	0.0067	34.1
-0.0008	0.0052	-0.0008	0.009	33.9
0.0022	0.0052	0	0.0052	33.7
0.0007	0.0022	-0.0015	0.003	33.5
-0.0015	0.0007	-0.0015	0.0007	33.3
-0.0068	0.0007	-0.0008	0.0022	33.1
-0.0091	0.0015	0.0015	0.0037	32.9
-0.0038	0.0007	0.0007	0.0045	32.7
0.0052	0.0015	0.0015	0.0045	32.5
0.0082	0.0015	0.0007	0.0045	32.3
0.0045	0.0007	-0.0008	0.006	32
0.0052	0.0007	0.0007	0.0105	31.9
0.006	0	0	0.0165	31.6
0.0045	0.0015	-0.0015	0.0202	31.4
0.0052	0	-0.0015	0.0217	31.2
0.0067	0	0.0007	0.021	31
0.0067	0.0015	0.0015	0.027	30.8
0.0075	0.0015	0.003	0.0277	30.6
0.0082	-0.0008	0.0022	0.0255	30.4
0.0052	-0.0038	0.0015	0.0217	30.1
0.0067	-0.0015	0.0015	0.021	29.9
0.0075	0.0007	0.0037	0.0217	29.7
0.006	0.0007	0.003	0.0202	29.5
0.0105	0.0022	0.0007	0.0202	29.3
0.012	0.0015	0.003	0.0165	29.1
0.0105	0	0.0022	0.0135	28.8
0.0067	-0.0015	-0.0008	0.0075	28.7
0.0015	0	-0.003	0.0045	28.5
0.0007	-0.0023	-0.0046	0.0052	28.3
-0.0008	-0.003	-0.0008	0.0052	28.1
0.0007	-0.003	-0.0053	0.0067	27.9
0.0015	-0.0068	-0.0068	0.0015	27.7
0.003	-0.003	-0.0053	0.0022	27.4
0.0052	-0.0046	-0.0046	0.0007	27.3
0.003	-0.0053	-0.0038	0.0007	27
0.0015	-0.0053	-0.0053	0.0037	26.8
0.0045	-0.003	-0.0008	0.0082	26.6
0.0045	-0.0015	-0.0008	0.0135	26.4
0.0022	-0.003	-0.0008	0.012	26.2
0.0007	-0.0015	-0.0023	0.012	26
0	-0.0008	-0.0046	0.0135	25.8
0	0.0015	-0.0046	0.012	25.6
-0.003	0.0007	-0.0038	-0.003	25.4
-0.0015	-0.0015	-0.0023	-0.0195	25.2
-0.0008	-0.0015	-0.003	-0.0046	25
-0.0008	-0.006	0	0.0127	24.7
0.003	-0.0083	0.0015	0.0105	24.6
0.0007	-0.0083	0.0022	0.0247	24.5
-0.0008	-0.0083	0.003	0.0247	24.3
0.0037	-0.003	0.0022	0.0075	24.2
0.0067	-0.003	0.0045	0.0067	24
0.0075	-0.0046	0.0007	-0.0015	23.8
0.0067	-0.006	0.0007	-0.0046	23.7
0.003	-0.0068	0.0007	-0.0075	23.5
0.0015	-0.0038	-0.0008	-0.0105	23.4
0.0015	0.0045	-0.0008	-0.012	23.2
-0.0038	0.0127	-0.003	-0.0165	23
-0.0053	0.012	-0.0038	-0.0195	22.9
-0.0053	0.0052	-0.0046	-0.0233	22.7
-0.003	-0.0008	-0.003	-0.0285	22.5
-0.0015	-0.0046	-0.0015	-0.0323	22.4
-0.0008	-0.006	0	-0.0338	22.2
0.0015	-0.0075	0.0015	-0.0353	22
0.0037	-0.0083	0.0045	-0.0285	21.9
0.0052	-0.0038	0.009	-0.021	21.7
0.006	-0.0015	0.009	-0.0105	21.5
0.0052	-0.0046	0.006	0.0045	21.4
0.003	-0.0023	0.003	0.0195	21.2
0.003	0.0007	0.003	0.0262	21
0.0022	0.0007	0.003	0.0157	20.8
0.0015	0.0007	0.0045	0.003	20.7
0.0022	0.003	0.0037	-0.0165	20.5
0	0.003	-0.0015	-0.024	20.3
0.0007	0.003	0.0015	-0.0091	20.1
0.003	0.0015	0.0045	-0.0068	19.9
0.0015	-0.0015	0.0045	-0.0008	19.8
0.0015	-0.003	0.0045	-0.003	19.6
-0.0015	-0.0046	0	-0.0038	19.4
-0.0053	-0.003	-0.0008	0.0052	19.2
-0.0053	-0.0023	-0.0015	0.0037	19
-0.003	-0.0015	-0.0008	0.0105	18.9
-0.0008	-0.0008	0	0.0097	18.7
0.003	0.0007	-0.0008	0.012	18.5
0.0022	0.0015	0.0045	0.0142	18.3
0.0007	0.0015	0.0067	0.0142	18.1
0.0022	0.0007	0.0045	0.0195	17.9
0.0015	0.0007	0.0045	0.0157	17.8
0.0015	0.0007	0.0045	0.018	17.6
0.0007	-0.0008	0.0045	0.0165	17.5
0.0015	0.0015	0.0015	0.0165	17.3
-0.0015	0.0015	-0.0008	0.0202	17.1
-0.0008	0.0015	-0.0008	0.0217	17
-0.0008	0.0015	-0.0015	0.0315	16.8
-0.0023	0.0007	-0.0008	0.045	16.6
0.0015	0.0007	0.0007	0.0645	16.5
0.0045	0.0007	0.0015	0.09	16.3
0.0075	0.0015	0.0007	0.1155	16.1
0.009	0.003	0.0015	0.1395	16
0.0075	0.0052	0.0007	0.165	15.8
0.0015	0.0052	0	0.1837	15.6
0.0007	0.0052	0	0.1935	15.4
-0.003	0.0052	-0.0008	0.189	15.3
-0.0023	0.0022	-0.0015	0.1665	15.1
0	0.003	0.0007	0.1282	14.9
-0.0023	0.003	0.003	0.0817	14.8
0.0015	0.003	0.003	0.0307	14.6
0.0052	0.0045	0.0022	-0.015	14.5
0.006	0.0052	0.0015	-0.0533	14.4
0.0045	0.0045	0.0015	-0.0788	14.2
0.009	0.0045	0.0015	-0.099	14.1
0.0097	0.0052	0.0015	-0.1095	13.9
0.0082	0.003	0.003	-0.108	13.8
0.009	0.0045	0.003	-0.1073	13.7
0.0052	0.0082	0.003	-0.105	13.5
0.0067	0.0082	0.0037	-0.1043	13.4
0.0037	0.006	0.0037	-0.0938	13.2
-0.003	0.003	0.0045	-0.0856	13.1
-0.0105	0.0037	0.0052	-0.0856	13
-0.012	0.0045	0.0052	-0.0721	12.8
-0.0075	0.0015	0.0037	-0.0578	12.7
-0.0068	0.0015	0.0045	-0.0533	12.6
-0.0046	0.0015	0.0015	-0.048	12.4
-0.0015	0	-0.0008	-0.0465	12.3
-0.0015	-0.0008	0.0007	-0.0465	12.1
-0.003	-0.0023	0.0007	-0.0473	12
-0.0015	-0.0046	0.0015	-0.0503	11.8
-0.003	-0.0046	0.003	-0.0525	11.8
-0.0008	-0.0038	0.0015	-0.0503	11.7
0.003	-0.003	0.0022	-0.039	11.6
0.0037	-0.003	-0.0015	-0.027	11.4
0.003	-0.003	-0.003	-0.0158	11.3
-0.0008	-0.0015	-0.0023	-0.0068	11.2
-0.0023	-0.003	-0.0008	-0.0015	11.1
-0.0023	-0.0008	0.0007	0.003	11
-0.0008	0.0007	0.0015	0.0007	10.9
0.0015	0.0007	0.0045	0.003	10.8
0.0007	0.0007	0.003	0.0007	10.7
0.006	-0.0038	0.003	-0.003	10.6
0.0082	-0.0053	0.0015	-0.0008	10.5
0.012	-0.006	0.0015	-0.0053	10.3
0.012	-0.0091	0.003	-0.0098	10.3
0.0067	-0.0068	0.003	-0.0143	10.2
0.0067	-0.0053	0.0045	-0.0218	10
0.0045	-0.0068	0.0007	-0.03	9.9
0.0022	-0.0068	-0.0023	-0.0361	9.8
0.003	-0.006	0.0022	-0.0368	9.7
0.0045	-0.0038	0.0015	-0.0368	9.6
0.0037	-0.0015	0.0015	-0.0353	9.5
0.0037	0	0	-0.0368	9.4
0.0052	-0.0015	-0.0015	-0.0383	9.4
0.0045	-0.0015	-0.0015	-0.0405	9.3
0.0037	0	-0.003	-0.033	9.2
0.0045	-0.0008	-0.0008	-0.0293	9.1
0.0067	0.0015	0.0015	-0.0278	9
0.006	0	-0.0008	-0.0218	8.9
0.0045	-0.003	-0.0038	-0.0203	8.8
0.0037	-0.0015	-0.0053	-0.0143	8.7
0.0007	-0.0023	-0.0068	-0.0105	8.6
-0.0008	-0.0015	-0.0046	-0.0068	8.5
-0.0008	-0.0015	-0.0046	-0.0046	8.5
-0.0015	-0.003	-0.0046	-0.0023	8.4
-0.0023	-0.003	-0.0046	-0.0008	8.3
0.0015	-0.0023	-0.0053	-0.0015	8.2
0.0015	-0.0008	-0.0015	0.0067	8.1
0.0052	0	-0.0023	0.0142	8
0.0105	-0.0023	-0.003	0.0277	7.9
0.0052	-0.003	-0.0008	0.0442	7.8
0.0037	-0.0038	-0.003	0.0547	7.7
0.006	-0.0038	-0.0053	0.0697	7.6
0.006	-0.0008	-0.0015	0.0885	7.6
0.0067	0.0007	-0.0008	0.09	7.5
0.0045	-0.0008	-0.0008	0.078	7.4
0.0015	-0.0015	-0.0015	0.0705	7.3
0.0007	-0.0038	-0.0023	0.0577	7.2
0.0007	-0.0046	-0.0008	0.048	7.2
-0.0008	-0.0008	-0.0015	0.0382	7.1
0.0015	0.0007	-0.0015	0.0345	7
0.0015	0.003	-0.0008	0.0397	6.9
0.0007	0.0045	-0.0008	0.0285	6.8
0.0015	0.0052	-0.0023	0.009	6.7
-0.0015	0.0037	-0.0053	-0.0008	6.7
-0.0038	0.0007	-0.0023	-0.0105	6.6
-0.0046	-0.0015	-0.0023	-0.0203	6.5
-0.0068	-0.0015	-0.003	-0.0218	6.4
-0.0046	0.0015	-0.0038	-0.0293	6.3
0.0015	0.0007	0.0015	-0.0293	6.2
0.0052	0.0007	0.0082	-0.0233	6.2
0.0105	0	0.0105	-0.0195	6.2
0.0105	-0.003	0.009	-0.024	6.1
0.0067	-0.0023	0.0067	-0.0285	6
0.0067	-0.0008	0.0052	-0.0323	6
0.003	-0.0008	0.003	-0.0383	5.9
0.003	0.0007	0.0037	-0.0346	5.9
-0.0015	0.0007	0.003	-0.039	5.8
-0.0023	0.0007	0.0015	-0.0315	5.8
-0.0008	0.0007	-0.0015	-0.0293	5.7
-0.0008	0.0007	-0.0046	-0.0346	5.7
0.0022	0.003	-0.0053	-0.0368	5.6
0.0022	0.0015	-0.0068	-0.0405	5.5
0.0007	-0.0015	-0.0046	-0.045	5.5
0.0015	-0.0053	-0.0023	-0.0555	5.4
0	-0.006	-0.0023	-0.054	5.4
-0.0015	-0.003	-0.0023	-0.0593	5.3
-0.0008	-0.0015	-0.0046	-0.0623	5.3
-0.003	-0.003	-0.006	-0.0683	5.2
-0.0023	-0.0053	-0.0046	-0.0833	5.1
-0.0015	-0.0023	-0.0015	-0.0863	5.1
-0.0008	0	-0.0015	-0.096	5.1
0.0022	0	0.0007	-0.0938	5
0.003	-0.0015	0.0022	-0.0803	5
0.0045	0.0015	0.003	-0.042	5
0.0045	0.0067	0.0052	-0.003	4.9
0.003	0.0015	0.0052	-0.0143	4.9
0.003	-0.0015	0.0045	-0.0195	4.9
0.003	0.0015	0.0022	-0.033	4.8
-0.0008	0.003	0.0007	-0.0511	4.8
-0.0015	0.0097	0.0015	-0.0503	4.8
-0.0008	0.015	0	-0.057	4.7
-0.0008	0.009	-0.0008	-0.0533	4.7
0.0015	0.0015	-0.003	-0.048	4.6
0.0045	0.0007	-0.0046	-0.042	4.6
0.0015	0.0007	-0.0015	-0.0495	4.5
0.0007	-0.0008	0.0022	-0.054	4.5
0.0045	-0.0023	0.0067	-0.048	4.5
0.0037	-0.0075	0.0082	-0.0495	4.5
0.0075	-0.0091	0.006	-0.0413	4.4
0.0105	-0.0038	0.006	-0.042	4.4
0.0067	-0.0015	0.0045	-0.0428	4.4
0.0045	-0.0015	0	-0.0525	4.3
0.0015	-0.0015	0	-0.063	4.3
0.0045	0.0015	0.0015	-0.048	4.3
0.0082	0.0067	0.003	-0.0203	4.3
0.0067	0.006	0.0015	0.0052	4.3
0.0045	0.0022	0.0045	0.0075	4.2
0.0075	-0.0008	0.0082	0.009	4.2
0.0075	-0.0008	0.0082	0.006	4.2
0.0082	-0.0015	0.0067	0.0007	4.2
0.0082	-0.0008	0.0052	0.0105	4.1
0.003	-0.0023	0.006	0.0187	4.1
0	-0.006	0.0052	0.0195	4.1
0.0007	-0.0046	0.0052	0.0255	4
0.0022	-0.003	0.0037	0.0442	4
0.0007	-0.0023	0.0045	0.0442	4
-0.0008	-0.0015	0.0037	0.0367	4
-0.0053	-0.0015	0.0045	0.0367	4
-0.003	0.0015	0.0045	0.0382	3.9
-0.0008	-0.0008	0	0.0427	3.9
0	-0.0015	0.0015	0.0435	3.9
0.0015	0.0007	-0.003	0.048	3.9
-0.0023	-0.0008	-0.0053	0.0525	3.9
-0.003	0.0007	-0.0053	0.0427	3.9
-0.0023	0.0007	-0.0068	0.0225	3.9
0	0.0007	-0.006	0.0277	3.9
0.0015	0.0015	-0.0068	0.0405	3.9
0.0015	-0.0015	-0.0046	0.0495	3.9
0.0022	-0.0008	-0.0015	0.066	3.9
0	0.0007	-0.0015	0.0622	3.9
-0.0023	-0.0053	0	0.0787	3.9
-0.0023	-0.0105	0.0037	0.0915	3.9
-0.0008	-0.0098	0.0067	0.096	3.9
0.0022	-0.0098	0.0045	0.084	3.9
0.003	-0.0083	0.0015	0.0487	3.9
0.0015	-0.0053	0.0007	0.057	3.9
-0.0015	-0.0038	-0.0008	0.0547	3.9
-0.0008	-0.0015	0	0.0525	3.9
0.0007	-0.0015	0	0.0472	3.9
-0.0008	-0.0023	-0.0008	0.039	4
0.0015	-0.0008	-0.0008	0.0427	4
0.0015	-0.0068	-0.0046	0.0277	4
0.0022	-0.0181	-0.0083	0.018	4
-0.0008	-0.0256	-0.0091	0.0157	4
0.0007	-0.0218	-0.0046	0.0292	4.1
0.003	-0.0143	-0.0015	0.0292	4.1
0.0007	-0.015	-0.0015	0.0112	4.1
0.0007	-0.0158	0	-0.0105	4.1
0.0015	-0.012	0.0007	-0.045	4.2
0	-0.0135	0.0015	-0.0728	4.2
0.0015	-0.0173	0	-0.096	4.2
0.0075	-0.0083	0.0015	-0.0968	4.3
0.0067	0.0142	0.003	-0.0863	4.3
0.0082	0.0382	0.0037	-0.0758	4.3
0.0082	0.0555	0.003	-0.0578	4.4
-0.003	0.0675	0.0022	-0.0436	4.4
-0.0091	0.0667	0.0015	0.0607	4.4
-0.0008	0.0547	0.0045	0.2565	4.4
0.0082	0.0202	0.0052	0.2707	4.5
0.0142	0.003	0.006	0.171	4.5
0.0157	0.0262	0.0075	0.1012	4.5
0.0135	0.0255	0.006	-0.0158	4.5
0.0142	-0.0053	0.003	-0.0578	4.5
0.0105	-0.0143	0.0045	-0.0825	4.6
0.0105	-0.0218	0.0067	-0.078	4.6
0.0082	-0.0398	0.003	-0.0608	4.6
0.003	-0.0436	-0.0008	-0.0263	4.6
0.0007	-0.0405	0.0007	0.1027	4.7
-0.0015	-0.0181	0.003	0.1642	4.7
-0.0053	-0.0248	0.0052	0.1057	4.7
-0.0075	-0.048	0.0052	0.018	4.8
-0.0091	-0.0368	0.0015	-0.0383	4.8
-0.0128	-0.0375	-0.003	-0.1013	4.8
-0.0091	-0.0308	-0.0046	-0.1155	4.8
-0.006	-0.0068	-0.0053	-0.1118	4.9
-0.006	0.0082	-0.0083	-0.1163	4.9
-0.0023	0.0217	-0.0068	-0.1006	4.9
0	0.036	-0.0023	-0.0975	4.9
0.0007	0.0675	0.003	-0.0908	4.9
0.003	0.075	0.0067	-0.0975	4.9
0.0045	0.0435	0.0022	-0.096	5
0.0022	0.0142	0	-0.066	5
0.0022	0	0	0.024	5
0.0015	0.0052	0	0.0667	5
-0.0008	0.0007	0.0007	0.0127	5.1
0.0037	-0.0173	-0.0015	-0.0278	5.1
0.0105	-0.0346	-0.0038	-0.0765	5.1
0.0165	-0.0503	-0.006	-0.0968	5.1
0.0217	-0.075	-0.0053	-0.1035	5.2
0.0217	-0.099	-0.006	-0.1426	5.2
0.018	-0.0923	-0.006	-0.1785	5.2
0.0172	-0.0803	-0.003	-0.1785	5.2
0.0135	-0.0863	-0.0015	-0.0818	5.2
0.0112	-0.0856	0.0007	0.0195	5.3
0.0105	-0.0533	0.003	0.0232	5.3
0.0082	-0.0181	0.0045	-0.0075	5.3
0.0037	-0.0428	0.003	-0.0308	5.3
0.003	-0.0555	0.0052	-0.054	5.3
0.003	0.0562	0.0052	-0.0555	5.3
-0.0008	0.2152	0.0052	-0.0488	5.3
-0.0075	0.3022	0.0007	-0.0308	5.3
-0.012	0.2287	-0.0046	-0.0315	5.3
-0.0195	0.1275	-0.0046	-0.0795	5.3
-0.024	0.1522	-0.0083	-0.1035	5.3
-0.0203	0.0712	-0.0083	-0.1043	5.3
-0.0188	-0.0015	-0.0068	-0.0893	5.3
-0.015	-0.0256	-0.0046	-0.0353	5.3
-0.0128	-0.078	0.0045	0.078	5.3
-0.012	-0.027	0.0105	0.1822	5.3
-0.0083	-0.0256	0.0127	0.1785	5.3
-0.0105	-0.0225	0.009	0.096	5.3
-0.0128	0.003	0.006	-0.0225	5.3
-0.0105	0.009	0.0045	-0.126	5.3
-0.0083	0.0157	0.0015	-0.108	5.3
-0.0023	-0.015	0.0037	0.015	5.3
0.0045	-0.0091	0.0082	0.1455	5.3
0.0052	0.0022	0.012	0.1515	5.2
0.006	-0.0128	0.0127	0.1237	5.2
0.0082	-0.0203	0.0142	0.2205	5.2
0.009	0.0007	0.018	0.3667	5.2
0.0105	0.0007	0.0187	0.3555	5.2
0.0067	-0.1028	0.012	0.183	5.2
0.0067	-0.1875	0.006	0.0772	5.2
0.006	-0.1463	0.0015	-0.0053	5.2
0.003	-0.108	-0.0008	-0.0645	5.2
0.0045	-0.0533	-0.0008	-0.0578	5.2
0.0052	-0.003	-0.0075	0.0045	5.2
0.0097	0.0127	-0.0075	0.0892	5.2
0.012	0.0705	0	0.12	5.3
0.0172	0.1237	0.0022	0.1867	5.3
0.0165	0.1552	0.0015	0.2587	5.3
0.0127	0.1327	-0.0015	0.2752	5.3
0.0127	0.1155	-0.0015	0.2122	5.3
0.009	0.0697	-0.0046	0.15	5.3
0.0082	0.0075	-0.0098	0.1065	5.3
0.0067	-0.0068	-0.0105	0.0525	5.3
0.0015	-0.0173	-0.0135	0.0577	5.3
0.0015	-0.012	-0.0165	0.0292	5.3
-0.0008	-0.0143	-0.0158	0.03	5.3
-0.0015	0.009	-0.0158	0.0202	5.4
0.0007	0.0232	-0.0158	-0.003	5.5
0.003	0	-0.0143	0.0022	5.6
0.0015	-0.0143	-0.0165	-0.0023	5.7
-0.0015	-0.024	-0.0135	0.0165	5.8
-0.0053	-0.024	-0.0128	0.0142	5.8
-0.0083	-0.0256	-0.0143	0.0277	5.9
-0.0068	-0.0233	-0.0143	0.024	6
-0.006	-0.0195	-0.0135	0.0292	6.1
-0.0053	-0.0195	-0.0113	0.0367	6.2
-0.0075	-0.0188	-0.0128	0.048	6.3
-0.0068	-0.0181	-0.0105	0.0585	6.3
-0.0068	-0.015	-0.0068	0.03	6.4
-0.006	-0.0158	-0.0105	0.0172	6.5
-0.0008	-0.0173	-0.012	-0.0008	6.6
0.003	-0.0181	-0.012	-0.006	6.7
0.003	-0.0165	-0.012	0.0007	6.7
0.0015	-0.0218	-0.0105	0.0082	6.8
-0.0008	-0.0278	-0.0143	0.0112	6.9
-0.0038	-0.027	-0.0143	-0.0256	7
-0.0053	-0.0233	-0.0143	-0.0593	7.1
-0.0015	-0.0158	-0.0143	-0.1103	7.1
-0.003	-0.0105	-0.0105	-0.21	7.2
-0.0068	-0.015	-0.0068	-0.183	7.2
-0.0038	-0.0135	0.0022	0.0435	7.2
0.0007	-0.012	0.0105	0.2212	7.2
0.0067	-0.021	0.0142	0.2272	7.3
0.009	-0.0263	0.0157	0.1537	7.3
0.0097	-0.0105	0.009	0.063	7.4
0.009	0.0045	0.0082	0.027	7.4
0.009	0.0307	0.012	-0.0105	7.4
0.0127	0.0615	0.0082	-0.1095	7.5
0.0105	0.063	-0.0008	-0.1965	7.5
0.003	0.081	-0.0046	-0.1418	7.6
-0.0038	0.0885	-0.0053	-0.0975	7.6
-0.0083	0.06	-0.0046	-0.2153	7.6
-0.0091	0.0495	-0.0023	-0.2033	7.6
-0.0083	0.0472	0.0112	0.0052	7.7
-0.003	0.039	0.0315	0.2752	7.7
-0.0008	-0.0046	0.0457	0.3075	7.8
0.006	-0.0443	0.0465	0.09	7.8
0.0082	-0.0256	0.039	0.0022	7.7
0.0037	-0.0165	0.0292	0.0457	7.7
0.0052	-0.0263	0.0225	0.0975	7.6
0.0037	-0.0608	0.0157	0.0892	7.6
0.0015	-0.0893	0.0082	0.0832	7.6
0.0045	-0.0825	0.0045	0.063	7.5
0.003	-0.0645	-0.0015	0.0375	7.5
0.0022	-0.0023	-0.0008	0.0592	7.4
0.0052	0.036	0.0015	0.0795	7.4
0.0052	0.0315	0.003	0.0645	7.4
0.009	0.021	0.0112	0.018	7.3
0.009	0.0195	0.015	-0.0015	7.3
0.0037	0.027	0.0142	0.0637	7.2
0.0045	0.0142	0.012	0.1867	7.2
0.0075	-0.012	0.0105	0.1312	7.2
0.0052	-0.0398	0.0082	0.0585	7.1
0.003	-0.0361	0.003	0.0457	7.1
0.0007	-0.033	0.0007	0.018	7
0.0015	-0.0383	0	0.0165	6.9
0.003	-0.012	0	-0.0278	6.9
0.006	0.033	0.0007	-0.0428	6.9
0.009	0.057	-0.0015	-0.0278	6.9
0.0037	0.0577	-0.0053	0.0165	6.8
0.0045	0.0825	-0.0075	0.0487	6.8
0.0045	0.0877	-0.0105	0.039	6.7
0.0052	0.0532	-0.0128	0.0277	6.7
0.006	0.0232	-0.012	0.027	6.7
0.0045	0.0082	-0.0105	-0.0008	6.7
0.0067	-0.0105	-0.0128	-0.033	6.6
0.0067	-0.0181	-0.0143	-0.0465	6.6
0.0067	-0.0195	-0.0165	-0.0683	6.5
0.0015	-0.0263	-0.0203	-0.0721	6.5
0.0015	-0.0203	-0.0195	-0.0856	6.5
0.0045	-0.0203	-0.0195	-0.0878	6.4
0.0052	-0.0158	-0.0195	-0.0893	6.4
0.006	-0.0135	-0.021	-0.0945	6.3
0.0052	-0.0143	-0.0248	-0.0923	6.3
0.0015	-0.0143	-0.0225	-0.0968	6.3
-0.0023	-0.0165	-0.0203	-0.093	6.2
-0.0008	-0.012	-0.0203	-0.09	6.2
-0.0015	-0.0105	-0.0195	-0.0825	6.3
-0.003	-0.0105	-0.0195	-0.0788	6.3
-0.0046	-0.0128	-0.0165	-0.0743	6.3
-0.0008	-0.0143	-0.015	-0.0706	6.3
-0.0015	-0.0135	-0.0135	-0.0683	6.3
-0.0053	-0.0128	-0.0128	-0.0623	6.3
0.0007	-0.012	-0.0143	-0.0578	6.4
-0.0023	-0.0105	-0.012	-0.0533	6.4
0.003	-0.0105	-0.0091	-0.0533	6.4
0.0067	-0.0091	-0.0105	-0.0653	6.4
0	-0.0075	-0.0113	-0.0788	6.5
-0.0015	0.0007	-0.0105	-0.1088	6.5
-0.006	0.0015	-0.0053	-0.1515	6.5
0.0022	-0.0083	-0.0008	-0.1275	6.6
0.0052	-0.0105	0.003	-0.027	6.6
0.0007	-0.0113	0.0037	0.084	6.6
-0.0015	-0.015	0.0052	0.1252	6.6
-0.0053	-0.0195	0	0.054	6.7
-0.0053	-0.015	-0.0015	-0.0083	6.7
-0.0098	-0.0068	0.0015	-0.0413	6.7
-0.0068	-0.003	0.0037	-0.0878	6.7
-0.0053	0.0165	0.009	-0.1006	6.7
-0.0128	0.0157	0.009	-0.0833	6.7
-0.0083	-0.012	0.0112	-0.0788	6.7
-0.003	-0.0068	0.0105	-0.093	6.7
0.0037	0.0045	0.0097	-0.078	6.7
0.0052	-0.0015	0.0105	-0.0803	6.7
0.0045	0.0082	0.009	-0.0856	6.7
0	0.0015	0.0082	-0.0893	6.7
-0.0023	-0.0053	0.0097	-0.1013	6.7
-0.0015	0.003	0.0097	-0.1065	6.7
-0.0053	0.0157	0.0097	-0.0975	6.7
0.0007	0.0277	0.0112	-0.084	6.7
-0.0008	0.0142	0.0112	-0.0803	6.6
0.0037	0.003	0.012	-0.0555	6.6
0.0082	-0.003	0.0135	-0.0608	6.6
-0.0053	-0.0091	0.012	-0.0721	6.6
-0.003	-0.0075	0.012	-0.0765	6.6
0.003	-0.012	0.0112	-0.093	6.6
-0.0015	-0.0143	0.009	-0.093	6.6
0.0007	-0.0181	0.0127	-0.0968	6.6
0.0015	-0.0256	0.0127	-0.084	6.6
0.0082	-0.0263	0.0105	-0.081	6.5
0.009	-0.03	0.0097	-0.0803	6.5
0.009	-0.03	0.009	-0.0825	6.5
0.0037	-0.0233	0.012	-0.093	6.5
-0.003	-0.0083	0.0127	-0.0848	6.4
0.0037	0.015	0.018	-0.0788	6.4
0.0052	0.0367	0.0217	-0.0578	6.4
0.009	0.0682	0.0247	-0.0008	6.4
0.0105	0.0787	0.0277	0.0195	6.4
0.0045	0.048	0.027	-0.0285	6.3
0.0045	0.0202	0.0315	-0.0653	6.3
0.0097	0.0082	0.033	-0.0743	6.3
0.0105	0.0022	0.0345	-0.0691	6.3
0.009	-0.0015	0.039	-0.0383	6.3
0.0127	-0.0113	0.042	-0.0458	6.3
0.0142	-0.0225	0.0435	-0.0848	6.2
0.018	-0.0256	0.042	-0.0908	6.2
0.018	-0.0203	0.0352	-0.1118	6.2
0.0142	-0.0218	0.0277	-0.108	6.2
0.0127	-0.024	0.024	-0.0975	6.2
0.0105	-0.0285	0.0202	-0.1028	6.2
0.0105	-0.024	0.018	-0.0825	6.2
0.015	-0.006	0.0165	-0.0675	6.2
0.021	0.0045	0.0157	-0.054	6.2
0.0202	0.0067	0.0127	-0.0353	6.2
0.0195	0.006	0.0082	-0.0008	6.2
0.0165	0.003	0.0067	0.0202	6.2
0.015	0.0082	0.0067	0.0202	6.2
0.015	0.0082	0.0067	0.027	6.2
0.0097	0.006	0.0015	0.0307	6.2
0.0067	0.0052	-0.0008	0.0397	6.2
0.0045	0.0007	-0.0015	0.0457	6.2
0.0015	0.0022	-0.0046	0.0502	6.2
-0.0015	0.0135	-0.0053	0.0502	6.2
0.0007	0.0255	-0.0083	0.0495	6.2
-0.0008	0.0127	-0.0083	0.0615	6.2
-0.0038	0.0142	-0.0091	0.0697	6.2
-0.0023	0.0315	-0.0105	0.078	6.2
-0.003	0.0225	-0.012	0.09	6.2
-0.0046	0.012	-0.015	0.0952	6.2
-0.0053	0.0105	-0.0143	0.1027	6.1
-0.0053	0.0075	-0.0173	0.1065	6.1
-0.006	0.0067	-0.0181	0.1102	6.1
-0.0068	0.003	-0.0143	0.1177	6.1
-0.0083	0	-0.0165	0.1215	6.1
-0.0105	0.0007	-0.0165	0.1237	6
-0.0083	-0.0015	-0.0165	0.1275	6
-0.0105	-0.006	-0.0165	0.1305	6
-0.0083	-0.012	-0.0143	0.1267	6
-0.0023	-0.0158	-0.0143	0.123	6
-0.0015	-0.0105	-0.012	0.1215	5.9
0.0007	-0.0068	-0.012	0.12	5.9
-0.0015	-0.0008	-0.012	0.1207	5.9
-0.0038	0.0037	-0.012	0.123	5.9
-0.003	0.0015	-0.012	0.1177	5.9
-0.003	0.0007	-0.012	0.114	5.8
-0.0023	0.0082	-0.0113	0.114	5.8
-0.0008	0.015	-0.0091	0.1125	5.8
-0.0023	0.0067	-0.0091	0.1065	5.8
-0.0008	0.0015	-0.0083	0.0967	5.8
0	0.0022	-0.0083	0.0772	5.8
0	-0.003	-0.0068	0.0652	5.9
0.0015	-0.0053	-0.0083	0.0772	5.9
-0.0015	-0.0053	-0.0091	0.0907	5.9
-0.0008	-0.0046	-0.006	0.108	5.9
0.0022	-0.0023	-0.0053	0.1185	5.9
0.003	0.0015	-0.0053	0.081	5.9
0.0052	0.0007	-0.0038	0.0442	5.9
0.009	-0.0008	0.0007	0.0337	6
0.009	-0.0038	-0.0008	0.0277	6
0.0045	-0.0091	-0.003	0.042	6
0.0015	-0.0098	-0.003	0.0555	6
0.0015	-0.0098	-0.0046	0.0472	6
0.0015	-0.0105	-0.0015	0.0315	6
0.0015	-0.0075	-0.0015	0.0202	6
0.0037	-0.0015	-0.0015	0.009	6.1
0.0045	0.0045	-0.0008	0.003	6.1
0.0052	0.0097	-0.003	0.0082	6.1
0.003	0.012	-0.0023	0.0112	6.1
0.0007	0.0105	-0.0015	0.0082	6.1
0.0015	0.0045	0.0015	0.0037	6.1
0	0.003	0.0045	-0.0046	6.1
0.003	-0.0008	0.0037	-0.012	6.1
0.003	-0.003	0.0045	-0.015	6.2
0.0015	-0.0038	0.0037	-0.0181	6.2
0.0045	-0.0046	0.0015	-0.0188	6.2
0.0015	-0.0023	0.0052	-0.0203	6.2
0.0015	-0.0008	0.0045	-0.021	6.2
0.0045	0.0015	0.0045	-0.021	6.2
0.0045	0.0022	0.0037	-0.0225	6.2
0.0045	0.0045	0.0015	-0.0233	6.3
0.0067	0.0015	0.0037	-0.0256	6.3
0	-0.0038	0.006	-0.0278	6.3
-0.0015	-0.0015	0.0037	-0.027	6.3
0.0015	-0.0015	0.0015	-0.0263	6.3
0.0015	-0.0015	0.0015	-0.0256	6.3
0.0022	0	0.0037	-0.0248	6.3
0.0015	-0.0008	0.0007	-0.0233	6.3
-0.0008	-0.0038	-0.0008	-0.0225	6.3
-0.003	-0.003	-0.0023	-0.0233	6.3
-0.0023	-0.003	-0.003	-0.021	6.4
0.0007	-0.003	-0.0015	-0.0203	6.4
0.0037	-0.0015	-0.0023	-0.0225	6.4
0.0067	-0.003	-0.0015	-0.021	6.4
0.0052	-0.0015	-0.003	-0.0218	6.4
0.0045	-0.003	-0.0038	-0.0218	6.5
0.0007	-0.003	-0.0023	-0.0195	6.5
-0.0046	0	-0.006	-0.0181	6.5
-0.0046	0.0015	-0.0053	-0.015	6.5
-0.0053	0.003	-0.0046	-0.0165	6.5
-0.0046	0.0015	-0.0046	-0.0143	6.6
-0.0038	0.0007	-0.0053	-0.0143	6.6
-0.0015	-0.0023	-0.006	-0.0135	6.6
-0.0038	-0.003	-0.003	-0.012	6.6
0	-0.003	-0.003	-0.0135	6.6
0.0007	-0.003	-0.0008	-0.012	6.7
-0.003	-0.003	-0.0008	-0.0128	6.7
0.0007	-0.0015	-0.0015	-0.0113	6.7
-0.0008	0.0007	-0.003	-0.0075	6.7
0.0007	0	-0.0053	-0.0105	6.7
0	0	-0.0038	-0.0135	6.7
-0.0008	-0.0008	-0.0046	-0.0165	6.7
0.0045	-0.0008	-0.0023	-0.0173	6.7
0.0052	-0.0015	-0.0008	-0.0188	6.7
0.0082	-0.0023	-0.0008	-0.021	6.7
0.0082	-0.0008	0.0015	-0.0195	6.7
0.0052	0.0007	-0.0023	-0.0165	6.7
0.0007	0.003	-0.0075	-0.0165	6.7
0.0007	0.0045	-0.0068	-0.0203	6.7
0.0052	0.0015	-0.0046	-0.0225	6.8
0.0045	-0.0023	0.0007	-0.024	6.8
0.003	-0.0046	0.0007	-0.0263	6.8
0.003	-0.0068	0.0022	-0.0278	6.8
0	-0.0091	0.0045	-0.0293	6.8
0	-0.0083	0.0022	-0.0263	6.8
0.0007	-0.0053	0.0015	-0.0256	6.8
0.0022	-0.0046	0.0015	-0.0278	6.8
0.0015	-0.003	0.0022	-0.0285	6.8
0.0007	0.0037	0.0045	-0.03	6.8
-0.0008	0.0082	0.003	-0.0315	6.8
-0.0015	0.006	0.0015	-0.0285	6.8
-0.0015	0.0022	0.0007	-0.0256	6.8
-0.006	-0.0015	0.0015	-0.027	6.8
0	-0.0046	0.003	-0.0248	6.8
0.0015	-0.0038	0.0015	-0.0256	6.8
0.0015	-0.0053	0.0007	-0.0278	6.8
0.0045	-0.0053	0.0022	-0.0278	6.8
0.0037	0	0.003	-0.0293	6.8
0.0007	0.003	0.0007	-0.027	6.8
0.0007	0.0022	-0.0015	-0.0263	6.8
0.0007	0	-0.0008	-0.0256	6.8
-0.0046	-0.0008	-0.0008	-0.0233	6.8
-0.0008	-0.0015	0.0015	-0.0218	6.8
-0.0023	-0.0015	-0.0008	-0.0188	6.8
0.0007	-0.003	-0.0015	-0.0188	6.8
0.006	-0.0046	-0.0008	-0.0158	6.8
0.0082	-0.0038	-0.0015	-0.012	6.8
0.009	-0.0038	0.0007	-0.0143	6.8
0.0082	-0.0023	-0.0008	-0.0105	6.8
0.0067	-0.0008	0.0007	-0.0105	6.8
0.0052	0.0007	-0.0008	-0.0098	6.8
0.0045	0.0007	-0.003	-0.0046	6.8
0.003	-0.0008	-0.0008	-0.0015	6.8
0.0007	-0.0008	-0.0038	0.0037	6.8
0.0007	0.003	-0.006	0.0112	6.8
-0.0015	0.0037	-0.0075	0.0202	6.8
-0.0015	0.003	-0.0083	0.018	6.8
0.0007	0.0045	-0.0068	0.018	6.8
-0.0008	0.0022	-0.0083	0.015	6.8
0.0015	0.0007	-0.006	0.0112	6.8
0.003	-0.0023	-0.0053	0.0135	6.8
-0.0008	-0.0046	-0.006	0.0127	6.8
0.003	-0.006	-0.003	0.0157	6.8
0.0052	-0.012	-0.0008	0.0232	6.8
0.0067	-0.0165	-0.0008	0.03	6.8
0.0067	-0.0158	0.0007	0.0277	6.8
0.0067	-0.0091	0.0007	0.0232	6.7
0.0052	0.0045	0.0007	0.0232	6.7
0.003	0.024	0.0015	0.0195	6.7
0.0045	0.0255	0.003	0.0202	6.7
0.003	0.0247	0.006	0.0232	6.7
0.0045	0.0367	0.003	0.0232	6.7
0.0045	0.024	-0.0008	0.0217	6.7
0.0015	0.003	-0.0008	0.018	6.7
0.003	0.0075	-0.0008	0.0127	6.7
0.0075	0.0045	0.003	0.0015	6.7
0.0045	-0.006	0.0037	-0.0083	6.7
0.0007	-0.0091	0.0045	-0.0046	6.7
0.0007	-0.0128	0.0045	0.003	6.7
0.0022	-0.0105	0.0022	0.0127	6.7
0.0015	-0.0098	0.0045	0.0112	6.7
-0.0008	-0.0113	0.003	0.0112	6.7
0.0015	-0.0083	0.0007	0.0105	6.7
0.003	-0.0015	0.003	0.0067	6.7
0.003	-0.0008	0.003	0.0082	6.7
0.0045	-0.0015	0.0015	0.006	6.7
0.0045	0.0007	-0.0008	0.0097	6.7
0	-0.0008	-0.0008	0.0097	6.7
-0.0015	0.0015	-0.0015	0.0067	6.7
-0.0046	0.0015	-0.0008	0.0067	6.7
-0.0046	-0.0008	0.0007	0.0052	6.7
-0.0008	0	0	0.0045	6.7
0.0007	-0.0015	0.0007	0.006	6.7
0.0007	-0.0008	-0.0008	0.0142	6.7
-0.0015	-0.0023	-0.0023	0.0187	6.7
-0.0008	-0.003	-0.0015	0.0097	6.7
0.0007	-0.0008	-0.0008	0.0052	6.7
0.0007	0	0.0015	0.0082	6.7
-0.0008	0.0022	0.0015	0.0052	6.7
0.0015	0.003	0.0007	0.006	6.7
0.003	0.0015	0.0007	0.0037	6.7
-0.0008	0.0015	-0.0008	0.0045	6.7
-0.0008	0.0045	0.0007	0.0045	6.7
0.0007	0.0037	0.0007	0.003	6.7
0.0015	0.0022	0.0007	0.0022	6.7
0.003	-0.0008	0.0037	-0.0008	6.7
0.003	0.0007	0.003	0.003	6.6
0.0022	0.0022	0.0022	0.0015	6.6
0.003	0.0015	0.0007	0.0015	6.6
0.0052	0.0015	-0.0008	0.003	6.6
0.0045	-0.0008	0.0007	0.0022	6.6
0.0045	-0.0015	0.0015	0.0007	6.6
0.0052	-0.0015	0.003	-0.0023	6.6
0.0007	-0.003	0.0045	-0.0038	6.5
0.0015	-0.0046	0.0045	-0.0083	6.5
0.0015	-0.006	0.0075	-0.0098	6.5
0.0007	-0.0053	0.0082	-0.012	6.5
0.0007	-0.006	0.0067	-0.0105	6.5
-0.0015	-0.0083	0.0082	-0.0068	6.4
0.0022	-0.0068	0.0045	-0.0023	6.4
0.003	0	-0.0008	0.003	6.4
0.0007	0.0052	-0.003	0.0075	6.4
0.003	0.0052	-0.0038	0.0082	6.4
0.0037	0.0067	-0.0015	0.003	6.3
0.0045	0.0082	0	0.003	6.3
0.0007	0.0082	-0.0015	0.003	6.3
0.0007	0.0045	-0.0015	0.0015	6.3
0.0022	-0.0015	0.0007	0.0007	6.3
0.003	0.0007	0.0007	-0.003	6.3
0.0045	-0.0008	0.0015	-0.0046	6.2
0	0	0.0015	-0.0046	6.2
0.0007	0.003	0.0015	-0.0046	6.1
-0.0038	0.0015	0.0015	-0.0053	6.1
-0.0068	0.0037	0	-0.0083	6.1
-0.0046	0.0045	0.0007	-0.0098	6
-0.0023	0.0007	0.0015	-0.0098	6
-0.0008	-0.015	0.0007	-0.0091	5.9
0	-0.0173	0.0007	-0.0075	5.9
-0.0008	-0.0105	-0.0008	-0.0053	5.9
-0.0053	-0.0143	0.0007	-0.0053	5.8
-0.0023	-0.012	-0.0008	-0.0015	5.8
0.0007	-0.012	-0.0015	0.0007	5.8
-0.0008	-0.0083	0.0007	0.0007	5.8
0.0037	0.0045	0.0007	-0.0023	5.7
0.0045	0.018	0.0022	-0.006	5.7
0.0052	0.024	0.0015	-0.0068	5.7
0.0067	0.0157	-0.0008	-0.006	5.6
0.0082	0.009	-0.0015	-0.0068	5.6
0.0067	0.0067	-0.0038	-0.006	5.6
0.0052	0.0007	-0.0046	-0.0083	5.5
0.0045	-0.003	-0.0053	-0.0068	5.5
0.003	-0.003	-0.0068	-0.0053	5.5
0.0052	-0.0046	-0.0038	-0.006	5.5
0.0045	-0.0053	-0.0038	-0.0046	5.4
0.0052	-0.0023	-0.0046	-0.0046	5.4
0.0052	-0.0008	-0.0053	-0.0023	5.4
0.0037	0	-0.0053	-0.0008	5.3
0.0082	0.0007	-0.003	-0.0008	5.3
0.0052	-0.0008	-0.003	0.0022	5.3
0.0045	-0.0008	-0.0015	0.003	5.3
0.0045	-0.0008	-0.0046	0.0037	5.3
0.0015	-0.003	-0.0008	0.003	5.3
0.0045	-0.0008	-0.0015	0.0037	5.2
0.0045	-0.0015	-0.0015	0.003	5.2
0.0052	-0.003	0	0	5.2
0.0075	-0.0046	-0.0008	-0.0015	5.2
0.0067	-0.0053	0.0015	-0.0023	5.1
0.0075	-0.003	0.0015	-0.003	5.1
0.003	-0.0023	0.003	-0.0023	5.1
0	0	-0.0015	0.003	5
-0.0015	0.0045	-0.006	0.0127	5
-0.0091	0.0075	-0.0091	0.015	5
-0.0068	0.009	-0.0105	0.0127	5
-0.0015	0.0075	-0.0083	0.0105	5
0.003	0.0045	-0.0083	0.0082	4.9
0.003	0.003	-0.0053	0.0067	4.9
0.0022	0.0015	-0.0038	0.0037	4.9
0.003	-0.0008	-0.0023	0.0045	4.9
0.003	-0.003	-0.0008	0.003	4.9
0.003	-0.003	-0.0008	0.0007	4.8
0	-0.0015	0.0015	0	4.8
0.0007	-0.0008	0	-0.0008	4.8
0.0015	0	0.0007	0.0015	4.8
0.0007	0.0007	0.0015	0.0045	4.8
-0.0023	0.003	-0.0015	0.0067	4.7
-0.0038	0.003	-0.0023	0.006	4.7
-0.0038	0	-0.0015	0.0045	4.6
-0.0023	-0.0023	0.0015	0.0015	4.6
0.003	-0.003	0.0007	0.0007	4.6
0.0045	-0.0008	0.003	-0.0008	4.6
0.0045	-0.0008	0.0045	-0.0015	4.6
0.0015	-0.003	0.0045	-0.003	4.5
0.003	-0.003	0.0022	-0.0053	4.5
0.0007	-0.0038	-0.0023	-0.0046	4.5
-0.003	-0.0046	-0.003	-0.0015	4.5
-0.003	-0.003	-0.003	0.0007	4.5
-0.0015	-0.0015	0.0007	0.0015	4.4
0.0015	-0.0015	-0.0008	0.0007	4.4
0.0015	0.0015	0.0007	-0.0015	4.4
0.0045	0.0037	0.0067	-0.0038	4.3
0.003	0.0007	0.0082	-0.0053	4.3
0.0015	0.0007	0.0082	-0.0068	4.3
0.0007	-0.0015	0.0082	-0.0068	4.2
-0.0008	-0.0023	0.0067	-0.0046	4.2
-0.0008	-0.0008	0.0007	0	4.2
-0.0046	0.0015	-0.0015	0.0037	4.2
-0.0046	0.0052	0.0007	0.0015	4.1
-0.003	0.0037	0.003	-0.0015	4.1
0.003	0.0015	0.0075	-0.003	4.1
0.0075	-0.0008	0.0097	-0.003	4.1
0.0052	-0.003	0.0112	-0.0015	4.1
0.0082	-0.0015	0.0127	-0.0008	4.1
0.009	-0.0053	0.0142	-0.0008	4.1
0.0105	-0.0105	0.0157	-0.0023	4.1
0.012	-0.0135	0.0165	-0.0008	4
0.0082	-0.0143	0.0172	-0.003	4
0.0082	-0.015	0.0172	-0.0053	4
0.0112	-0.0135	0.0187	-0.0046	4
0.0105	-0.0053	0.0165	-0.0015	4
0.0067	0.0015	0.0127	0.0022	4
0.003	0.015	0.009	0.0045	4
-0.003	0.0322	0.0067	0.0052	4
-0.0075	0.0255	0.0067	0.0067	4
-0.0068	0.012	0.0082	0.0037	4
-0.0046	0.0052	0.0082	0	4
0.0022	-0.0008	0.012	-0.0023	4
0.0067	-0.0015	0.0142	-0.0038	3.9
0.0052	-0.0038	0.015	-0.0053	3.9
0.0067	-0.003	0.0157	-0.006	4
0.006	-0.003	0.0165	-0.0068	4
0.003	-0.0038	0.0172	-0.0068	4
0.003	-0.0008	0.0172	-0.0075	4
0.0022	0	0.0142	-0.003	4
-0.0015	0.003	0.0075	0.0007	4
0.0007	0	0.0067	-0.0015	4
0.0022	-0.0008	0.0082	-0.0008	4
-0.0023	-0.0015	0.0045	-0.0053	4
0	-0.0038	0.0037	-0.0046	4
0.0045	-0.0053	0.0037	-0.0083	4.1
0.0007	-0.0105	0.003	-0.0105	4.1
0.0007	-0.0068	0.003	-0.0105	4.1
0.0015	-0.0038	0.003	-0.012	4.1
-0.0008	-0.003	0.003	-0.0128	4.1
-0.0023	-0.0015	0.0007	-0.0158	4.1
0	-0.0046	0.0015	-0.015	4.1
0	-0.0015	0.0015	-0.0143	4.2
0.0015	-0.0015	0.0007	-0.0165	4.2
0.003	-0.0015	0	-0.0135	4.2
0.0015	-0.0023	-0.0008	-0.012	4.2
0.0007	-0.003	0.0015	-0.0113	4.3
-0.0008	-0.0015	0.0022	-0.012	4.3
-0.0023	0.0007	0.003	-0.012	4.3
-0.0008	0	0.003	-0.0105	4.3
0.0022	-0.0015	0.0015	-0.0098	4.3
0.0037	-0.0015	0.0007	-0.0113	4.4
0.0045	-0.0015	-0.0008	-0.012	4.4
0.0045	-0.0015	-0.003	-0.0105	4.4
0.0052	-0.0023	-0.0023	-0.0098	4.4
0.0037	-0.0008	-0.0008	-0.012	4.5
0.0037	-0.0008	-0.003	-0.012	4.5
0.0007	-0.0008	-0.003	-0.0128	4.5
0.0015	0.0007	-0.003	-0.0143	4.5
0.0037	0	-0.0046	-0.0105	4.5
0.0015	0.0007	-0.0046	-0.0083	4.5
0.0007	-0.0015	-0.0038	-0.0068	4.6
0.0007	-0.0008	0	-0.006	4.6
0.0015	0.0007	0	-0.0075	4.6
0.0007	-0.0008	-0.0008	-0.0068	4.7
0	0	0.0007	-0.0068	4.7
0	-0.0015	-0.0008	-0.0083	4.8
0.0007	0.0007	-0.0015	-0.0053	4.8
0.0022	0.003	-0.0015	-0.0046	4.9
0.0007	0.003	-0.0023	-0.003	4.9
0.0045	0.0007	-0.0046	-0.0038	4.9
0.0037	0	-0.003	-0.0038	5
0.0007	-0.0023	-0.0008	0.0007	5
0.0007	-0.0015	-0.003	0.0015	5.1
-0.0008	0.0007	-0.0038	0.0015	5.2
0.0015	-0.0008	-0.0046	0.0045	5.2
0.0037	-0.0015	-0.003	0.0045	5.3
0.0037	-0.0038	-0.003	0.0052	5.3
0.0015	-0.0023	-0.0053	0.003	5.3
0.0015	-0.0008	-0.0046	0	5.4
0.0022	-0.0008	-0.0053	-0.0008	5.4
0.0015	0.0015	-0.006	0.0015	5.5
0.0007	-0.0015	-0.003	0.003	5.5
-0.0015	-0.0023	-0.0083	0.003	5.6
0.0022	-0.0008	-0.0083	0.003	5.6
0.0045	-0.0015	-0.0083	0.0022	5.7
0.0037	-0.0008	-0.0075	0.0022	5.8
0.0045	0.0007	-0.0091	0.0015	5.8
0.0045	-0.003	-0.0105	0.0022	5.9
0.0045	-0.0015	-0.012	0.0037	5.9
0.0022	0.0007	-0.0128	0.0052	6
0.0045	0.0015	-0.0091	0.0067	6
0.0067	0.0015	-0.0091	0.0075	6.1
0.0052	0.0015	-0.0105	0.0067	6.2
0.0052	0.0037	-0.012	0.0067	6.2
0.003	0.0022	-0.0128	0.0052	6.3
0	0.0015	-0.0128	0.0067	6.3
0.0022	0.0007	-0.0128	0.0082	6.4
0.0045	-0.0008	-0.0105	0.0105	6.5
0.0015	0.0022	-0.0113	0.0135	6.5
0.0015	0.0007	-0.0128	0.0142	6.6
0.0022	-0.0008	-0.0113	0.0142	6.6
0	-0.0008	-0.012	0.0127	6.7
-0.0008	-0.003	-0.012	0.0142	6.7
-0.0008	-0.0046	-0.012	0.0142	6.8
-0.0023	-0.0053	-0.012	0.0127	6.9
-0.003	-0.0046	-0.012	0.012	7
-0.0015	-0.0038	-0.012	0.009	7
-0.0015	-0.0008	-0.012	0.012	7.1
-0.0008	0.0045	-0.0091	0.0142	7.2
-0.0008	0.012	-0.0091	0.0127	7.2
0.0022	0.0172	-0.0091	0.0127	7.3
0.0052	0.012	-0.0105	0.012	7.4
0	0.0067	-0.0098	0.0105	7.5
0.0007	0.0045	-0.0098	0.0097	7.6
0.003	0.0007	-0.0105	0.0067	7.6
0.003	0.0007	-0.0105	0.0082	7.7
0.0015	0.0007	-0.0105	0.0082	7.7
-0.0008	0.0015	-0.0068	0.0075	7.8
-0.003	0.0007	-0.0068	0.009	7.9
-0.0015	0.0007	-0.0091	0.0067	8
-0.0008	-0.0008	-0.0083	0.0052	8.1
-0.0038	0	-0.0113	0.0037	8.1
-0.0053	0	-0.0128	0.0015	8.2
-0.0053	0.0007	-0.0098	0.003	8.3
-0.0038	0.0022	-0.0098	0.003	8.4
-0.0008	0	-0.0098	0.003	8.5
0.003	0.0007	-0.0083	0.003	8.5
0.0015	0.0007	-0.0083	0.0052	8.6
0.0052	-0.0008	-0.0083	0.0045	8.7
0.0037	0	-0.006	0.0045	8.8
0.0015	0.0007	-0.0023	0.0045	8.9
0.0015	0.0007	-0.003	0.0045	9
-0.0038	0.0015	-0.0015	0.0037	9.1
0.0007	0.0022	0	0.0007	9.2
0.0022	0.0015	-0.003	0.0007	9.3
0.003	0.0007	-0.0038	-0.0008	9.4
0.0052	0.0015	-0.0038	0.0015	9.4
0.0097	0.0015	-0.0046	0.0015	9.5
0.0105	0.0007	-0.0046	0.0007	9.6
0.006	0	-0.0053	0.0052	9.7
0.0082	0	-0.0046	0.0045	9.8
0.0015	0	-0.0053	0.0022	9.9
0.0022	-0.0053	-0.0075	-0.0008	10
0.0052	-0.0091	-0.0098	-0.0015	10.1
0.0007	-0.006	-0.0113	-0.0015	10.2
0.0015	-0.006	-0.0128	-0.0046	10.3
0.0015	-0.0091	-0.0135	-0.0053	10.4
0.0015	-0.0068	-0.0135	-0.003	10.5
0.0037	-0.0068	-0.0165	0.0007	10.6
0.0037	-0.003	-0.0158	0.0022	10.7
0.0037	0.0045	-0.0143	0.0037	10.7
0.0022	-0.0068	-0.0135	0.0037	10.8
0.0052	-0.0113	-0.0128	0.0045	11
0.0022	0.0097	-0.0135	0.003	11.1
0	0.0255	-0.0098	0.003	11.2
-0.0008	0.0217	-0.0075	0.0037	11.2
-0.0023	0.0105	-0.0046	0.0045	11.3
0.0022	0.003	-0.0008	0.0075	11.4
0.003	0.0022	0.0022	0.0082	11.5
0.0015	0.003	0.0015	0.0082	11.7
0.003	0.0022	0.003	0.0052	11.7
0.003	0.0045	0.0052	0.0052	11.8
0.0022	0.0037	0.0045	0.0105	11.9
-0.0008	0.0045	0.0052	0.0082	12.1
-0.0015	0.0037	0.0045	0.0082	12.2
-0.0038	0.0015	0.0052	0.0067	12.3
-0.0053	0	0.0082	0.003	12.4
-0.003	-0.012	0.0082	0.0015	12.6
-0.0046	-0.0233	0.0105	-0.0008	12.7
-0.0008	-0.024	0.0127	0.0007	12.8
0	-0.0181	0.018	0.0007	13
-0.0023	-0.0091	0.0157	0	13.1
-0.003	-0.0105	0.015	-0.003	13.2
-0.0046	-0.0053	0.018	-0.0015	13.3
0.0007	0.0045	0.0187	0.0022	13.5
0.0007	0.003	0.0217	0	13.6
0.0022	0.0165	0.0202	0.0022	13.7
0.0015	0.0307	0.018	-0.0008	13.9
-0.0008	0.0202	0.0165	-0.003	14
0.0007	0.0142	0.015	-0.0046	14.1
-0.0008	0.0052	0.0157	-0.0053	14.2
0.0015	-0.0098	0.0135	-0.0038	14.4
0.0007	-0.006	0.012	-0.0015	14.5
0.0022	-0.0128	0.009	-0.0015	14.7
0.0045	-0.0195	0.0067	-0.003	14.8
0.0052	-0.0188	0.0045	-0.0015	15
0.0067	-0.0188	0.0015	-0.003	15.2
0.0045	-0.0165	0.0015	-0.0038	15.4
0.003	-0.006	0	-0.0038	15.6
0.0037	0.021	0	-0.003	15.8
0.0075	0.033	-0.0015	-0.0015	16
0.0082	0.0292	-0.0023	-0.0015	16.2
0.009	0.024	-0.0023	-0.003	16.3
0.009	0.0195	-0.003	-0.0053	16.5
0.0067	0.024	-0.0015	-0.0046	16.7
0.009	0.0172	-0.0038	-0.006	16.9
0.009	0.0052	-0.0046	-0.0053	17
0.0067	-0.0015	-0.0008	-0.0068	17.3
0.0075	-0.0068	-0.0008	-0.0053	17.5
0.0075	-0.012	0.0007	-0.0068	17.6
0.006	-0.0203	0.003	-0.0083	17.8
0.0045	-0.0188	0.0045	-0.0083	18
0.0037	-0.0218	0.0052	-0.006	18.2
0.0015	-0.0218	0.0067	-0.003	18.4
0.0015	-0.0165	0.0075	0.0015	18.6
-0.0023	-0.0098	0.0105	0.0045	18.9
-0.0008	0.0082	0.0127	0.0022	19.1
0.0052	0.0022	0.0142	0.0007	19.3
0.0037	-0.0256	0.0142	-0.0008	19.5
0.006	-0.0233	0.0157	-0.0046	19.8
0.0075	-0.0158	0.018	-0.0038	20
0.0082	-0.0158	0.0202	0.0015	20.2
0.0045	-0.0008	0.0202	0.003	20.4
0.0022	0.0067	0.021	0.0067	20.6
0.003	0.0337	0.0217	0.009	20.8
0.0007	0.0502	0.0187	0.006	21.1
0.0037	0.024	0.0195	0.003	21.3
0.0007	0.0127	0.0225	-0.0008	21.5
-0.003	0.0037	0.0232	-0.0015	21.7
0.0007	-0.0075	0.0225	-0.0015	22
-0.003	-0.0015	0.0195	-0.0015	22.2
-0.0015	-0.0083	0.0195	-0.0046	22.4
0.0015	-0.015	0.0217	-0.0068	22.6
0.0022	-0.0181	0.0217	-0.0083	22.9
0.0007	-0.0105	0.0232	-0.0105	23.2
-0.0015	0.0007	0.024	-0.0091	23.4
-0.0015	0	0.0217	-0.0068	23.7
-0.0015	0.0007	0.0195	-0.0046	24
-0.0008	0	0.0195	-0.0046	24.3
0	-0.0015	0.0217	-0.0053	24.5
0.0015	-0.0105	0.0195	-0.0038	24.8
0.0067	-0.0225	0.0202	-0.0038	25.1
0.0045	-0.0158	0.0195	-0.0046	25.3
0.0022	-0.0075	0.0157	-0.0075	25.6
0.0007	-0.0046	0.015	-0.0105	25.8
0.0007	-0.0015	0.0142	-0.0105	26.1
0.0037	-0.0038	0.0127	-0.0105	26.4
0.0045	-0.0015	0.009	-0.0128	26.6
0.0052	0.0007	0.0067	-0.0128	26.9
0.0015	0.0045	0.0052	-0.0105	27.2
0.006	0.0075	0.0037	-0.0105	27.4
0.003	0.0067	0.0022	-0.0091	27.7
0.0007	0.0045	-0.0015	-0.0113	28
0.0045	0.003	-0.003	-0.012	28.3
0.0022	0.0022	-0.0046	-0.012	28.5
0.0015	0.0007	-0.0046	-0.0158	28.8
0.0015	-0.0008	-0.003	-0.0181	29.1
0.0015	-0.0023	-0.003	-0.0225	29.4
-0.0023	-0.003	-0.0023	-0.024	29.7
-0.0015	-0.0023	-0.0038	-0.0218	29.9
-0.0015	-0.003	-0.006	-0.0195	30.2
-0.0038	-0.0015	-0.0068	-0.0158	30.5
-0.003	-0.0008	-0.0075	-0.0143	30.7
-0.0023	0	-0.0083	-0.0143	31
-0.0015	-0.0015	-0.0083	-0.015	31.3
-0.0008	-0.0023	-0.0068	-0.0195	31.5
0	-0.0008	-0.0068	-0.0195	31.8
0.0007	-0.0015	-0.0046	-0.0195	32.1
0.0015	-0.003	-0.0008	-0.0158	32.4
-0.0015	-0.003	-0.0015	-0.015	32.7
0.0007	-0.003	-0.0008	-0.015	32.9
0.0015	-0.0015	-0.0015	-0.0143	33.2
-0.0015	-0.0008	-0.0023	-0.0143	33.5
-0.0023	-0.0023	-0.0023	-0.0128	33.7
-0.003	-0.0023	-0.003	-0.0158	34
-0.003	-0.0038	-0.0015	-0.0165	34.3
-0.0038	-0.003	-0.0015	-0.0188	34.6
-0.0023	-0.0038	-0.0015	-0.0203	34.9
-0.0046	-0.0046	0.0007	-0.0181	35.1
-0.0053	-0.003	0.0015	-0.0195	35.4
-0.0008	-0.0046	0	-0.0165	35.7
-0.003	-0.0046	-0.0008	-0.0165	36
-0.0015	-0.003	0.0007	-0.0165	36.3
0.0007	-0.0015	0.0022	-0.0091	36.5
0.0007	0.0007	0.0022	-0.0083	36.8
0.0007	0.0007	0.0007	-0.003	37.1
0.003	0.0037	0.0007	0.0022	37.4
0.0045	0.0067	0	0.0045	37.7
0.0052	0.0045	-0.0015	0.006	37.9
0.0082	0.0007	-0.0015	0.0075	38.2
0.0067	-0.0038	-0.003	0.0097	38.5
0.006	-0.0023	0.0007	0.0067	38.8
0.0067	-0.003	-0.0008	0.0045	39.1
0.0045	-0.0023	-0.0015	0.0037	39.3
0.0045	-0.0015	-0.0008	-0.0046	39.6
0.0067	-0.0046	-0.0046	-0.0091	39.8
0.0052	-0.0015	-0.0023	-0.0083	40
0.0075	-0.0008	-0.0046	-0.0075	40.3
0.0067	0.003	-0.0068	-0.006	40.5
0.0052	0.0022	-0.0053	-0.0046	40.8
0.0082	0	-0.0068	0.0007	41
0.0045	0	-0.006	0.0052	41.3
0.003	-0.0015	-0.0068	0.0105	41.5
0.0022	-0.003	-0.0075	0.015	41.7
0	-0.0068	-0.0091	0.0142	42
0	-0.0083	-0.0091	0.012	42.2
0.003	-0.0015	-0.0075	0.0097	42.5
0.0022	0.009	-0.006	0.0097	42.7
0.0037	0.012	-0.0046	0.0082	42.9
0.003	0.009	-0.0053	0.0045	43.2
0.003	0.0075	-0.0038	-0.003	43.4
0.0015	0.0097	-0.003	-0.0046	43.7
0.0007	0.0082	-0.003	-0.0015	43.9
-0.0008	0	0.0007	0	44.1
-0.0046	-0.0068	-0.0023	-0.0046	44.3
-0.0038	-0.0143	-0.0008	-0.0068	44.5
-0.0015	-0.0135	0.0015	-0.0023	44.7
0.0007	-0.0091	-0.0008	-0.0008	44.9
-0.0008	-0.003	-0.0015	0.0007	45.1
-0.0008	0.0015	-0.0038	-0.0053	45.3
0.0015	0.003	-0.0023	-0.0083	45.5
-0.0023	0.0037	-0.003	-0.0083	45.7
0.0007	0.0022	-0.0046	-0.0098	45.9
0	0.003	-0.006	-0.0075	46.1
-0.003	0.003	-0.0068	-0.0075	46.3
-0.0053	0.0015	-0.0053	-0.0015	46.5
-0.0053	0.0007	-0.0068	-0.0008	46.7
-0.003	0.0007	-0.0083	0.0007	46.9
-0.0008	0.0052	-0.0083	0.0052	47.1
-0.0008	0.0082	-0.0068	0.0105	47.3
-0.0023	0.012	-0.0068	0.0217	47.5
-0.003	0.0082	-0.0083	0.027	47.7
-0.0046	0.003	-0.0075	0.0367	47.9
-0.0046	-0.0023	-0.0046	0.0465	48.1
-0.0015	0.0007	-0.003	0.0577	48.3
0.0007	0.0135	-0.0038	0.069	48.6
0.0022	0.0172	-0.0015	0.0742	48.7
0.0022	0.015	-0.0015	0.0765	49
0.0007	0.0127	-0.0053	0.072	49.2
0.0015	0.0075	-0.0046	0.0607	49.4
0.0045	0.003	-0.0068	0.0532	49.6
0.0022	0.0007	-0.0068	0.0465	49.8
0.0022	0.0007	-0.003	0.0352	50
0.003	-0.0023	-0.0053	0.0232	50.2
0	-0.0038	-0.0053	0.0142	50.4
0.0045	-0.003	-0.0068	0.0105	50.6
0.006	-0.006	-0.0068	0.0105	50.8
0.0052	-0.0068	-0.0046	0.012	51
0.0052	-0.0046	-0.0053	0.018	51.3
0.0045	0	-0.0046	0.0195	51.4
0.0067	0.0022	-0.0015	0.0195	51.7
0.006	0.003	0	0.0247	51.8
0.009	0.0037	0.0022	0.0277	52.1
0.009	0.0067	0.0022	0.0307	52.2
0.009	0.0082	0.0045	0.03	52.5
0.0112	0.0067	0.0067	0.0255	52.6
0.0105	0.0067	0.0052	0.0135	52.9
0.0105	0.0082	0.0067	0.006	53.1
0.009	0.006	0.0067	0.0037	53.2
0.0105	0.003	0.0045	-0.003	53.5
0.0105	0	0.0015	-0.0053	53.6
0.0112	-0.0023	-0.0008	-0.0105	53.9
0.0082	-0.0046	0	-0.0128	54
0.0082	-0.0083	0.0015	-0.015	54.2
0.009	-0.0091	0.0045	-0.0091	54.4
0.0082	-0.0143	0.0052	-0.0053	54.6
0.0105	-0.0165	0.0067	-0.0068	54.9
0.0127	-0.0158	0.0067	-0.0046	55
0.012	-0.0195	0.006	-0.0173	55.2
0.0067	-0.021	0.006	-0.027	55.4
0.0037	-0.0165	0.003	-0.033	55.6
0.0015	-0.012	0.0045	-0.0353	55.8
0.0082	-0.0098	0.0045	-0.0346	56
0.0127	-0.0068	0.003	-0.0375	56.2
0.0075	-0.003	0.0045	-0.0315	56.3
0.0052	-0.0008	0.0052	-0.0293	56.5
0.0045	0.0015	0.0045	-0.0195	56.6
0.003	0.003	0.0045	-0.0098	56.7
0.003	0.0082	0.0052	-0.006	56.9
0.0015	0.0075	0.0075	-0.0046	57
0.0007	0.0052	0.0082	-0.0023	57.2
0.0015	0.0045	0.0082	-0.0015	57.3
0.0015	0.0067	0.0067	-0.012	57.5
0.003	0.0127	0.0052	-0.0263	57.6
0.0067	0.0127	0.0045	-0.042	57.7
0.0082	0.009	0.0045	-0.045	57.9
0.0067	0.0052	0.003	-0.0405	58
0.0067	0.0007	0.0015	-0.0346	58.2
0.0045	-0.0046	0.0022	-0.021	58.3
0.0045	-0.0068	0.003	-0.0083	58.5
0.003	-0.0075	0.0037	0.0105	58.6
-0.0046	-0.0046	0.0052	0.0315	58.8
-0.003	-0.0008	0.0022	0.0405	58.9
-0.0053	-0.0008	0.0045	0.051	59
-0.006	0.0007	0.003	0.0562	59
-0.0023	0.0045	0	0.0435	59.1
-0.0046	0.009	0.0052	0.0292	59.2
-0.0046	0.0082	0.0045	0.0127	59.3
-0.0053	0.0015	0.0022	-0.0038	59.4
-0.0083	-0.003	0	-0.0068	59.4
-0.0053	-0.0068	-0.0008	-0.012	59.5
-0.0038	-0.0105	-0.0023	-0.0083	59.5
-0.0046	-0.0083	-0.0008	0.0067	59.6
-0.0068	-0.0075	0.0007	0.0142	59.7
-0.0068	-0.0105	-0.0023	0.0195	59.8
-0.0068	-0.0091	-0.0038	0.0285	59.8
-0.0068	-0.003	-0.003	0.0367	59.9
-0.0023	-0.0015	0.0015	0.0345	60
-0.003	0.0007	0.0037	0.0322	60.1
-0.0046	0.009	0.0052	0.0292	60.1
-0.003	0.0105	0.0045	0.0195	60.2
-0.0046	0.0127	0.0015	0.018	60.3
0.0007	0.012	0.0015	0.0142	60.3
0.0022	0.009	0.0007	0.006	60.3
0.0015	0.0075	0	-0.003	60.3
0.0007	0.0067	-0.0008	-0.0083	60.4
0.0015	0.0067	0	-0.0068	60.4
0.0022	0.0022	-0.0008	-0.0068	60.4
0.003	0.0015	-0.0038	-0.006	60.4
0.0045	0.0015	-0.0046	-0.0143	60.4
0.0015	0.0015	-0.003	-0.0188	60.4
0.0015	0.0015	-0.0008	-0.027	60.4
0.0037	-0.003	-0.0008	-0.0293	60.4
0.0045	0.0015	0.0015	-0.0256	60.4
0.003	0.0105	0	-0.027	60.4
0.0022	0.012	-0.0008	-0.0203	60.5
-0.0015	0.009	0.0022	-0.0195	60.5
-0.0038	0.0052	0.0015	-0.0105	60.5
0.003	0.0007	0.0015	-0.0053	60.5
0.0015	-0.003	-0.0023	-0.003	60.5
0.003	-0.0098	-0.003	0.0007	60.5
0.0045	-0.0128	-0.0046	-0.0053	60.5
-0.0008	-0.0128	-0.0068	-0.0128	60.5
0.003	-0.0128	-0.006	-0.0203	60.5
0.0007	-0.0128	-0.0068	-0.0225	60.5
-0.0008	-0.012	-0.0075	-0.03	60.5
0.0015	-0.006	-0.0068	-0.0353	60.4
0.0007	0.0052	-0.0053	-0.0368	60.4
0.0045	0.009	-0.0046	-0.03	60.4
0.0037	0.0165	-0.006	-0.0263	60.3
0.0052	0.0202	-0.006	-0.0263	60.3
0.0037	0.0052	-0.0053	-0.0233	60.3
0.0067	-0.0181	-0.0038	-0.0203	60.3
0.0075	-0.0443	-0.0023	-0.0158	60.3
0.0052	-0.0495	-0.0023	-0.0113	60.2
0.0105	-0.0263	-0.0023	0.0007	60.2
0.0082	-0.0091	-0.0053	0.0082	60.2
0.0045	-0.0008	-0.0046	0.003	60.1
0.006	0.018	-0.0015	0.0015	60.1
0.0037	0.0142	-0.003	-0.0008	60.1
0.0015	0.0067	-0.0015	0.003	60
0.0022	0.0097	-0.0015	0.0097	60
0.0022	0.0015	-0.0015	0.009	59.9
0.0045	0.0015	-0.0053	0.0082	59.9
0.003	-0.0046	-0.0068	0.0052	59.8
0.0015	0	-0.0053	0.0037	59.8
0.0007	0.003	-0.0046	0.0015	59.7
-0.0008	0.0015	-0.0015	-0.0008	59.6
-0.0008	0.0045	-0.0015	0.0007	59.5
-0.0008	0.0007	-0.0038	0.0007	59.4
0.0007	0.0075	-0.0046	0.0007	59.4
-0.0015	0.0067	-0.0046	-0.0015	59.3
-0.0008	0.0082	-0.003	0	59.2
-0.0015	0.006	-0.0046	0.0067	59.2
-0.0038	-0.0008	-0.0015	0.0075	59.1
-0.0046	-0.0008	-0.0023	0.0082	59
-0.0038	0.0015	0	0.0112	58.9
-0.0008	0.0082	-0.0008	0.0127	58.9
0.003	0.0067	-0.0015	0.012	58.8
0.006	0.0082	-0.0008	0.0097	58.7
0.0037	0.0067	-0.0008	0.009	58.6
0.0022	0.0052	0.0007	0.0052	58.6
0.0015	0.0067	0.0015	0.0015	58.5
-0.0008	0.0045	0.0022	0.0022	58.4
-0.0015	0.0037	0.0045	-0.0015	58.3
-0.003	-0.0008	0.0015	-0.0038	58.2
-0.0015	0.0015	0.0007	-0.0046	58.1
-0.0046	0.003	0.003	-0.0015	58
-0.0046	0.0007	0.0015	-0.0015	57.9
-0.0046	0.0007	0.0007	-0.0023	57.8
-0.003	-0.0015	0.0015	0.0015	57.7
-0.0008	0.0007	0	0.0007	57.6
-0.003	0	0.0007	0	57.5
-0.0008	-0.003	0.0007	-0.0008	57.4
-0.0008	-0.003	0.0015	0.0022	57.2
-0.0023	0	0.0007	0.0105	57.1
-0.0008	-0.0015	0.0007	0.0165	57.1
-0.0015	-0.0046	0.0015	0.0157	56.9
-0.0015	-0.0015	0.0007	0.0112	56.8
0.0015	0.0015	0.0045	0.0075	56.7
0.003	0.0007	0.003	-0.0008	56.7
0.0022	0.0022	0.0007	0.0015	56.5
0.0052	0.0045	0.0007	0.0105	56.4
0.0052	0.0015	-0.0015	0.003	56.3
0.003	0.0007	-0.0015	0.003	56.2
0.006	-0.0015	-0.0015	-0.0015	56
0.0022	-0.0008	-0.0015	-0.0068	55.9
0.0007	-0.0008	-0.003	-0.0038	55.8
0.003	-0.003	-0.0038	-0.0068	55.6
0.0045	-0.0015	-0.0008	-0.0046	55.5
0.0045	-0.0038	-0.0015	0.0037	55.3
0.003	-0.0046	-0.0015	0.0105	55.2
0.003	-0.0015	-0.0015	0.0037	55.1
0.003	-0.003	-0.0015	0.0007	54.9
0.006	-0.0008	0.0007	0.0007	54.8
0.0037	0.0007	0	-0.003	54.7
0.0015	-0.0008	-0.0015	0.0007	54.5
0.0007	-0.0015	-0.0015	-0.0046	54.4
-0.0015	-0.003	-0.0023	-0.003	54.3
0.003	-0.0046	-0.0008	-0.0023	54.1
0.0045	-0.0038	0	-0.0023	54
0.0052	-0.0046	-0.0008	-0.0023	53.9
0.0052	-0.0038	0.0015	-0.0053	53.7
0.0037	-0.003	0.0022	-0.003	53.5
-0.0008	-0.003	0.0007	-0.0008	53.4
-0.003	-0.003	0	0.0007	53.2
0	-0.0068	-0.0015	0.0007	53.1
-0.0008	-0.0046	-0.003	0.0007	52.9
-0.0008	-0.0053	-0.0023	-0.0015	52.7
0	-0.0113	-0.0046	0	52.6
-0.003	-0.0105	-0.003	-0.0008	52.4
-0.0023	-0.0091	-0.0008	0.0007	52.2
-0.0008	-0.0091	-0.0015	0.0007	52.1
-0.0015	-0.0015	-0.0046	-0.0023	51.9
0.0015	0.006	-0.0038	0.0015	51.7
0.003	0.0075	-0.0053	0.0007	51.6
0.0007	0.0105	-0.006	0.0067	51.4
0.0007	0.009	-0.0053	0.009	51.3
0.003	-0.0015	-0.0046	0.006	51.1
0.0045	-0.012	-0.0008	0.0067	50.9
0.006	-0.0098	-0.0008	0.009	50.8
0.0067	0.0052	0.0007	0.012	50.6
0.0045	0.0247	0.0015	0.0127	50.4
0.006	0.0322	0.0007	0.012	50.2
0.006	0.012	0	0.0075	50
0.003	-0.0083	0.0015	0.0045	49.8
0.0067	-0.0105	0.0015	0.0045	49.5
0.0045	-0.0098	0.003	0.0007	49.3
0.003	-0.0075	0.0015	0.0015	49
0.0045	-0.0053	0.0015	0.0007	48.8
0.0037	-0.0046	0.0045	0.0015	48.6
0.0015	-0.0046	0.0007	0.0052	48.4
0	-0.0046	0.0015	0.0082	48.1
0.0007	-0.0068	0.0007	0.009	47.9
0.0007	-0.0091	-0.003	0.0105	47.6
0.0007	-0.0053	0.0007	0.012	47.4
0	-0.003	-0.0008	0.0112	47.2
-0.0015	-0.003	-0.0015	0.009	47
-0.0015	-0.0015	0.0007	0.0112	46.8
-0.003	0.0015	0.0007	0.0127	46.5
-0.0068	0.0142	0.003	0.012	46.3
-0.0068	0.0225	0.003	0.0105	46
-0.0053	0.015	0.0052	0.0105	45.8
-0.0053	0.003	0.0052	0.009	45.5
-0.003	-0.0015	0.0045	0.0097	45.3
-0.0015	-0.0046	0.003	0.009	45
0.0007	0	0.0045	0.0112	44.7
0.0007	-0.0015	0.0082	0.0127	44.4
0.0015	-0.027	0.012	0.0135	44.1
0.0022	-0.0233	0.0105	0.0142	43.9
0.0015	0.0105	0.0052	0.0075	43.6
0.0015	0.0015	0.0052	0.0045	43.3
0.0015	-0.006	0.0052	0.0037	43.1
0.0015	0.003	0.0045	0.0037	42.8
0	0.0022	0.0067	0.0082	42.5
-0.0008	0.012	0.0097	0.0142	42.3
0.003	0.0142	0.0082	0.0157	42
0.0045	0.0172	0.0067	0.0097	41.7
0.0007	0.0135	0.0052	0.0082	41.4
0.003	0.0097	0.003	-0.0008	41.1
0.003	0.0045	0.0067	-0.0128	40.9
0.0007	0.0015	0.0045	-0.012	40.6
0.0037	0.0045	0.0022	-0.006	40.3
0.0045	0.0007	0.003	-0.0075	40
0.0075	0	0.0037	-0.006	39.7
0.0082	-0.0023	0.006	-0.0015	39.5
0.006	-0.0015	0.0075	-0.0015	39.2
0.0075	0.0052	0.0082	-0.0015	38.9
0.0075	0.0105	0.006	-0.003	38.6
0.006	0.0097	0.006	-0.0015	38.3
0.0045	0.0067	0.0045	-0.0023	38.1
0.003	0.003	0.003	-0.003	37.8
0.0022	0.0007	0.003	-0.0038	37.5
0.0045	0	0.0022	-0.0053	37.2
0.006	-0.0015	0.0022	-0.0053	36.9
0.0067	-0.0023	0.0022	-0.0068	36.6
0.006	-0.003	0.0007	-0.0038	36.4
0.006	-0.0023	0	-0.006	36
0.003	-0.0046	0.0007	-0.0068	35.8
0.0022	-0.0038	0.0015	-0.0075	35.5
0.0052	-0.0046	-0.0008	-0.0075	35.2
-0.0008	-0.0046	-0.0015	-0.006	34.9
0	-0.0023	-0.003	-0.006	34.6
-0.0008	-0.0046	-0.003	-0.003	34.4
-0.0023	-0.0023	-0.0023	-0.0053	34.1
0.0007	-0.0015	-0.0038	-0.0053	33.8
0.0045	-0.0046	-0.0015	-0.0038	33.6
0.0075	-0.0046	-0.0008	-0.0068	33.3
0.009	-0.0038	-0.003	-0.0068	33
0.009	-0.0046	-0.0015	-0.0083	32.8
0.0082	-0.0046	-0.003	-0.012	32.5
0.0052	-0.0075	-0.0038	-0.0113	32.2
0.0052	-0.0068	-0.0038	-0.012	31.9
0.0045	-0.0053	-0.003	-0.0143	31.6
0.0052	-0.0053	-0.0015	-0.0165	31.4
0.006	-0.0046	-0.0023	-0.0173	31.1
0.003	-0.006	-0.0015	-0.0181	30.8
0.0052	-0.0046	0	-0.0203	30.6
0.0045	-0.0046	-0.0023	-0.0218	30.3
0.003	-0.0046	-0.0038	-0.0203	30
0.003	-0.0023	-0.0046	-0.0203	29.7
0.0022	-0.003	-0.0046	-0.0218	29.5
0.0045	-0.0015	-0.003	-0.0233	29.2
0.0045	-0.0008	-0.003	-0.0263	28.9
0.0045	-0.0015	-0.0015	-0.0293	28.7
0.0067	-0.0023	-0.0008	-0.0353	28.4
0.0082	-0.003	-0.0015	-0.0405	28.2
0.0082	-0.0015	-0.0008	-0.0428	27.9
0.0105	-0.0008	-0.0015	-0.0443	27.6
0.0135	-0.0023	-0.0008	-0.0443	27.4
0.0105	-0.0023	-0.0008	-0.0458	27.1
0.0105	0	-0.0015	-0.045	26.9
0.0105	-0.0015	-0.0008	-0.042	26.6
0.0067	-0.0023	-0.0008	-0.0413	26.4
0.0052	-0.0015	-0.0015	-0.0353	26.1
0.0067	-0.0023	-0.0015	-0.0293	25.8
0.003	-0.003	-0.0038	-0.0263	25.6
0.0045	-0.0046	-0.0023	-0.021	25.3
0.0045	-0.0023	0.0007	-0.0158	25.1
0.0007	-0.0008	-0.0008	-0.0105	24.8
0.0007	0.0015	-0.0008	-0.003	24.5
-0.0015	0.0015	-0.0015	0.0037	24.3
-0.0008	0.0052	-0.003	0.0067	24
0.0007	0.0075	-0.0023	0.012	23.8
0.0007	0.0052	-0.003	0.0135	23.5
-0.0015	0.0037	-0.0015	0.0135	23.3
0.0007	0.0022	0	0.0165	23
0.0015	0.0015	0.0037	0.0172	22.8
-0.0008	-0.0008	0.0015	0.0165	22.5
0.0015	-0.003	0.0007	0.0165	22.2
-0.003	-0.0038	0.0015	0.0187	22
-0.0008	-0.003	-0.0008	0.018	21.7
-0.0008	-0.003	0.0007	0.0187	21.5
-0.0038	-0.0015	-0.0008	0.0217	21.2
-0.0008	-0.0015	0	0.0217	21
-0.003	-0.0023	0.0015	0.0225	20.7
-0.0008	-0.0015	0.0015	0.0217	20.5
0	-0.0008	0.003	0.0195	20.2
0.0007	0	0.003	0.0195	20
-0.0008	-0.0015	0.0022	0.018	19.7
-0.0008	-0.0023	0.003	0.0187	19.4
0.0007	-0.0023	0.003	0.0157	19.2
-0.0023	-0.003	0.0052	0.0187	18.9
-0.0008	-0.006	0.0052	0.0157	18.7
-0.0008	-0.0083	0.003	0.009	18.4
0.0007	-0.0105	0.003	0.0075	18.2
-0.003	-0.0135	0.0022	0.0015	18
-0.0068	-0.0143	0.0007	0.0045	17.7
-0.0053	-0.012	0.0007	0.0015	17.5
-0.0023	-0.0008	-0.0008	0	17.3
-0.0053	0.018	0.0015	-0.0023	17
-0.0023	0.0277	-0.0008	-0.0075	16.8
-0.003	0.018	-0.0008	-0.0068	16.5
-0.0053	0.0052	0.0015	-0.0083	16.3
-0.0046	0.009	0.0015	-0.0068	16.1
-0.003	0.0097	0.003	-0.0068	15.8
-0.0008	0.009	0.0007	-0.0083	15.6
-0.0015	0.0097	0.0015	-0.0083	15.3
0	0.003	0.0007	-0.0113	15.1
-0.0053	-0.0053	0.0015	-0.0158	14.8
-0.0053	-0.0091	0.0015	-0.0181	14.6
-0.0008	-0.0091	-0.0008	-0.015	14.4
-0.003	-0.0091	0.0007	-0.0158	14.1
-0.0008	-0.0038	-0.0023	-0.0113	13.9
-0.0015	0.0052	0.0007	-0.0068	13.7
-0.0015	0.0112	0.0022	-0.003	13.5
0.0007	0.0052	0.0015	0.0067	13.2
0.0007	-0.0038	0.003	0.0105	13
0.0037	-0.0038	0.003	0.0135	12.7
0.0045	-0.0015	0.0037	0.0157	12.5
-0.0008	0	0.0022	0.018	12.3
0	-0.003	0.0015	0.0165	12.1
0.003	-0.0038	0.0007	0.0105	11.8
0.0052	-0.006	0	0.009	11.6
0.0075	-0.0091	-0.0008	0.0052	11.4
0.0067	-0.0083	-0.0008	0.0022	11.2
0.006	-0.0105	0.0007	-0.0023	10.9
0.0082	-0.0091	0.003	-0.0053	10.7
0.0067	-0.0023	0.0052	-0.003	10.4
0.003	0.009	0.0045	-0.0083	10.2
0.0007	0.0225	0.003	-0.0091	10
-0.003	0.0157	0	-0.0128	9.8
-0.003	0.003	0.0007	-0.0158	9.5
-0.0015	0.0015	0.0007	-0.0128	9.4
-0.003	-0.0008	-0.0008	-0.0158	9.2
-0.0053	0.0007	-0.0015	-0.0143	9
-0.0053	0.0007	-0.0046	-0.0091	8.8
-0.0046	-0.0008	-0.003	-0.0068	8.6
-0.0053	-0.0015	-0.0008	-0.0038	8.4
-0.003	-0.0075	-0.0015	-0.0046	8.2
-0.003	-0.0046	-0.0023	-0.0053	8.1
-0.003	-0.0023	-0.0015	-0.0023	7.9
0	-0.0008	-0.0015	-0.0023	7.7
0.0007	-0.0008	-0.0008	0.0015	7.5
0.0015	-0.0038	0.0022	0.0022	7.3
0.0052	-0.0046	0.0007	0.003	7.2
0.0082	0	-0.0015	0.012	7
0.0052	0.0007	0.0015	0.0127	6.7
0.0082	-0.0008	0.0007	0.0135	6.6
0.0052	-0.0046	-0.0008	0.0127	6.4
0.0045	-0.0128	0	0.0165	6.2
0.009	-0.0143	0.0015	0.0255	6
0.0105	-0.0128	0.003	0.0202	5.8
0.0105	-0.0098	0.0037	0.0187	5.7
0.0105	-0.0038	0.003	0.0157	5.6
0.0097	0.0007	0.0007	0.0127	5.5
0.0052	0.0082	0.0007	0.0127	5.4
0.0082	0.0142	0.0007	0.0105	5.3
0.0067	0.0232	0.003	0.012	5.2
0.0045	0.0382	0.0015	0.0127	5.1
0.0067	0.042	0.0007	0.0202	4.9
0.003	0.0232	0.0037	0.0165	4.9
0.006	0.0052	0	0.0045	4.7
0.0052	-0.0015	0.0007	0.0022	4.6
0.0067	-0.0008	0.003	0.0037	4.5
0.0082	0.0052	0.0052	0.0135	4.4
0.0067	-0.0008	0.0052	0.0195	4.3
0.0052	-0.0143	0.0037	0.0127	4.1
0	-0.0181	0.003	0.006	4
0.003	-0.0083	0.0022	0.0067	4
0.0015	0.0105	0.003	0.012	3.8
-0.0015	0.0345	0.0022	0.0135	3.7
0.0052	0.0367	0.0045	0.0052	3.6
0.0015	0.0075	0.0022	-0.0038	3.6
0.0015	0.0007	0.0007	-0.0008	3.5
0.003	-0.0008	0.0015	0.0052	3.4
-0.003	-0.0068	0.0015	0.0045	3.4
-0.0008	-0.0008	-0.0008	-0.015	3.3
-0.0008	-0.0091	-0.0008	-0.0285	3.2
-0.0008	-0.0046	-0.0008	-0.0308	3.2
0.0015	-0.003	-0.0015	-0.0218	3.1
0.0015	-0.0046	-0.0023	-0.006	3.1
-0.0008	-0.003	-0.0038	-0.0015	3
-0.0008	-0.0098	0.0022	-0.003	3
0.003	-0.0068	0.006	0.006	2.9
0.0045	-0.0068	0.0082	0.0255	2.9
0.0067	-0.0053	0.0075	0.009	2.8
0.0067	-0.006	0.0052	-0.0038	2.7
0.009	-0.006	0.0052	0.0037	2.7
0.009	-0.0053	0.009	0.0052	2.6
0.0082	-0.003	0.0097	0.0097	2.6
0.009	-0.0015	0.0067	0.0007	2.5
0.0045	-0.0075	0.0052	-0.0046	2.4
0.0015	-0.0128	0.0007	-0.0128	2.4
0	-0.012	-0.0015	-0.0105	2.4
0.0015	-0.0075	-0.0023	-0.0105	2.4
0.0015	-0.0046	-0.0046	-0.0143	2.4
-0.0023	-0.0046	-0.0046	0.0067	2.4
-0.0015	-0.0083	-0.0046	0.03	2.4
-0.0015	-0.012	-0.0046	0.054	2.4
-0.0015	-0.0143	-0.0046	0.0427	2.4
0	-0.0233	-0.003	0.0277	2.4
0	-0.0278	-0.0023	0.0127	2.3
0	-0.0233	-0.0015	0.006	2.3
0.0007	-0.0233	-0.0015	0.0127	2.3
0.003	-0.0323	-0.0046	-0.0083	2.3
0.003	-0.0308	-0.0053	-0.024	2.3
0.0022	-0.0195	-0.0068	-0.0323	2.3
0.006	-0.0046	-0.006	-0.048	2.3
0.0052	0.0112	-0.0023	-0.0803	2.3
0.0082	0.0427	-0.0038	-0.1006	2.2
0.0097	0.0705	-0.0015	-0.1125	2.2
0.0082	0.063	-0.0008	-0.1088	2.2
0.009	0.0772	-0.0008	-0.0608	2.2
0.006	0.066	-0.0015	-0.0338	2.2
0	0.0187	-0.003	-0.03	2.2
-0.0008	0.0097	-0.0046	-0.0615	2.2
0.0015	-0.0083	-0.0053	-0.1208	2.2
0.0007	-0.0113	-0.0046	-0.1343	2.3
0.0007	-0.0143	-0.0053	-0.1448	2.3
-0.0008	-0.0195	-0.0053	-0.15	2.3
-0.0053	-0.0091	-0.0046	-0.1013	2.3
-0.0038	-0.0181	-0.0038	-0.0458	2.3
-0.0083	-0.0135	-0.003	-0.0413	2.3
-0.0083	-0.0053	-0.0015	-0.0608	2.3
-0.0038	0.012	-0.0023	-0.078	2.3
-0.0053	0.024	-0.0023	-0.0645	2.3
-0.003	0.003	-0.003	-0.054	2.4
-0.0083	-0.012	-0.0008	-0.003	2.4
-0.0075	-0.0181	0.0045	0.1162	2.4
-0.006	-0.03	0.0067	0.144	2.4
-0.006	-0.0428	0.009	0.183	2.4
-0.0053	-0.042	0.0075	0.1665	2.4
-0.006	-0.0308	0.0022	0.0645	2.5
-0.0015	-0.0233	0.0007	0.018	2.5
-0.0046	-0.0105	-0.0015	-0.0788	2.5
-0.0053	0.0082	-0.0046	-0.1163	2.5
-0.0038	0.0277	-0.0038	-0.0923	2.6
-0.0068	0.021	-0.0038	-0.0608	2.6
-0.0023	-0.0046	-0.0015	-0.075	2.6
0	-0.0008	0.0015	-0.039	2.6
-0.0015	0.024	0.0045	0.1665	2.6
-0.0008	0.033	0.0067	0.2355	2.6
0.0015	0.0105	0.0082	0.1537	2.7
0.0015	0.0082	0.012	0.0817	2.7
0.0067	0.0082	0.0142	0.1237	2.7
0.0082	-0.0203	0.0112	0.1245	2.7
0.0067	-0.0383	0.0067	0.0382	2.8
0.0075	-0.0308	0.0015	-0.0278	2.8
0.0052	-0.0278	-0.0015	-0.045	2.8
0.0007	-0.0195	-0.0008	0.0645	2.8
-0.0015	0.0007	0.003	0.1042	2.8
0.0015	-0.0143	0	0.0727	2.9
0.0045	-0.027	-0.0015	0.0315	2.9
0.009	-0.0053	0.0052	0.0022	2.9
0.0067	0.0285	0.0067	0.0142	2.9
0.006	0.0262	0.009	0.0277	3
0.009	0.0105	0.0082	0.045	3
0.0082	0.0495	0.0045	0.015	3
0.0082	0.0735	0.0015	-0.0181	3
0.0082	0.0352	-0.0015	-0.0195	3.1
0.0075	-0.0405	0	-0.0248	3.1
0.0052	-0.0885	-0.0008	-0.0578	3.1
0.003	-0.0721	-0.0038	-0.0878	3.1
0.0022	-0.0465	-0.0046	-0.1058	3.1
0.0007	-0.0105	-0.0046	-0.1043	3.1
0.0015	0.0135	-0.0023	-0.084	3.1
0.0082	-0.0083	0.0007	-0.0668	3.2
0.009	-0.0465	0.003	-0.0293	3.2
0.009	-0.0668	0	-0.0248	3.2
0.0052	-0.0623	-0.0023	-0.0361	3.2
0.0007	-0.0638	-0.0015	-0.033	3.3
0.0045	-0.078	-0.0023	-0.0315	3.3
0.0045	-0.0503	0	-0.0203	3.3
0.0052	0.009	0.003	-0.0525	3.3
0.0082	0.0532	0.0015	-0.0848	3.3
0.0067	0.1237	0	-0.0856	3.3
0.009	0.1402	0.0007	-0.0938	3.4
0.0105	0.0517	0	-0.1208	3.4
0.0097	0.0307	0	-0.1043	3.4
0.0082	-0.0135	0.003	-0.0511	3.4
0.0097	-0.09	0.003	-0.006	3.4
0.012	-0.0863	0.0015	0.039	3.5
0.0105	-0.054	0.003	0.0562	3.5
0.012	-0.0143	0.0075	0.1072	3.5
0.0142	-0.024	0.009	0.1185	3.5
0.0142	0.033	0.0067	0.0637	3.5
0.0127	0.0375	0.0015	0.0382	3.5
0.009	-0.0833	-0.0015	-0.0098	3.6
0.0105	-0.0278	-0.0015	-0.024	3.6
0.0082	0.15	-0.0023	-0.0278	3.6
0.0015	0.2782	-0.003	-0.0458	3.6
-0.0023	0.231	-0.0046	-0.0548	3.6
-0.0053	0.1312	-0.0053	-0.0593	3.6
-0.0075	0.063	-0.0046	-0.0233	3.5
-0.0105	-0.015	-0.0008	-0.0233	3.4
-0.0128	0.0315	0.0045	-0.0368	3.4
-0.0135	0.0045	0.0052	-0.0443	3.3
-0.012	-0.0593	0.0045	-0.0533	3.2
-0.012	-0.0848	0.0007	-0.039	3.2
-0.0083	-0.0765	0.0015	-0.054	3.1
-0.0015	0.0247	0.0007	-0.0368	3.1
0.0007	0.0502	0.0007	0.0045	3
0.003	0.0315	0.003	0.0292	2.9
0.003	0.0022	-0.0008	0.036	2.8
0.0082	-0.0293	-0.0008	0.0285	2.7
0	-0.0495	-0.0008	0.0157	2.7
-0.003	-0.0293	0.0015	-0.0068	2.6
0.0007	0.0457	0.0052	-0.003	2.6
-0.0053	0.1395	0.0052	-0.0113	2.5
-0.0023	0.2047	0.003	-0.0218	2.4
-0.0023	0.1132	-0.0008	-0.0473	2.4
-0.003	0.0082	-0.0023	-0.0443	2.2
-0.0015	-0.0083	-0.006	-0.0181	2.2
0.0015	-0.0256	-0.0075	-0.0353	2.2
0.0052	-0.003	-0.0053	-0.0383	2.2
0.003	-0.0068	-0.0053	-0.0623	2.1
-0.0015	-0.0128	-0.0008	0.0157	2
-0.0046	-0.0195	0.006	0.2227	2
-0.003	-0.042	0.0135	0.2332	1.9
-0.0068	-0.0698	0.0187	0.1875	1.9
-0.0098	-0.1223	0.0232	0.2407	1.8
-0.0046	-0.12	0.0172	0.2377	1.8
-0.0083	-0.135	0.0082	0.1717	1.8
-0.0091	-0.1365	0.0037	0.093	1.7
-0.0008	-0.09	-0.0038	0.0727	1.7
-0.0015	-0.057	-0.0068	0.063	1.6
-0.0046	-0.027	-0.0105	0.048	1.5
-0.0038	-0.0181	-0.0128	0.0547	1.5
-0.003	-0.0015	-0.0105	0.054	1.4
-0.0046	0.0112	-0.0128	0.0382	1.4
-0.0015	0.0165	-0.012	0.0255	1.3
-0.0015	0.0157	-0.0143	0.0225	1.3
-0.0015	0.003	-0.015	0.0172	1.3
0	0.0037	-0.0113	0.0225	1.4
-0.0008	0.0015	-0.0105	0.0202	1.5
-0.0008	0.0015	-0.0105	0.024	1.6
0.0015	0.003	-0.012	0.0255	1.7
-0.0008	0.0067	-0.0105	0.0292	1.8
-0.0015	0.0067	-0.012	0.0307	1.8
-0.0008	0.0082	-0.0135	0.0307	1.9
-0.0046	0.0105	-0.0128	0.0352	2
-0.0053	0.0082	-0.0128	0.0345	2.1
-0.0046	0.009	-0.0135	0.0405	2.1
-0.0068	0.0082	-0.0105	0.042	2.2
-0.0046	0.0105	-0.0083	0.0457	2.3
-0.0008	0.0097	-0.0068	0.0457	2.3
-0.0008	0.012	-0.0046	0.0442	2.4
0.0015	0.0127	-0.0038	0.0435	2.5
0.003	0.0112	-0.0008	0.039	2.6
0.0015	0.0127	0.0007	0.036	2.7
0.0052	0.012	0.0007	0.0322	2.7
0.0105	0.012	0.0037	0.0382	2.8
0.009	0.0105	0.0037	0.0517	2.9
0.0082	0.0097	0.0045	0.0555	2.9
0.0052	0.012	0.0052	0.0577	2.9
0.0015	0.012	0.0067	0.0465	2.9
0.0052	0.0127	0.0082	0.0195	3
0.0067	0.0165	0.012	0.0052	3
0.0045	0.0142	0.0135	0.0067	3
0.0067	0.009	0.0135	0.018	3
0.0082	0.0015	0.0165	0.0315	3.1
0.0075	-0.0105	0.0142	0.0472	3.1
0.006	-0.0233	0.0142	0.024	3.1
0.0067	-0.027	0.0157	-0.0398	3.1
0.006	-0.0256	0.0112	-0.0593	3.1
0.0082	-0.015	0.0105	-0.0495	3.2
0.0082	0.003	0.009	-0.0585	3.2
0.0052	0.0232	0.0135	0.0007	3.2
0.0067	0.0375	0.018	0.1125	3.2
0.0052	0.0412	0.0165	0.1567	3.3
0.0075	0.0532	0.0195	0.1665	3.3
0.0097	0.033	0.0232	0.1327	3.3
0.0067	0.0045	0.0195	0.1132	3.3
0.006	0.018	0.012	0.1155	3.3
0.0052	0.024	0.0052	0.0502	3.3
0.0052	0.0292	0.003	0.0345	3.2
0.0052	0.012	0.003	0.0232	3.2
0.0082	-0.0053	0.0015	0.0052	3.1
0.0067	-0.003	0.0022	0.0105	3.1
0.0037	-0.0128	0.0007	0.0292	3.1
0.0052	-0.012	0.0007	0.0615	3.1
0.0022	-0.0233	0	0.0382	3
0.003	-0.0323	-0.0046	0.0255	3
0.0052	-0.033	-0.0068	-0.0046	3
0.003	-0.0323	-0.012	-0.0233	2.9
0.0007	-0.015	-0.0128	-0.0188	2.9
0.0007	-0.0098	-0.0143	-0.0323	2.9
0.003	-0.0053	-0.0181	-0.0181	2.8
0.003	-0.003	-0.0181	-0.0203	2.8
0.0037	-0.0053	-0.0195	-0.0128	2.7
0.003	-0.0023	-0.021	-0.0128	2.7
0.0007	-0.0046	-0.0195	-0.012	2.6
0.003	-0.0053	-0.0188	-0.0015	2.6
0.0045	-0.0113	-0.0195	-0.0008	2.6
0.003	-0.015	-0.021	0.009	2.6
0.0037	-0.0128	-0.0203	0.012	2.6
0.0045	-0.015	-0.0188	0.0172	2.6
0.0015	-0.012	-0.0181	0.021	2.6
0.003	-0.0068	-0.0181	0.0232	2.6
0.0022	-0.006	-0.0195	0.0277	2.5
0.0022	0.003	-0.0181	0.0307	2.5
0.0045	0.018	-0.0181	0.033	2.5
-0.0015	0.0195	-0.0165	0.0345	2.4
-0.0008	0.003	-0.0158	0.033	2.4
0.003	-0.006	-0.012	0.0315	2.4
0.0007	-0.0083	-0.0105	0.0277	2.4
0.003	-0.0091	-0.012	0.0202	2.3
0.003	-0.0098	-0.012	0.0157	2.3
0.0007	-0.0128	-0.0105	0.0082	2.3
0.0007	-0.0128	-0.0091	0.003	2.3
0	-0.0113	-0.0068	-0.0046	2.3
-0.0008	-0.0091	-0.0053	-0.0158	2.2
0.0007	-0.0068	-0.0053	-0.021	2.2
-0.0015	-0.0053	-0.003	-0.0308	2.2
-0.0046	-0.0068	-0.0023	-0.0405	2.2
-0.0038	-0.0173	-0.0015	-0.0533	2.2
-0.006	-0.027	-0.0008	-0.0668	2.2
-0.0075	-0.027	-0.0015	-0.0743	2.2
-0.0068	-0.027	0.003	-0.0803	2.2
-0.0083	-0.0256	0.0045	-0.0871	2.2
-0.0105	-0.0165	0.0037	-0.0878	2.2
-0.0091	-0.0015	0.0052	-0.0818	2.2
-0.0098	0.0187	0.0022	-0.093	2.2
-0.0105	0.0367	0.0037	-0.1125	2.2
-0.0068	0.0525	0.0052	-0.1148	2.2
-0.0068	0.0315	0.0045	-0.111	2.2
-0.0091	0	0.0052	-0.114	2.2
-0.0098	-0.0053	0.0022	-0.1223	2.2
-0.0083	-0.0128	0.0007	-0.132	2.2
-0.0105	-0.0105	0	-0.1396	2.2
-0.0083	-0.0083	0	-0.1403	2.2
-0.0105	-0.0068	0	-0.1313	2.1
-0.012	-0.003	0.0007	-0.1118	2.1
-0.0098	-0.0053	0.0007	-0.075	2.1
-0.0105	-0.0015	0.0007	-0.0578	2.1
-0.0105	-0.0008	0.0015	-0.0788	2.1
-0.0105	-0.0008	-0.0023	-0.0953	2.1
-0.0083	-0.0046	-0.0015	-0.0856	2.1
-0.0046	-0.0091	0	-0.0683	2.1
0	-0.0053	0.0007	-0.081	2.1
0.0045	0.0015	0.0022	-0.0833	2
0.0045	-0.0038	0.0022	-0.0758	2
0.0052	-0.0158	0.0022	-0.093	2
0.009	-0.0046	0.0015	-0.0975	2
0.009	0.0045	0.003	-0.1088	2
0.0112	0.0135	0.003	-0.1118	2
0.012	0.0202	0.0022	-0.1118	1.9
0.0127	0.012	0.0015	-0.1178	1.9
0.0135	0.0097	0.003	-0.1125	1.9
0.012	0.003	0.0052	-0.114	1.9
0.0157	-0.0008	0.0045	-0.1035	1.9
0.0165	0.0015	0.0052	-0.0975	1.8
0.0142	-0.0046	0.0052	-0.09	1.8
0.015	-0.0046	0.0067	-0.0878	1.8
0.0142	-0.003	0.0067	-0.0863	1.8
0.0127	-0.0046	0.0067	-0.0795	1.8
0.0112	-0.0023	0.0075	-0.0788	1.8
0.0105	-0.0008	0.0082	-0.0675	1.8
0.0112	0	0.0105	-0.0593	1.8
0.0082	0.0007	0.0112	-0.048	1.8
0.009	0.0007	0.0142	-0.0346	1.8
0.009	0.0022	0.0157	-0.0233	1.8
0.0067	0.0007	0.0165	-0.0068	1.8
0.0105	0.0007	0.0195	0.0045	1.8
0.0105	0.0022	0.0187	0.0217	1.8
0.0105	0.0045	0.0247	0.0345	1.8
0.009	0.0052	0.0277	0.0457	1.8
0.012	0.0052	0.0277	0.0592	1.8
0.0127	0.0052	0.0307	0.0697	1.8
0.0127	0.003	0.0307	0.0795	1.8
0.0127	0.0022	0.0345	0.0862	1.8
0.009	0	0.0375	0.0892	1.8
0.0097	-0.0008	0.0382	0.09	1.8
0.012	0.0007	0.039	0.0855	1.9
0.012	-0.0046	0.039	0.0765	1.9
0.0142	-0.003	0.0382	0.0622	1.9
0.0142	-0.0038	0.0367	0.0427	1.9
0.0142	-0.0053	0.0352	0.024	1.9
0.0142	-0.0038	0.033	0.003	1.9
0.0127	-0.0046	0.0292	-0.012	1.9
0.0127	-0.0008	0.0277	-0.024	2
0.0135	0.0015	0.0277	-0.0436	2
0.0127	-0.0015	0.027	-0.0548	2
0.0142	-0.0075	0.024	-0.0503	2
0.0157	-0.0113	0.018	-0.0518	2
0.0097	-0.0038	0.0135	-0.063	2
0.0052	0.003	0.009	-0.0691	2.1
0.0082	0.0015	0.0082	-0.0691	2.1
0.0067	0.0045	0.0067	-0.0683	2.1
0.0067	0.012	0.0045	-0.0585	2.1
0.0045	0.0307	0.0052	-0.033	2.1
0.0007	0.0457	0.0052	-0.0203	2.1
0.0007	0.0292	0.0045	-0.0105	2.1
0	0.0082	0	0	2.1
-0.003	0.0157	-0.0015	0.0037	2.1
-0.0046	0.0232	-0.0046	0.0157	2.1
-0.003	0.0225	-0.006	0.0232	2.1
-0.0053	0.0075	-0.006	0.0405	2.1
-0.0053	0.0007	-0.0091	0.0495	2.1
-0.0023	-0.0008	-0.0105	0.054	2.1
-0.0046	-0.003	-0.0113	0.066	2.1
-0.0053	-0.0008	-0.0098	0.072	2.1
-0.0053	-0.0075	-0.0113	0.0772	2.1
-0.0053	-0.0068	-0.012	0.078	2.1
-0.0038	-0.0053	-0.012	0.0862	2
-0.003	-0.0068	-0.0135	0.0892	2
-0.0046	-0.006	-0.0128	0.09	2
-0.0046	-0.0068	-0.0143	0.0915	2
-0.003	-0.0046	-0.0158	0.09	2
-0.0046	-0.0053	-0.0165	0.0915	2
-0.0046	-0.0046	-0.0181	0.0892	2
-0.0015	-0.0038	-0.0158	0.0892	1.9
-0.003	-0.0038	-0.0135	0.0892	1.9
-0.0008	-0.006	-0.0128	0.087	1.9
0	-0.0046	-0.0128	0.0847	1.9
-0.0015	-0.0023	-0.015	0.0825	1.9
-0.0008	-0.0053	-0.0158	0.081	2
-0.003	-0.0053	-0.0165	0.0787	2
-0.0038	-0.0038	-0.0158	0.0787	2
-0.003	-0.0038	-0.015	0.0765	2
-0.003	-0.003	-0.0135	0.072	2
-0.003	-0.003	-0.012	0.0697	2
-0.003	-0.003	-0.0128	0.0682	2
-0.0015	-0.0015	-0.0135	0.0652	2
-0.0015	-0.003	-0.012	0.0607	2
0.0007	-0.0015	-0.012	0.0592	2
0.0007	0.0015	-0.0143	0.0562	2
0	0.0015	-0.0158	0.0547	2
0.0015	0.0007	-0.0158	0.0532	2
0.0022	0.0015	-0.0128	0.0502	2
0.0037	0.0045	-0.012	0.0487	2
-0.0008	0.003	-0.0105	0.0427	2
-0.0023	0.0015	-0.0091	0.0367	2.1
-0.003	0.0015	-0.0091	0.0345	2.1
-0.003	0	-0.0075	0.0307	2.1
-0.0008	-0.0008	-0.0068	0.0277	2.2
-0.0046	-0.0023	-0.0053	0.024	2.2
-0.0068	-0.0091	-0.003	0.0217	2.2
-0.0038	-0.0143	-0.003	0.0172	2.2
-0.0008	-0.0158	-0.003	0.0165	2.3
0.0015	-0.015	-0.0015	0.0112	2.3
0.0037	-0.0091	0.0007	0.0067	2.3
0.0037	-0.0083	0.0022	0.0052	2.4
0.0022	-0.0105	0.003	0.0045	2.4
0.0045	0.0052	0.0015	0.0045	2.4
0.003	0.0367	0.0007	0.003	2.5
0.0007	0.0345	-0.0008	0.0015	2.5
0	0.015	-0.0008	0.0007	2.5
-0.0008	0.0157	0	-0.0008	2.6
0.003	0.006	0.0015	-0.0015	2.6
0.003	0.0112	0.0007	-0.0038	2.6
0.003	0.0292	-0.0015	-0.006	2.6
0.0022	0.03	0	-0.0091	2.7
0.0007	0.0082	0.0007	-0.0135	2.7
-0.0008	-0.012	0.0007	-0.0165	2.7
0.0007	-0.0091	0.0015	-0.0195	2.7
0.0015	-0.0165	-0.0008	-0.0218	2.8
0.003	-0.0143	-0.003	-0.024	2.8
0.0015	-0.0158	-0.0008	-0.024	2.8
-0.0008	-0.0158	-0.003	-0.0181	2.8
-0.0023	-0.0091	-0.0053	-0.0135	2.8
0.0015	-0.012	-0.003	-0.0181	2.9
0.0015	-0.012	-0.0046	-0.0165	2.9
0.0015	-0.015	-0.0038	-0.0075	2.9
0.0022	-0.0128	-0.0015	-0.0105	3
0.0015	-0.003	-0.0038	-0.0181	3
0.0015	0.015	-0.003	-0.0181	3
0.0007	0.0127	-0.003	-0.0218	3
0	0.0105	-0.003	-0.0203	3
0	0.0195	-0.0008	-0.0218	3.1
0.0045	0.0052	-0.003	-0.0218	3.1
0.0015	-0.0015	-0.0023	-0.0195	3.1
-0.0008	-0.0023	0	-0.0225	3.1
0.0045	-0.003	0.0007	-0.0218	3.1
0.0022	-0.0008	-0.0015	-0.0225	3.1
0.0007	-0.0015	-0.0046	-0.0181	3.1
0	0.0015	-0.003	-0.0165	3.1
-0.0015	-0.0008	0	-0.0165	3.2
0.0007	-0.0015	0.0015	-0.0165	3.2
0.0015	-0.0046	0	-0.0188	3.2
0.0015	-0.0083	0.0015	-0.0188	3.2
0.0007	-0.0053	0.0052	-0.0203	3.2
0.003	-0.0023	0.0045	-0.0203	3.2
0.003	-0.0015	0.0067	-0.0203	3.2
0.003	-0.0023	0.0067	-0.0195	3.2
0.0045	-0.0015	0.0067	-0.0173	3.2
0.0045	-0.0023	0.0082	-0.0143	3.3
0.0052	0.0007	0.0067	-0.003	3.3
0.003	0.0045	0.0075	0.0007	3.3
-0.0008	-0.0075	0.0045	-0.0075	3.3
-0.0008	-0.0308	0.0007	-0.0158	3.3
0.0007	-0.0428	0.0007	-0.021	3.3
0.0015	-0.0375	0	-0.0181	3.3
0.0022	-0.0278	0.0015	-0.0158	3.4
0.0037	-0.0203	0.003	-0.0105	3.4
0.0015	-0.0105	0.003	-0.0075	3.4
-0.0008	0.0067	0.0045	-0.0075	3.4
0.0007	0.0345	0.0045	-0.003	3.4
0.0007	0.0645	0.006	-0.0083	3.5
-0.0008	0.0697	0.0052	-0.012	3.5
0.0015	0.042	0.0037	-0.015	3.5
0	0.0187	0.0045	-0.0188	3.5
0.0007	0.0127	0.0037	-0.0165	3.5
0.0037	0.0037	0.0007	-0.0158	3.6
0.0007	-0.0068	0.0007	-0.0135	3.6
0.0007	-0.0053	0.0015	-0.0143	3.6
0.003	-0.0083	0.0015	-0.0135	3.6
0.0022	-0.0128	0.0007	-0.0158	3.6
