File Name: 5Npie.log
Channel 1: 'RF', 15260 values, engineering units: mV, no filters.
Channel 2: 'BF', 15260 values, engineering units: mV, no filters.
Channel 3: 'VM', 15260 values, engineering units: mV, no filters.
Channel 4: 'ST', 15260 values, engineering units: mV, no filters.
Channel 5: 'FX', 763 values, engineering units: deg, no filters, extrapolated from 50 to 1000 samples per second.

0.0045	0.0022	0.0007	0.0037	2.6
0.0142	-0.006	0.0007	0	2.6
0.0165	-0.006	0	0	2.6
0.0165	-0.006	0	0.0007	2.6
0.018	-0.0091	-0.0015	-0.0008	2.6
0.0202	-0.0075	-0.0015	-0.0023	2.6
0.009	-0.006	0	-0.0015	2.7
-0.003	-0.0023	0.0007	0.0007	2.7
-0.0158	-0.003	0	-0.0008	2.7
-0.027	-0.0046	0.003	-0.0008	2.7
-0.0263	-0.0015	0.0045	-0.0015	2.7
-0.0195	-0.0046	0.0045	-0.0015	2.7
-0.0105	-0.003	0.0015	0	2.7
-0.0008	0.0045	-0.0015	-0.0008	2.7
0.0045	0.0007	-0.0046	-0.003	2.8
0.0105	-0.0046	-0.0053	-0.0008	2.8
0.0105	0.0052	-0.0068	-0.0008	2.8
0.0045	0.006	-0.0046	-0.0023	2.8
0.0007	-0.0015	-0.0038	-0.003	2.8
-0.0053	-0.0023	-0.0068	-0.0053	2.8
-0.0068	-0.0068	-0.0068	-0.0015	2.8
-0.003	-0.0046	-0.0023	-0.0008	2.8
-0.0008	-0.0023	-0.0015	-0.0015	2.8
0.0037	-0.0008	0.0007	0.0015	2.8
0.0067	0.0037	0.0075	0.0045	2.9
0.0105	0.0022	0.0097	0.0022	2.9
0.0217	0.0007	0.0075	0.0007	2.9
0.027	-0.0053	0.0045	0	2.9
0.0277	-0.003	0.0022	-0.003	2.9
0.0157	0.0015	0.0015	-0.0038	2.9
0.0067	0.0052	0.0022	-0.0015	2.9
0.009	0.0082	0.0007	-0.0008	2.9
0.0045	0.003	0.0015	-0.0008	2.9
0.0045	0.0015	0.0022	-0.0015	2.9
-0.0015	0.0007	0.0015	-0.0023	2.9
-0.0053	0.0007	0.003	-0.0008	2.9
-0.0008	0.0007	0.003	0.0007	2.9
-0.0046	0.0007	0.0022	-0.0008	3
-0.003	0.0022	0.0007	0	3
-0.0046	0.0015	0	0.0015	3
-0.0083	0.0037	-0.0008	0.0037	3
-0.0091	0.0015	-0.0046	0.0007	3
-0.012	0.0015	-0.0023	0.0015	3
-0.0075	-0.0008	0	0.0007	3
-0.0068	-0.003	0.0007	-0.0015	3
-0.003	0.0015	0.0022	0	3
0.0022	0.0015	0.0015	-0.0015	3
-0.0008	0.0015	0.0015	-0.0008	3
0.0022	-0.0015	0.0007	-0.0023	3
0	-0.0046	-0.0008	0.0007	3
0.0007	-0.0008	-0.0008	0.0015	3
0.0052	0	0.0015	-0.0015	3
0.0015	0.0007	0.0015	-0.0008	3
0.0045	0.0007	0.003	-0.0023	3
0.006	0.0015	0.003	0	3
0.0052	0.0015	0.003	-0.0008	3
0.0082	-0.0015	0.0015	-0.0015	3
0.006	-0.0008	0.0007	-0.0038	3
0.0052	-0.0015	-0.0008	-0.003	3
0.0052	-0.0015	-0.0008	-0.0008	3
0.0052	-0.0008	-0.0015	-0.0008	3
0.0052	-0.0015	-0.0015	0	3
0.0037	-0.0015	-0.003	-0.0015	3
0.0022	-0.0046	-0.003	0.0007	3
0.0045	-0.0046	-0.0015	0.0007	3
0.0045	-0.0038	-0.0008	0	3.1
0.003	-0.0023	0	-0.0008	3.1
0.0022	-0.0008	0	-0.0008	3.1
0	-0.0008	0	-0.0008	3.1
0.0022	0.0007	0.0007	-0.003	3.1
0.0045	-0.0008	0.0007	-0.0008	3.1
0.0045	-0.0008	0.0015	-0.0023	3.1
0.009	-0.0023	0.0007	-0.003	3.1
0.0067	-0.0083	0.0007	-0.0015	3.1
0.0045	-0.0083	-0.0015	-0.0008	3.1
0.0067	-0.0091	0.0007	-0.0008	3.1
0.0067	-0.0068	0.0015	-0.003	3.1
0.012	-0.0015	0.0007	-0.0015	3.1
0.0082	0.0052	0.0037	0.0007	3.1
-0.0008	0.0135	0.0067	0.0037	3.1
-0.0053	0.0157	0.0082	0.003	3.1
-0.015	0.0067	0.0037	-0.0023	3.1
-0.0173	-0.0053	0	-0.0023	3.1
-0.0143	-0.0128	-0.0046	-0.0023	3.1
-0.0105	-0.0173	-0.0068	-0.0038	3.1
-0.0038	-0.0165	-0.0068	-0.0015	3.1
0.0015	-0.0165	-0.0046	0.0007	3.1
0.0082	-0.0135	-0.003	0.0015	3.1
0.0142	-0.0091	-0.006	0.003	3.1
0.0112	0.0007	-0.0023	0.0045	3.1
0.0082	0.0247	0.0015	0.0045	3.1
0.009	0.0427	0.0045	0.006	3.1
0.0052	0.042	0.0052	0.0052	3.1
0.0045	0.03	0.0037	0.003	3.1
0.0022	0.021	0.0022	0.0015	3.1
-0.0105	0.012	0.0015	-0.0015	3.1
-0.0128	0.0007	0	-0.0015	3.1
-0.0098	-0.0015	-0.0008	-0.0015	3.1
-0.0098	-0.0068	0	-0.0038	3.1
-0.0015	-0.0113	-0.0015	-0.0015	3.1
-0.0015	-0.0083	-0.0015	0.0015	3.1
0.0007	-0.0091	-0.0023	0.0015	3.1
0.003	-0.0083	-0.0008	-0.0015	3.1
0.0007	-0.0068	0.003	-0.0015	3.1
0.0045	-0.006	0.0015	-0.0008	3.1
0.009	-0.003	0.0037	-0.0008	3.1
0.0165	-0.006	0.0037	-0.003	3.1
0.024	-0.006	0.0037	-0.0023	3.1
0.0225	-0.003	0.0052	0.0007	3.1
0.0142	-0.0046	0.0037	0.0015	3.1
0.0082	-0.0023	0.0015	0.0045	3.1
0	-0.0008	-0.003	0.0045	3.1
-0.0075	-0.0015	-0.003	0.0045	3.1
-0.0091	-0.0015	0	0.0015	3.1
-0.012	-0.0046	-0.0015	0	3.1
-0.0113	-0.0015	0.0007	0.0022	3.1
-0.0053	0.0007	0.0007	0	3.1
-0.0015	0.0015	-0.0008	-0.0008	3.1
0.0007	-0.0008	-0.0008	-0.003	3.1
-0.0008	-0.0038	0	-0.0053	3.1
0.0022	-0.0046	0.0037	-0.0053	3.1
0.006	-0.003	0.0007	-0.0015	3.1
0.0067	0	-0.0015	-0.0015	3.1
0.0067	0	-0.003	-0.0023	3.1
0.0067	-0.0008	-0.003	0	3.1
0.0067	-0.0046	-0.0008	-0.0008	3.2
0.0052	-0.0068	-0.0015	-0.0008	3.2
0.009	-0.0075	-0.0008	-0.0008	3.2
0.0097	-0.0068	-0.0008	-0.0008	3.2
0.0112	-0.0068	-0.0008	0.003	3.2
0.0127	-0.0075	-0.003	0.003	3.2
0.0082	0.0015	-0.0023	0.003	3.2
0.009	0.0165	-0.0008	0.0022	3.2
0.0007	0.0157	-0.0008	0.0007	3.2
0.0015	-0.0008	0.0015	-0.0008	3.2
0.0015	0.0007	0.0015	-0.003	3.2
-0.0053	0.0105	0.003	-0.003	3.2
-0.003	0.006	0.003	-0.0015	3.2
-0.0053	-0.0015	0.003	-0.0015	3.2
-0.006	-0.0083	0.0007	-0.0023	3.2
0	-0.006	-0.0015	0	3.2
0.0045	0.003	0	0.0022	3.2
0.003	0.0187	0.003	0.0022	3.2
0.0015	0.0262	0.0037	0.0015	3.2
0	0.0172	0.0052	0.0015	3.2
-0.0008	0.006	0.003	0.0015	3.2
-0.0046	0.0045	0.0007	0.0022	3.2
-0.0053	0.0052	-0.0008	0.0007	3.2
-0.0015	-0.0015	-0.0023	-0.0015	3.2
-0.0023	-0.006	0.0015	-0.0038	3.2
0	-0.0105	0.0015	-0.003	3.3
-0.003	-0.0105	0.003	-0.0015	3.3
-0.0038	-0.0091	0.0007	-0.0015	3.3
-0.003	-0.0053	-0.0015	-0.003	3.3
-0.0046	-0.0046	0.0007	-0.003	3.3
-0.0046	-0.0046	0	-0.0008	3.3
-0.006	-0.0015	0.0015	0.0037	3.3
0.0007	-0.0008	-0.0008	0.0045	3.3
0.0052	-0.0015	0.0007	0.0052	3.3
0.003	-0.0015	0.003	0.0015	3.3
0.0037	0	0.0045	-0.0008	3.3
0.0045	-0.0015	0.0052	-0.0008	3.3
0.0097	0	0.0045	-0.0008	3.3
0.0142	-0.0015	-0.0008	0	3.3
0.0165	-0.0053	-0.006	-0.0038	3.3
0.0082	-0.0046	-0.0038	-0.003	3.3
-0.0015	-0.0068	-0.0015	-0.003	3.3
-0.0068	-0.0098	-0.0023	-0.003	3.3
-0.0143	-0.0083	-0.0008	-0.003	3.3
-0.0158	-0.0068	-0.0015	-0.003	3.3
-0.0181	-0.0046	-0.0008	0.0007	3.3
-0.0091	-0.0023	0.0015	0.0007	3.3
0.0007	-0.0015	0.0022	0.0007	3.3
0.0037	-0.0008	0.0037	0.0007	3.3
0.012	0	0.0045	-0.0008	3.3
0.009	0.0007	0.0037	0.0007	3.3
0.009	0.0007	0.0015	0.0007	3.3
0.0105	0.0007	0.0015	-0.0023	3.3
0.009	0.0022	0.0007	-0.003	3.3
0.0112	0.0037	-0.0015	-0.0015	3.3
0.0045	0.0015	-0.0015	-0.0008	3.3
0.0037	0.0022	-0.0008	-0.0008	3.3
0.0015	0.0022	0.0007	-0.0008	3.3
0.0037	0.0015	-0.0015	0.0015	3.3
0.0075	0	-0.0008	0.003	3.3
0.0052	-0.003	0.0007	0.0022	3.3
0.0052	-0.0046	0.0015	0.0015	3.3
0.0045	-0.0038	0.0007	0.0015	3.3
0.0045	-0.0008	0.0007	-0.0008	3.3
0.0052	0.0075	0.0007	-0.0015	3.3
0.0015	0.0105	0.0015	0.0022	3.3
0.0015	0.0067	0.0015	0.0015	3.3
-0.0015	0.0052	-0.0008	0.0007	3.3
-0.0038	0.006	0.0007	-0.0008	3.3
0.0007	0.003	0.0022	0.0007	3.3
0	0.0022	0.0015	0.0015	3.3
0.0022	-0.0015	0.0007	-0.0015	3.3
-0.0008	-0.0083	-0.0015	-0.0015	3.3
-0.006	-0.0105	0.0007	-0.0023	3.3
-0.003	-0.0083	0.0022	-0.0008	3.3
-0.0023	-0.0091	0.0037	-0.0015	3.3
0.0015	-0.012	0.0015	-0.003	3.3
0.003	-0.0098	-0.0023	-0.0015	3.3
0.0022	-0.0068	0	-0.0008	3.3
0.0022	-0.0046	-0.0008	0.0007	3.3
0.0052	-0.0105	0	-0.0008	3.3
0.0022	-0.0068	0.0007	-0.0008	3.3
0.003	0.0082	0	0.003	3.3
0.003	0.0255	0.0007	0.003	3.3
0	0.0352	0.0007	-0.0008	3.3
0.0045	0.027	0.0015	-0.0015	3.3
0.0007	0.0142	-0.0008	-0.003	3.3
0.0037	0.0052	-0.0015	-0.003	3.3
0.0075	-0.0015	-0.0008	-0.0015	3.3
0.0105	-0.0053	0	-0.0008	3.3
0.0135	-0.0068	-0.0008	0.0015	3.3
0.0067	-0.0053	-0.0008	0.0015	3.3
0.0045	-0.006	-0.0015	0.0007	3.3
0.003	-0.0046	-0.0046	-0.0015	3.3
0	-0.0046	-0.0053	-0.0046	3.3
0	-0.0046	-0.0053	-0.0046	3.3
0.0007	-0.003	-0.003	-0.0053	3.3
-0.0015	0	0.0015	-0.0015	3.3
-0.0008	-0.0015	0.0015	0	3.3
0.0022	-0.0046	0.0007	0.0022	3.3
0.0037	-0.006	-0.0008	0.0015	3.3
0.009	-0.006	-0.0008	-0.0015	3.3
0.0082	-0.003	0.0015	0.0045	3.3
0.0082	-0.0023	0.0037	0.0037	3.3
0.0105	-0.003	0.006	0.0007	3.3
0.0045	0.0007	0.0052	0.003	3.3
0.0045	0.0052	0.003	0.003	3.3
0.0045	0.003	0.0015	0.0015	3.3
-0.0015	-0.0008	0.0037	-0.0008	3.3
-0.0008	-0.0008	0.0037	-0.0008	3.3
0	-0.0046	0.0007	0	3.3
-0.0008	-0.0083	0	0	3.3
-0.0015	-0.0068	-0.0015	-0.0008	3.3
-0.0008	-0.0068	-0.0015	-0.003	3.3
-0.0023	-0.0053	0.0007	-0.0015	3.3
-0.0015	-0.0015	0.0007	0	3.3
0	-0.0008	0.0022	0.0007	3.3
0	0.009	0.0022	-0.0008	3.3
0.0015	0.0232	0.0015	-0.0015	3.3
-0.0046	0.018	0.0007	0	3.3
-0.0008	0.0007	-0.0008	-0.0008	3.3
0.0082	-0.0008	-0.0015	0.0007	3.3
0.0082	-0.0015	-0.0008	-0.0015	3.3
0.009	-0.0015	-0.0008	-0.003	3.3
0.0067	-0.0046	-0.0038	-0.0008	3.3
0.0015	-0.0075	-0.003	-0.0015	3.3
-0.0015	0.0015	-0.003	-0.0008	3.3
-0.0053	0.006	-0.0053	-0.0008	3.3
-0.0128	0.0165	-0.003	0.0007	3.3
-0.012	0.0105	-0.003	0.0007	3.3
-0.0068	-0.0068	0	-0.003	3.3
-0.0046	-0.0098	0.0015	-0.0015	3.3
-0.0008	-0.0158	0.0015	-0.003	3.3
-0.003	-0.0181	0.003	-0.0023	3.3
0	-0.0218	0.003	0.0007	3.3
0.0007	-0.0181	0.0045	0.0007	3.3
0	0.0045	0.003	0.0015	3.3
0.0037	0.0217	-0.0008	0.0007	3.3
0.003	0.024	-0.0038	0.0022	3.3
0.0045	0.0165	-0.0015	0.0007	3.3
0.006	0.012	0	0.0007	3.3
0.0052	0.0067	-0.0008	-0.0008	3.3
0.0067	0.0007	0	-0.0008	3.3
0.006	-0.0008	-0.0015	0.0015	3.3
0.003	-0.0023	0	-0.0015	3.3
0.0015	-0.0015	0.0015	0.0015	3.3
0.0007	-0.0038	0.0015	0.0007	3.3
-0.0008	-0.003	0.0007	-0.0015	3.3
0.0022	-0.0015	-0.0015	-0.0008	3.3
0.003	-0.0068	-0.0008	-0.0023	3.3
0.0045	-0.0068	0	0.0007	3.3
0.0052	-0.0053	0.0007	0.0007	3.3
0.0015	-0.003	0.003	-0.0015	3.3
0.0022	-0.0046	0.0007	-0.0053	3.3
0.0052	-0.0015	0.003	-0.0091	3.3
0.0045	-0.003	0.0045	-0.0053	3.3
0.006	-0.0015	0.0045	0.0007	3.3
0.0052	0.0037	0.0045	0.003	3.3
0.0052	0.0067	0.0015	0.003	3.3
0.0037	0.0075	0.0022	-0.003	3.3
0.003	0.0037	0	-0.0038	3.4
0.0015	0.0037	-0.0015	-0.0008	3.4
0.0037	0.0022	0.0007	-0.0008	3.4
0.0022	0.0022	0.0007	0.0007	3.4
0.0015	0.0015	0.0015	0.0015	3.4
0.003	-0.0015	0.0015	0.0045	3.4
-0.003	-0.003	0	0.0015	3.4
-0.0053	-0.0083	-0.0008	0.0052	3.4
-0.0091	-0.0075	-0.0008	0.0052	3.4
-0.0053	-0.0038	0.0007	0.0022	3.4
0	-0.003	0.0015	0.0015	3.4
0.003	0.003	-0.0008	-0.0008	3.4
0.0082	0.0045	0.0022	-0.0015	3.4
0.0112	0.0015	0.0015	-0.0015	3.4
0.012	-0.0008	0.0015	0.0007	3.4
0.0157	-0.0008	0.0007	0.0015	3.4
0.015	0.0007	-0.003	0.003	3.4
0.0142	0.0015	-0.0015	0.0045	3.4
0.0127	0.0007	-0.0038	0.0037	3.4
0.0045	-0.0015	-0.003	0.0022	3.5
0.0045	-0.0008	-0.0023	0.003	3.5
0.0015	0.0015	-0.0008	0.0015	3.5
-0.0008	0.0015	0.0015	0	3.5
0.0015	0.0037	0.0022	-0.0015	3.5
-0.0008	0.0015	0.0015	-0.0053	3.5
-0.0015	0.0007	0.0007	-0.006	3.5
-0.0008	-0.0023	0	-0.0046	3.5
-0.0038	-0.0015	0.0007	-0.0008	3.5
-0.0046	-0.0015	0.0015	-0.0008	3.5
-0.0023	-0.0008	-0.0015	-0.0008	3.5
0.0007	0.0007	0	-0.0015	3.5
0.0037	-0.0008	0.0015	-0.0046	3.5
0.003	0	0.0015	-0.003	3.6
0.0022	-0.0015	0.0015	-0.0046	3.6
0.0052	-0.0015	0.0007	-0.003	3.6
0.0082	-0.0015	0.003	-0.0008	3.6
0.012	-0.0015	0.0015	0.0022	3.6
0.0112	0.0022	0.0007	0.0037	3.6
0.0075	0.0067	0.0022	0.003	3.6
0.0075	0.009	0.0007	0.0045	3.6
-0.0008	0.0007	-0.0008	0.003	3.6
-0.0098	-0.0068	-0.003	-0.0008	3.6
-0.0188	-0.0023	-0.0046	-0.0053	3.6
-0.0256	-0.003	-0.0015	-0.0046	3.6
-0.021	-0.0068	-0.0008	-0.0046	3.6
-0.0135	-0.003	0.0015	-0.003	3.6
-0.006	-0.0083	0.0007	-0.003	3.6
0.0015	-0.0188	0.0015	-0.0046	3.6
0.003	-0.0203	0.0007	-0.0046	3.6
0.0037	-0.0173	0.0007	-0.0038	3.6
0.0075	-0.0181	0.003	-0.003	3.6
0.0052	-0.0195	-0.0008	-0.0015	3.6
0.0067	-0.015	-0.003	-0.0015	3.7
0.0075	-0.0053	-0.0038	0	3.7
0.006	0.0225	-0.003	0.0007	3.7
0.0052	0.0495	-0.0008	-0.0008	3.7
0.0007	0.0427	0.0007	-0.0008	3.7
-0.0015	0.018	-0.0008	-0.0008	3.7
0.003	0	0.0007	0.0007	3.7
0	0.0112	0.0007	0	3.7
0.0015	0.0165	0.0015	0.0052	3.7
0.0052	0.018	0.0052	0.0112	3.7
0	0.0217	0.0037	0.006	3.7
0.0007	0.0052	0.0045	0.0045	3.8
0.0007	-0.0008	0.003	0.0015	3.8
-0.0008	-0.0046	0.003	-0.0015	3.8
0.0015	-0.0046	0.0037	-0.0008	3.8
-0.0015	-0.006	0.0007	-0.0068	3.8
-0.0015	-0.0105	0.0007	-0.0046	3.8
0.0007	-0.0091	-0.0023	0.003	3.8
-0.0008	-0.0135	-0.0008	0.0045	3.8
0.0015	-0.0128	0.0007	0.0052	3.8
0.0045	-0.0091	0	0.003	3.8
0.0067	-0.0091	0.0015	0.0015	3.9
0.0105	-0.0083	0.0022	0.0015	3.9
0.0082	-0.0015	0.0022	0.0007	3.9
0.0052	0.009	0.003	0.003	3.9
0.0045	0.0045	0.0037	0.0007	3.9
0.003	-0.0046	0.0015	0.0007	3.9
0.0007	-0.0068	-0.0008	-0.0008	3.9
0.0015	-0.0091	-0.0023	-0.003	4
-0.0015	-0.003	0.0007	-0.003	4
-0.0008	0.0007	0.0015	-0.0038	4
0.0037	0.0045	0.0015	0.0007	4
0.0045	0.0045	0.0022	0	4
0.0097	0.0007	0.0015	-0.0008	4
0.0097	0.0007	0.0007	-0.0008	4
0.009	0.0007	0.0007	-0.003	4
0.0045	-0.0008	0.0007	-0.0046	4
0.0007	-0.0023	0.0007	-0.0075	4
0	-0.003	0.0022	-0.0075	4.1
-0.0015	-0.003	0.0015	-0.0023	4.1
-0.0008	-0.003	0.0015	0.0045	4.1
0.003	-0.0015	0.0007	0.0052	4.1
0.0022	-0.0008	0.0015	0.0045	4.1
0.0022	0.0007	0.0045	0.0045	4.1
0.0067	0.0015	0.003	0.0015	4.1
0.0037	0	0.0022	0.0045	4.2
-0.0008	-0.0008	0.003	0.003	4.2
0	0.0007	0.003	0.0045	4.2
-0.0008	-0.0038	0.0015	0.0067	4.2
-0.0015	-0.0053	0	0.0015	4.2
-0.0008	-0.0083	-0.0038	-0.0083	4.3
-0.0046	-0.0135	-0.003	-0.0143	4.3
-0.0046	-0.0195	-0.0015	-0.0173	4.3
-0.003	-0.0203	-0.003	-0.024	4.3
-0.0008	-0.0143	-0.0008	-0.0165	4.3
0.0045	-0.0091	-0.0008	0.0105	4.4
0.0075	-0.0046	0.003	0.0315	4.4
0.0067	-0.0038	0.0052	0.0225	4.4
0.0067	0.0007	0.0045	0.0127	4.4
0.0052	0.018	0.0045	0.0075	4.4
0.009	0.0352	0.0022	0.0037	4.5
0.0082	0.0307	0.003	0.0037	4.5
0.0067	0.018	0.0015	-0.0015	4.5
0.0075	0.0142	-0.0015	-0.0008	4.5
0.0052	0.0097	-0.003	-0.0053	4.5
0.0037	0.0067	-0.003	-0.0053	4.5
-0.0008	0.0105	-0.0015	-0.003	4.5
-0.0015	-0.003	-0.0023	-0.003	4.6
-0.0015	-0.0195	-0.0015	0	4.6
-0.0023	-0.0218	-0.0008	-0.0015	4.6
0.0015	-0.0256	-0.0008	-0.0015	4.6
0.0015	-0.0203	0.0015	-0.0038	4.6
0.0007	0.0007	0.0022	-0.0038	4.7
0.0007	0.0195	0.003	-0.006	4.7
0	0.0397	0.0015	-0.0083	4.7
-0.0015	0.057	-0.0008	-0.0068	4.7
0.0015	0.0262	-0.0015	-0.0105	4.7
0	-0.0053	-0.0015	-0.012	4.8
0.003	-0.0083	0.0015	-0.0091	4.8
0.0052	-0.0195	0.0007	-0.003	4.8
0.003	-0.0098	-0.0008	0.003	4.8
0.0067	-0.0023	-0.0015	0.0067	4.8
0.0015	-0.0015	-0.0046	0.0082	4.9
0.003	-0.0068	-0.003	0.0097	4.9
0.0045	-0.0135	-0.0015	0.0082	4.9
0.0007	-0.0008	0.0007	0.0007	4.9
0.0067	0.0097	0.003	0.0015	4.9
0.009	0.0082	0.0015	0	5
0.0082	-0.0008	-0.0023	-0.0008	5
0.0075	0.0052	-0.0046	-0.0023	5
0.0045	0.0015	-0.0046	-0.0046	5.1
0.003	0.0022	-0.0046	-0.006	5.1
0.0007	0.0045	-0.0015	-0.0068	5.1
-0.0053	-0.003	-0.003	-0.0068	5.2
-0.0053	-0.0008	-0.0038	-0.0075	5.2
-0.0046	-0.0105	-0.0038	-0.003	5.2
-0.0038	-0.012	-0.0046	0.0015	5.3
0.0045	-0.0105	-0.0008	0.0045	5.3
0.0045	-0.0128	0.0007	0.0067	5.3
0.0045	-0.0098	0.0015	0.0052	5.3
0.0037	-0.0128	0.0015	0.0052	5.4
0.0007	-0.0128	0	0.0007	5.4
-0.0008	-0.003	-0.0008	-0.0008	5.4
-0.0046	0.012	-0.0008	0.0015	5.5
-0.0046	0.012	-0.0015	0.0142	5.5
-0.0008	0.006	-0.0008	0.0255	5.5
0.0015	0.003	0.0007	0.0142	5.6
-0.0008	-0.0128	0.0022	0.0075	5.6
0.0007	-0.0405	0.0045	-0.0083	5.7
0.003	-0.0593	0.0015	-0.0203	5.7
0.0007	-0.0585	0.0007	-0.0195	5.7
0.0045	-0.0518	0.0015	-0.0203	5.8
0.0022	-0.039	0	-0.0233	5.8
0.0015	-0.0233	0.0022	-0.0233	5.8
0.0045	-0.003	0.003	-0.0038	5.8
0.0022	0.0375	0.0052	0.0045	5.8
0.006	0.0802	0.006	0.0052	5.9
0.006	0.0937	0.0015	0.0045	5.9
0.0015	0.102	0.0015	0.0097	6
0.0007	0.087	-0.0015	0.0202	6
-0.0038	0.0345	0	0.0052	6
-0.0038	0.009	-0.0008	-0.0038	6.1
0	0	-0.0015	-0.0128	6.1
-0.0038	-0.012	0.0007	-0.012	6.1
-0.0068	-0.0203	0	0.0037	6.2
-0.0053	-0.0256	0.0015	0.0142	6.2
-0.0015	-0.027	0	0.0277	6.3
0	-0.0323	0.003	0.0217	6.3
0.0022	-0.0368	0.0007	0.0082	6.3
0.0007	-0.0346	-0.0015	0.0007	6.3
0.0015	-0.0233	-0.0008	-0.0046	6.4
-0.0008	-0.0053	-0.0015	-0.003	6.4
-0.003	0.0142	-0.0015	0.0015	6.5
0.003	0.0105	-0.0015	0.009	6.5
-0.0008	-0.0113	-0.0015	0.0142	6.5
-0.003	-0.0091	0.0007	0.009	6.6
-0.0008	0.0195	0.0022	0.0075	6.6
-0.0023	0.0525	0.003	0.0045	6.7
0.0015	0.0562	0.0045	0.0007	6.7
0.0022	0.036	0.003	-0.0038	6.7
0.0067	0.024	0.003	-0.0105	6.7
0.0127	0.018	0.0045	-0.0046	6.8
0.0135	0.0052	0.0052	-0.0015	6.8
0.0112	-0.0008	0.0052	-0.0015	6.9
0.0082	-0.0143	0.0022	-0.0046	6.9
0.003	-0.0233	0.003	-0.0083	7
-0.0008	-0.0233	0.0015	-0.0098	7
-0.0015	-0.0248	-0.0008	-0.0083	7.1
-0.003	-0.0158	0	-0.0083	7.2
0.0007	-0.0083	0.0007	-0.0098	7.2
0.0015	-0.0038	-0.0008	-0.0068	7.2
-0.0015	-0.003	-0.003	-0.006	7.3
0.003	-0.0075	0.0007	-0.0046	7.3
0.0007	-0.0128	-0.0008	-0.003	7.4
0.0015	-0.021	-0.003	-0.0023	7.5
0.003	-0.0218	-0.0046	-0.0015	7.5
-0.003	-0.0181	-0.003	-0.0091	7.6
-0.0015	-0.0128	-0.003	-0.015	7.6
-0.003	-0.0083	-0.0008	-0.0143	7.6
-0.0023	-0.0075	-0.0008	-0.0143	7.7
0.003	-0.0075	-0.0008	-0.0158	7.8
0.0045	-0.0046	-0.0008	-0.0128	7.8
0.0015	0.0045	-0.0008	-0.0128	7.9
0.0015	0.024	0.0007	-0.0181	7.9
-0.003	0.042	0.0007	0.0037	8
-0.003	0.0307	0.003	0.054	8.1
-0.0008	0.0015	0.0015	0.0517	8.1
-0.003	-0.0068	0	0.0255	8.1
0.0007	-0.0158	0	0.0202	8.2
0.0007	-0.0105	0	0.0007	8.3
0.003	-0.0053	0.0015	0.003	8.3
0.0037	-0.0083	0.0037	-0.003	8.4
0.0007	-0.0008	0.003	-0.0083	8.5
0.0045	-0.0023	0.003	-0.0046	8.5
0.0045	0.0045	0.0022	-0.0098	8.5
0.003	0.0045	0	-0.0046	8.6
0.0037	0.003	0.0007	-0.006	8.7
0.0007	0.0037	-0.0008	-0.0053	8.7
0.0015	0.003	0.0007	-0.0046	8.8
0.003	0.006	0.0015	-0.0015	8.9
0.0015	0.0007	0.0007	-0.0023	8.9
0.0015	0.0007	0.0015	-0.0053	9
0.0045	-0.0105	0.0015	-0.0015	9
0.0052	-0.0256	0.0007	-0.0046	9.1
0.009	-0.0256	0.0007	-0.003	9.2
0.006	-0.0263	0.0007	-0.0038	9.2
0.0045	-0.0225	0.0015	-0.003	9.3
0.0052	-0.0165	-0.0015	-0.0053	9.4
0.003	-0.0075	-0.0015	-0.006	9.4
0.006	0.0007	0.0007	-0.0046	9.5
0.0052	0.018	0.0007	-0.0091	9.6
0.003	0.0532	0.0022	-0.0046	9.6
0.0052	0.0592	0	-0.0068	9.7
0.003	0.0232	-0.0015	-0.0143	9.8
0.0037	-0.003	-0.0008	-0.0158	9.9
0.0045	-0.0233	-0.0023	-0.0165	9.9
0.003	-0.0585	-0.0023	-0.0113	10
0.0067	-0.0968	-0.0053	-0.0098	10.1
0.0067	-0.1185	-0.003	0.0105	10.1
0.0075	-0.1021	0	0.036	10.2
0.0082	-0.0608	0.0007	0.0225	10.3
0.0037	0.0015	0.0052	0.015	10.3
0.003	0.0712	0.0082	0.0262	10.4
0.003	0.1335	0.0082	0.0277	10.5
0.003	0.1942	0.0067	0.0255	10.6
0.0067	0.1837	0.0067	0.0172	10.6
0.0052	0.108	0.0075	0.0052	10.7
0.0045	0.0435	0.0045	0.0007	10.7
0.003	-0.0203	0	-0.0068	10.8
-0.0008	-0.0405	-0.0008	-0.0128	10.9
0.0052	-0.0443	-0.003	-0.0091	11
0.003	-0.045	-0.003	-0.0046	11.1
0.0037	-0.027	-0.0023	-0.006	11.1
0.0075	-0.0218	-0.0015	-0.012	11.2
0.0082	-0.0046	-0.003	-0.0091	11.3
0.012	0.0082	-0.003	-0.0113	11.3
0.0105	0.0217	0.0007	-0.0143	11.4
0.0082	0.0225	-0.0008	0.0022	11.5
0.0052	0.0165	0	0.0157	11.6
0.0007	0.0082	0.0045	0.0195	11.7
-0.0015	-0.0165	0.0045	0.0217	11.7
0.0007	-0.027	0.0022	0.0232	11.8
-0.0038	-0.0353	0	0.0157	11.8
-0.0046	-0.03	-0.0015	0.006	11.9
-0.0015	-0.0181	-0.003	-0.0015	12
-0.006	-0.0158	-0.003	-0.0053	12.1
-0.0023	-0.0053	-0.0008	-0.0046	12.1
-0.0008	-0.003	-0.0008	-0.0075	12.1
-0.0038	-0.0023	0.0007	-0.0105	12.2
0.0022	-0.0008	-0.0008	-0.012	12.3
0.0007	-0.0053	-0.0015	-0.0105	12.3
0.003	-0.0105	-0.0008	-0.0098	12.4
0.0045	-0.0113	-0.0008	-0.0098	12.5
0.0037	-0.0188	0.0007	-0.0068	12.5
0.0067	-0.024	0	-0.0038	12.6
0.0007	-0.0263	0	0.0007	12.6
0	-0.0368	-0.0023	0.0007	12.7
0.0022	-0.0405	-0.0015	0	12.7
-0.0008	-0.0353	-0.0008	-0.0008	12.8
0.003	0.0052	-0.003	0.0007	12.9
0.0007	0.0645	0.0007	-0.0023	12.9
0	0.0427	-0.0015	-0.0181	13
-0.0008	-0.0068	-0.0046	-0.0256	13
-0.003	-0.0128	-0.003	-0.024	13.1
0.003	-0.03	-0.006	-0.0285	13.2
-0.0015	-0.0233	-0.003	-0.0293	13.2
-0.0046	-0.0195	-0.0023	-0.033	13.3
-0.0023	-0.003	-0.0015	-0.0458	13.4
-0.0053	0.0652	0.0045	-0.0361	13.5
-0.0015	0.0975	0.006	-0.0083	13.5
0.0007	0.1237	0.0067	0.0165	13.6
0	0.1222	0.0045	0.0247	13.6
0.0015	0.009	-0.0008	0.0307	13.7
0.0007	-0.0923	-0.0038	0.036	13.8
-0.006	-0.0878	-0.0008	0.0487	13.9
-0.0083	-0.093	0.0015	0.0585	13.9
-0.0038	-0.0668	0.0022	0.0405	13.9
-0.0038	-0.0158	0.0052	0.027	14
-0.003	0.0075	0.0067	0.0255	14.1
0.0015	0.0397	0.009	0.045	14.2
0.0015	0.0465	0.006	0.033	14.3
0.0015	0.0382	-0.0008	0.0045	14.3
-0.0015	0.0292	-0.0023	0.006	14.4
-0.0015	0.0232	-0.0008	-0.0046	14.4
0.0015	0.015	0.0015	-0.003	14.5
0.003	0.0015	0.0015	-0.0053	14.6
0.003	-0.0203	0.003	-0.0091	14.6
-0.0008	-0.0233	0.0015	-0.012	14.7
-0.0038	-0.0128	-0.0015	-0.0233	14.8
-0.0015	-0.012	-0.0015	-0.024	14.8
-0.0008	-0.0098	-0.0023	-0.0278	14.9
0.0007	-0.0068	-0.0015	-0.0285	14.9
0.0045	-0.0023	-0.0008	-0.0278	15
0.0045	-0.0083	0.0015	-0.0158	15.1
0.009	-0.024	0.0037	-0.0038	15.1
0.0052	-0.0315	0.003	-0.0068	15.2
0.0052	-0.012	0.0007	-0.0143	15.3
0.0097	-0.012	-0.0015	-0.024	15.3
0.0082	-0.0105	-0.0008	-0.0203	15.4
0.0075	0.018	0.0015	-0.003	15.4
0.0045	0.0262	0.003	0.009	15.5
0.0067	0.0367	0.0037	0.024	15.6
0.009	0.0547	0.003	0.0345	15.7
0.0082	0.0457	0.0015	0.0345	15.7
0.0082	0.0052	0.0007	0.0337	15.8
0.0037	-0.0278	-0.0015	0.0292	15.9
0.0015	-0.0315	-0.003	0.0292	16
0.0045	-0.0203	-0.003	0.0247	16.1
0.0015	-0.0068	-0.003	0.0135	16.2
0.0045	0.0015	-0.0015	0.0045	16.2
0.0037	0.0052	-0.0023	-0.003	16.3
0.0045	-0.0023	-0.0046	-0.0053	16.4
0.0075	-0.0128	-0.006	-0.0105	16.5
0.006	-0.0233	-0.0046	-0.0128	16.6
0.0022	-0.0353	-0.0015	-0.0143	16.6
0.003	-0.0308	-0.0008	-0.0143	16.7
0.0045	-0.0225	0.0022	-0.012	16.8
0.0007	-0.024	0.0022	-0.012	16.9
0.0052	-0.0195	0.003	-0.0113	17
0.003	0.0007	0.0037	-0.0128	17.1
0.0045	-0.0278	0.0015	-0.0181	17.2
0.0067	-0.0691	0.003	-0.0203	17.3
0.0007	-0.0383	-0.0008	-0.0248	17.4
0.0052	-0.0105	0	-0.0256	17.5
0.003	0.051	0	-0.0068	17.5
0.0045	0.1425	0.0007	0.0142	17.6
0.0067	0.1005	0.0052	0.0195	17.7
0.0015	0.0472	0.0052	0.0232	17.9
0.003	0.0442	0.0045	0.0225	18
0.0037	0.003	0.0067	0.0097	18
0.003	0.0202	0.0067	-0.006	18.1
0.0007	0.0165	0.0015	-0.0158	18.2
0.003	0.0067	0.0022	-0.0225	18.3
0.003	0.0435	0.0015	-0.0293	18.4
0.0052	0.0255	-0.0008	-0.0293	18.5
0.0067	0.009	0.0007	-0.024	18.6
0.0067	-0.0046	0.0015	-0.0098	18.7
0.0082	0	0.0022	0.0045	18.8
0.0045	-0.0158	0.0015	0.0157	18.9
0.0037	-0.0638	-0.0008	0.024	19
0.0007	-0.066	0.0007	0.033	19.1
0.0007	-0.0593	0.0022	0.0405	19.2
0.0037	-0.0293	0.003	0.03	19.3
0.0007	0.009	0.003	0.015	19.4
0.0022	0.0112	-0.0015	0.0015	19.5
0.0007	0.003	-0.0046	0.0045	19.6
0.0007	-0.0008	-0.0015	0.0045	19.7
0.0045	-0.0256	0	-0.003	19.8
0.003	-0.0256	-0.0023	-0.0046	19.9
0.0007	-0.0188	-0.003	-0.003	20
-0.0008	-0.0256	0	-0.0015	20.1
-0.0008	-0.0053	0.0007	-0.0075	20.2
-0.0008	0.003	0	-0.0098	20.2
-0.003	0.0232	0	-0.0113	20.4
-0.0068	0.039	-0.0038	-0.0091	20.5
-0.006	0.042	-0.0053	-0.0091	20.6
-0.0053	0.042	-0.0053	-0.0046	20.7
-0.0053	0.0202	-0.0046	0.0022	20.7
-0.0015	-0.0015	-0.0023	0.0007	20.8
-0.0008	-0.0135	-0.003	0.0015	20.9
0.0015	-0.0203	0	-0.0023	21.1
0.003	-0.021	0.0015	-0.0053	21.1
-0.0008	-0.0046	0.0007	-0.0046	21.2
0	0.0052	0.0007	-0.0053	21.3
0.0022	0.0097	-0.003	-0.0098	21.4
-0.003	0.012	-0.0015	-0.0158	21.5
-0.003	0.0082	-0.0008	-0.0165	21.6
-0.003	0.0045	0.0015	-0.0181	21.7
-0.0015	-0.0023	0.0037	-0.012	21.9
0	-0.0023	0.0045	-0.003	22
-0.0023	-0.0038	0.003	0.0142	22
0	-0.0113	0.0015	0.0277	22.2
-0.0015	-0.0285	0.0022	0.0255	22.3
-0.0046	-0.0346	-0.003	0.0262	22.4
-0.0038	-0.024	-0.003	0.0195	22.5
-0.0046	-0.0308	0.0007	0.006	22.6
-0.0008	-0.048	0	-0.0046	22.7
0.0015	-0.0383	0.0007	-0.0135	22.8
0.0007	-0.012	0.0015	-0.024	22.9
0.0015	0.0105	0.0022	-0.0368	23
0.0015	0.0345	0.0007	-0.0428	23.1
0.0007	0.0307	-0.0008	-0.0383	23.2
0.0045	0.0255	0.0007	-0.024	23.4
0.0045	0.036	0.0007	-0.012	23.4
0.0045	0.078	0.0007	-0.0046	23.6
0.0082	0.0825	0.0022	0.009	23.7
0.003	0.018	0.0037	0.0157	23.8
0.003	0.0105	0.003	0.0082	23.9
0.0015	0.0135	0.0037	0.0037	24.1
0.0007	-0.012	0.003	0.003	24.2
0.0007	-0.054	0.0022	0.0075	24.3
0.0007	-0.0743	0.0045	0.0255	24.4
0.0052	-0.0443	0.006	0.0322	24.6
0.0067	-0.0008	0.003	0.0352	24.7
0.0052	0.0412	0.0045	0.0517	24.8
0.0052	-0.0188	0.0052	0.0562	24.9
0.0015	-0.0443	0.0015	0.0487	25.1
-0.0008	-0.0143	0.0007	0.0285	25.2
0.0007	-0.0278	-0.0015	0.0045	25.3
-0.0023	-0.0098	-0.003	-0.0091	25.4
-0.0008	-0.012	-0.003	-0.0188	25.6
0.0022	0.0045	-0.003	-0.015	25.6
0.0045	0.0232	-0.003	-0.0158	25.8
0.0067	0.0112	-0.0053	-0.0195	25.9
0.0052	0.0187	-0.0053	-0.0165	26.1
0.003	0.0255	-0.0008	-0.0098	26.2
0.0052	0.0292	0	0.0052	26.3
0.0052	0.0225	-0.0015	0.0045	26.5
0.006	0.0225	-0.0015	0	26.6
0.006	0.0337	-0.0015	-0.0158	26.7
0.0015	0.0037	-0.0023	-0.027	26.9
0.003	-0.0323	0	-0.021	27
0.0045	-0.0308	0.003	-0.015	27.1
0.0052	-0.0323	0.0052	-0.003	27.3
0.0067	-0.021	0.0045	0.003	27.4
0.006	-0.0105	0.003	0.0142	27.6
0.0045	-0.0053	0.0015	0.0195	27.7
0.0045	0.0037	0.0022	0.0052	27.9
0.006	-0.0023	0.003	-0.0165	28
0.0052	0.0135	0.0037	-0.0248	28.1
0.006	0.0292	0.0045	-0.0173	28.3
0.0052	0.0262	0.0015	-0.0128	28.4
0.0045	0	-0.0008	-0.0091	28.5
0.0052	-0.012	0.0007	0.0007	28.7
0.0022	-0.006	0.0037	0.0202	28.8
0.0015	-0.0181	0.0045	0.0165	29
0	-0.0091	0.0037	0.0127	29.1
-0.0023	-0.0008	0.006	0.0255	29.3
0.0015	0.0165	0.0037	0.03	29.4
-0.0015	0.0082	0.0015	0.0285	29.6
-0.0008	-0.0203	0.0015	0.0157	29.7
0	0.0067	0.0007	0.0015	29.9
-0.0038	0.0157	-0.0015	-0.0098	30.1
-0.0023	0.0202	-0.0046	-0.0143	30.2
-0.0023	0.0157	-0.0053	-0.0203	30.3
0.0015	-0.0015	-0.006	-0.0278	30.5
0.003	0.0022	-0.0068	-0.042	30.6
0.0015	0.009	-0.0075	-0.0645	30.8
0.0037	0.033	-0.0083	-0.0691	31
0.003	0.018	-0.006	-0.0578	31.1
0.0022	-0.0091	-0.0038	-0.0383	31.3
0.0067	-0.0323	-0.0046	-0.0203	31.4
0.0075	-0.0256	-0.0015	0.003	31.6
0.0015	0.0097	0.0015	0.0375	31.7
0.003	-0.0038	0.0067	0.0727	31.9
0.0015	-0.027	0.012	0.0862	32
-0.0008	-0.063	0.0045	0.0592	32.2
-0.003	-0.0788	-0.0008	0.0322	32.3
-0.006	-0.0465	-0.0008	0.015	32.5
-0.0015	-0.0113	-0.0023	0.012	32.6
-0.0015	0.0337	0.0015	0.0142	32.8
0.003	0.0615	0.0052	0.0217	32.9
0.0052	0.063	0.006	0.012	33.1
0.0022	0.0457	0.0045	-0.003	33.2
0.0045	0.0217	0.0037	0.006	33.3
-0.003	-0.0008	0.0007	0.0022	33.5
-0.0038	-0.0308	-0.0046	-0.0038	33.7
-0.0038	-0.0405	-0.0053	-0.0181	33.8
-0.003	-0.033	-0.0075	-0.0278	34
0.0015	-0.0173	-0.0038	-0.027	34.1
-0.0008	-0.0046	-0.0038	-0.0308	34.2
0.003	-0.003	-0.0015	-0.0256	34.4
0.0015	0.003	0.0007	-0.024	34.6
0.0015	0.0045	0	-0.0181	34.7
0	0.0067	0.0037	-0.0165	34.8
-0.003	0.0097	0.0022	-0.012	35
-0.0015	0.0165	0.006	-0.0046	35.1
-0.003	0.0292	0.006	-0.0008	35.3
-0.0046	0.024	0.0045	0.0097	35.5
-0.0023	0.0127	0.0082	0.0067	35.6
-0.0015	0.0052	0.0045	0.003	35.7
-0.0008	0.0045	0.0067	0.003	35.9
0.0037	0.009	0.0045	0.0045	36
0.0015	0.0015	0	0.0007	36.2
0.0007	-0.0068	-0.0008	-0.0091	36.4
0.0022	-0.0195	-0.003	-0.0233	36.5
0.0007	-0.027	-0.0053	-0.033	36.7
0.0015	-0.0195	-0.0083	-0.027	36.8
0.0015	-0.0218	-0.0075	-0.0128	36.9
0.0007	-0.0308	-0.0075	0	37.1
-0.0008	-0.0135	-0.0053	0.003	37.3
-0.0015	0.0247	0.0007	0.0277	37.4
0.0007	0.0315	0.0037	0.0532	37.6
0.0045	0.0157	0.0045	0.0465	37.7
0.0045	0.018	0.0052	0.0352	37.8
0.0052	0.0187	0.0045	0.021	38
0.0067	0.015	0.0037	0.0037	38.2
0.003	0.0157	0.0007	-0.0195	38.3
0.0037	0.0255	0.0007	-0.045	38.5
0.0045	0.0202	0.0007	-0.0653	38.6
0.0052	0.012	-0.0015	-0.0773	38.8
0.0097	0.0052	-0.0015	-0.0878	39
0.0067	-0.0233	-0.0015	-0.0803	39.1
0.0082	-0.0346	-0.003	-0.0443	39.3
0.0082	-0.0436	-0.0046	-0.006	39.4
0.0022	-0.0645	-0.006	0.0202	39.6
0.0045	-0.0375	-0.0023	0.0352	39.7
0.0015	0.0345	-0.0008	0.042	39.9
0.0037	0.0555	0.0045	0.048	40
0.0052	0.0217	0.0082	0.0592	40.2
0.0037	0.0247	0.009	0.0885	40.4
0.0067	0.0367	0.009	0.114	40.5
0.0015	0.0367	0.003	0.1402	40.7
0	0.0052	0.003	0.1515	40.8
-0.0015	-0.0503	0.0007	0.108	40.9
-0.0046	-0.0615	-0.003	0.0547	41.1
-0.0023	-0.057	0.0007	0.018	41.3
-0.0015	-0.039	-0.0008	-0.0128	41.4
-0.0008	-0.0225	-0.0015	-0.0308	41.6
-0.0008	-0.0158	-0.0053	-0.0398	41.8
-0.0015	-0.0143	-0.0068	-0.0443	41.9
-0.0015	-0.0135	-0.0075	-0.0465	42.1
0.0015	-0.0015	-0.0068	-0.0383	42.3
0.0045	0.0037	-0.003	-0.0405	42.4
0.0082	0.0127	-0.003	-0.042	42.5
0.0105	0.012	-0.0023	-0.0405	42.7
0.0082	0.0127	-0.0015	-0.0353	42.8
0.0105	0.015	0.0007	-0.0308	43
0.006	0.0142	0.0015	-0.0361	43.2
0.0082	0.0262	0.0022	-0.0361	43.3
0.0067	0.027	0.0022	-0.0473	43.5
0.003	0.042	0	-0.06	43.6
0.0052	0.0517	0.003	-0.0713	43.8
0	0.0285	0.0052	-0.0668	44
0.0015	0.0105	0.0067	-0.048	44.1
0.0022	-0.0068	0.0075	-0.0308	44.3
0.0007	-0.021	0.0082	0.0105	44.5
0.003	-0.0165	0.009	0.057	44.6
0.0015	-0.0195	0.006	0.0855	44.8
-0.0008	-0.0368	0.0015	0.087	44.9
0.0007	-0.0353	0.0007	0.0772	45.1
-0.0008	-0.0293	0	0.0592	45.2
-0.0015	-0.0173	0.0007	0.03	45.4
0.0022	0.009	-0.0008	0.0157	45.6
-0.0023	0.018	-0.0015	0.0082	45.7
0.0015	0.024	-0.0015	-0.0053	45.9
0.0015	0.018	-0.0015	-0.0105	46
-0.0053	0.0045	-0.0015	-0.012	46.2
-0.0038	-0.0015	-0.0008	-0.012	46.3
-0.0046	-0.012	-0.003	-0.0105	46.5
-0.003	-0.0091	-0.0053	-0.0165	46.7
-0.0023	-0.0165	-0.0053	-0.0293	46.8
0	-0.0091	-0.0038	-0.0428	47
0.0015	0.018	-0.0053	-0.0518	47.2
0.0037	0.0457	-0.0046	-0.0525	47.3
0.0022	0.0667	-0.0008	-0.0615	47.5
0	0.06	0.0007	-0.0645	47.6
-0.0008	0.0352	0.0007	-0.0615	47.8
-0.0015	0.0195	0.0015	-0.0495	47.9
0.0022	0.0052	0.006	-0.0105	48.1
0.003	-0.012	0.0067	0.0315	48.2
-0.0015	-0.0361	0.0052	0.0855	48.4
-0.0015	-0.078	0.0037	0.0862	48.6
-0.0015	-0.0975	-0.0008	0.039	48.7
-0.0015	-0.0503	-0.0015	0.0427	48.9
-0.0015	-0.0091	-0.0023	0.0412	49
-0.003	-0.0091	-0.0008	0.0307	49.2
0	0.0052	0.0052	0.0322	49.3
0.0015	0.0007	0.003	0.012	49.5
-0.0015	0.003	0.0007	0.0217	49.6
-0.0008	0.0135	0	0.039	49.8
0	-0.012	0.0015	0.0405	49.9
0.0007	-0.0195	0.003	0.0337	50.1
0.0015	-0.015	0.0007	0.0007	50.3
-0.003	-0.0075	0.0007	-0.0173	50.4
-0.0015	0.0217	-0.0015	-0.021	50.6
0.0015	0.0435	0.0007	-0.0465	50.7
0.003	0.0465	0	-0.0818	50.9
0.0052	0.039	0.0007	-0.1088	51
0.0045	0.0307	0.0007	-0.1148	51.2
0.009	0.027	0.0007	-0.0758	51.3
0.0082	0.0165	0.0015	-0.03	51.5
0.003	-0.0008	0	0.0195	51.7
0.0045	0.0052	0.0022	0.0637	51.8
0.0015	0.0037	0.0037	0.0645	52
0.003	-0.0278	0.0075	0.069	52.1
0.0045	-0.0068	0.0082	0.0802	52.3
0.0045	0.039	0.009	0.0757	52.4
0.003	0.0352	0.0082	0.0907	52.6
0.0022	0.0045	0.0015	0.087	52.7
0.0015	-0.0383	-0.003	0.0502	52.9
0.0007	-0.0653	-0.0105	0.0135	53.1
-0.0015	-0.0458	-0.012	0.0015	53.2
-0.0068	-0.0436	-0.0091	-0.0143	53.4
-0.003	-0.063	-0.0053	-0.0353	53.5
-0.0008	-0.0398	-0.0023	-0.039	53.6
-0.0015	-0.0173	-0.0008	-0.0555	53.8
0.0052	-0.0203	-0.0008	-0.0608	54
0.0045	-0.042	-0.0023	-0.0668	54.1
0.003	-0.048	-0.0015	-0.063	54.2
0.0045	-0.0263	-0.0008	-0.0495	54.4
0.0045	0.0052	0.0022	-0.0323	54.5
0.0082	0.0195	0.0045	-0.015	54.7
0.009	0.0052	0.0045	-0.0135	54.8
0.0097	0.0172	0.0067	-0.0038	54.9
0.012	0.0577	0.003	0.0022	55.1
0.0082	0.0885	-0.0023	-0.024	55.3
0.0067	0.114	-0.0038	-0.0458	55.4
0.0052	0.0945	-0.003	-0.0563	55.5
0.003	0.0315	-0.003	-0.066	55.7
0.006	-0.0128	-0.0008	-0.0218	55.8
0.0045	-0.0338	0.0037	0.0592	56
-0.0008	-0.027	0.006	0.114	56.1
0.0015	-0.0248	0.0105	0.1402	56.2
-0.003	-0.027	0.009	0.153	56.4
-0.003	-0.0158	0.0097	0.1252	56.6
-0.0046	-0.0068	0.0112	0.069	56.7
-0.0053	0.003	0.006	0.009	56.8
0.0007	0.018	0.0007	-0.0443	57
-0.0015	0.006	-0.0023	-0.0675	57.1
-0.0038	-0.0218	-0.003	-0.084	57.3
-0.0046	-0.0165	0	-0.0893	57.5
-0.003	0.0067	0.0045	-0.0713	57.6
0.0015	0.0292	0.0037	-0.0293	57.8
0.006	0.033	0.0015	0.0345	57.9
0.0037	0.0217	0.0015	0.0592	58
0.0067	0.0142	0.003	0.0487	58.2
0.0082	-0.0015	0.003	0.0547	58.4
0.003	-0.0353	-0.0008	0.0532	58.5
0.0045	-0.0683	-0.0046	0.0337	58.7
-0.0008	-0.0765	-0.0053	-0.003	58.8
0.0022	-0.048	-0.0075	-0.0203	58.9
0.003	-0.0008	-0.006	-0.027	59.1
-0.0008	0.0127	-0.0053	-0.0405	59.3
0	0.0082	-0.0046	-0.0405	59.4
-0.003	0.003	-0.0046	-0.0488	59.5
0.003	0.0015	-0.0015	-0.0346	59.7
0.0022	0.012	-0.0008	-0.0158	59.8
0.003	0.0202	0.0007	-0.0008	60
0.0067	0.0217	0.003	-0.003	60.1
0.0045	0.0307	0.0022	-0.0278	60.3
0.009	0.0427	0.0045	-0.0383	60.4
0.0052	0.0322	0.003	-0.0465	60.5
0.003	0.0442	0.003	-0.0278	60.7
0.003	0.0495	0.0015	-0.0091	60.8
-0.0015	0.0232	-0.003	-0.0083	60.9
0.0015	-0.0195	-0.0008	-0.0256	61.1
-0.003	-0.0525	-0.0015	-0.0503	61.2
-0.0046	-0.0285	-0.0015	-0.039	61.4
-0.0008	-0.0263	-0.0008	-0.0278	61.5
-0.0046	-0.0256	-0.003	-0.0203	61.6
-0.0008	-0.0046	-0.0015	-0.003	61.8
0.003	0.0052	-0.0008	0.0247	61.9
0.0045	-0.0083	0.0007	0.045	62.1
0.0082	-0.0511	0.0022	0.0577	62.2
0.0045	-0.048	0.0067	0.0915	62.3
0.0052	-0.0361	0.0052	0.099	62.5
0.0045	-0.0143	0.0045	0.096	62.6
0.0015	0.0277	0.0045	0.0795	62.8
0.0075	0.021	0.0037	0.0375	62.9
0.0037	-0.0105	0.003	0.0045	63
0.003	-0.0285	0.0007	-0.0285	63.2
0.003	-0.0256	0.0007	-0.045	63.4
0.0007	-0.003	0.0007	-0.057	63.5
0	0.0397	-0.003	-0.0721	63.6
0.0015	0.0675	-0.0053	-0.0758	63.8
0.0007	0.0885	-0.0083	-0.099	63.9
-0.0008	0.1222	-0.0091	-0.1463	64.1
0.0015	0.1087	-0.0075	-0.1575	64.2
0.0007	0.0577	-0.003	-0.1253	64.3
0.0007	-0.0046	0.003	-0.0795	64.5
-0.0008	-0.0383	0.0075	0.0187	64.7
-0.0008	-0.0105	0.0075	0.129	64.8
-0.0038	-0.0443	0.0045	0.2205	64.9
-0.0053	-0.0953	0.0127	0.2535	65.1
0.0007	-0.0878	0.0112	0.1522	65.2
0.0045	-0.0788	0.0067	0.0352	65.3
0.0067	-0.045	0.0052	0.009	65.5
0.0052	-0.042	-0.0008	-0.0023	65.7
0.0045	-0.0218	0.003	0.003	65.8
0.0082	0.0202	0.0037	0.0007	65.9
0.003	0.0097	0.006	-0.0083	66.1
0.0022	0.0045	0.0052	0.03	66.2
0.003	-0.0075	0.0007	0.084	66.4
-0.0008	-0.0128	0.0015	0.123	66.5
0	-0.0338	-0.0015	0.1042	66.6
-0.0046	-0.0285	-0.0015	0.0592	66.8
-0.003	0.0172	-0.0008	0.0225	66.9
0.003	0.0352	-0.0015	-0.012	67
0.0007	0.0217	-0.0046	-0.027	67.2
0.0045	0.0142	-0.0038	-0.0256	67.4
0.0015	0.0195	-0.0023	-0.045	67.5
-0.0046	0.0165	-0.0015	-0.0683	67.6
-0.0015	0.0142	-0.0023	-0.0803	67.8
-0.003	0.003	-0.0053	-0.1073	67.9
0.0007	0	-0.0068	-0.1178	68.1
0.0037	-0.006	-0.0083	-0.1118	68.2
0.0045	-0.0008	-0.0075	-0.1073	68.3
0.006	0.0397	-0.0053	-0.1155	68.5
0.0052	0.0855	-0.006	-0.0938	68.6
0.0045	0.0765	-0.0038	-0.0585	68.8
0.0052	0.0307	-0.0038	-0.0653	68.9
0.0052	0.0127	-0.0046	-0.0503	69.1
0.0037	-0.024	-0.003	0.0165	69.3
0.0045	-0.0803	-0.0015	0.0937	69.4
0.0015	-0.0945	0.003	0.1065	69.5
0.003	-0.0195	0.006	0.0817	69.7
0.0015	0.051	0.0082	0.1132	69.8
-0.0015	0.0405	0.0105	0.1177	70
0.0022	0.012	0.009	0.0652	70.1
-0.0015	-0.0465	0.0075	0.039	70.2
0	-0.063	0.0075	0.0645	70.4
0	-0.0593	0.0067	0.0645	70.6
-0.003	-0.015	0.0052	0.0427	70.7
0.0015	0.0555	0.0015	0.0472	70.8
0.0007	0.0517	0	0.0067	71
0.0015	0.0367	0.0015	-0.0158	71.1
0.003	-0.0181	-0.0015	-0.0158	71.2
0.0007	-0.057	0.0015	-0.0278	71.4
0.0007	-0.0593	0.0015	-0.039	71.5
0.0022	-0.0375	-0.0046	-0.0608	71.6
0.0022	-0.0015	-0.0046	-0.0743	71.8
0.0045	0.0202	-0.0083	-0.0953	71.9
0.003	0.0405	-0.0105	-0.0728	72.1
0.003	0.06	-0.0091	-0.0691	72.2
0.0067	0.093	-0.0046	-0.0915	72.4
0.0082	0.0375	-0.0008	-0.0938	72.5
0.012	0.033	0.0007	-0.0825	72.6
0.0105	0.0457	0.0052	-0.0323	72.8
0.0097	0.0007	0.0082	0.0457	72.9
0.009	0.003	0.012	0.1492	73
0.0045	-0.0353	0.0112	0.1635	73.2
0.0022	-0.0443	0.0067	0.1132	73.3
0.0007	-0.012	0.006	0.1162	73.4
0	-0.0518	0.0052	0.0772	73.6
0.0015	-0.1035	0.0045	0.0337	73.7
0.0052	-0.0863	0.0045	0.0052	73.8
0.0045	-0.0548	-0.0015	-0.042	74
0.0045	-0.0068	-0.003	-0.0338	74.2
0.003	0.018	-0.0046	-0.0293	74.3
0.0015	0.0112	-0.0083	-0.0203	74.4
0.0022	0.0187	-0.0053	-0.0338	74.6
0.0007	0.0172	-0.0046	-0.054	74.7
0.0015	0.0285	-0.003	-0.063	74.8
0.0037	0.024	-0.0046	-0.078	75
0.0052	0.0195	-0.0083	-0.0683	75.1
0.0067	0.0127	-0.0091	-0.0623	75.2
0.0067	0.0082	-0.0105	-0.0361	75.4
0.0067	0.0022	-0.0068	-0.024	75.6
0.009	-0.0256	-0.0008	-0.0181	75.7
0.0097	-0.0233	0.0052	-0.0158	75.8
0.0105	0.0165	0.003	-0.0046	76
0.0052	0.0322	0.0015	0.021	76.1
0.0022	0.024	-0.0008	0.0675	76.2
0.003	0.0195	0.0045	0.12	76.4
0.003	0.0105	0.0127	0.093	76.5
0.0082	-0.0008	0.0142	0.0967	76.6
0.0075	0.003	0.0127	0.0765	76.8
0.0052	0.012	0.006	0.0195	76.9
0.0045	-0.0053	0.0045	0.0045	77.1
-0.0015	-0.0068	0.0007	-0.0173	77.2
0.0022	-0.003	-0.0023	-0.0165	77.3
0.0015	0.009	0.0015	-0.027	77.5
-0.0008	0.03	0	-0.0368	77.6
-0.0015	0.021	0.003	-0.0405	77.8
-0.006	0.015	0.0015	-0.0428	77.9
-0.0068	-0.0038	-0.0015	-0.0158	78
-0.0091	-0.0233	-0.0015	0.0105	78.2
-0.0068	-0.0323	-0.0046	-0.0165	78.3
-0.0015	-0.021	-0.0023	-0.0721	78.5
-0.0008	-0.0008	-0.0053	-0.0878	78.6
0.0007	-0.0278	-0.0038	-0.1006	78.7
0.0037	-0.0563	-0.0046	-0.096	78.9
-0.0015	-0.0848	-0.0053	-0.09	79
-0.0015	-0.0871	-0.003	-0.0983	79.2
-0.0008	-0.0398	-0.006	-0.1028	79.3
-0.006	0.018	-0.0046	-0.027	79.4
-0.0046	0.1027	-0.0015	0.1327	79.6
-0.0046	0.129	0.0045	0.2707	79.7
-0.0068	0.063	0.006	0.297	79.8
-0.0008	-0.0008	0.0082	0.1687	79.9
0	0.0217	0.0075	0.0915	80.1
-0.0008	0.0105	0.0045	0.0217	80.2
-0.0023	-0.0053	0	-0.0181	80.3
-0.003	0.0112	-0.0053	-0.0143	80.5
0.0022	-0.012	0.0045	-0.0203	80.6
0.0015	0.0202	0.0067	0.0225	80.7
0.003	0.0292	0.0112	-0.0098	80.9
0.0045	0.0225	0.0157	-0.0158	81
-0.0008	0.0015	0.0082	-0.0091	81.1
0.0015	-0.039	0.0037	-0.0248	81.2
0	-0.063	-0.0068	-0.0315	81.4
0.0015	-0.081	-0.0105	-0.0428	81.5
0.003	-0.0615	-0.012	-0.0743	81.6
0.0022	-0.0361	-0.0128	-0.1373	81.8
0.006	-0.0091	-0.012	-0.1628	81.9
0.0045	0.0157	-0.0105	-0.159	82
0.0015	0.0525	-0.0083	-0.1396	82.2
-0.0008	0.0675	-0.0053	-0.1238	82.3
0.0022	0.0367	-0.0008	-0.057	82.4
0.0052	0.006	0.0052	0.0082	82.5
0.012	-0.003	0.0157	0.0997	82.7
0.0172	-0.027	0.018	0.1642	82.8
0.0127	-0.0383	0.009	0.1237	82.9
0.0037	-0.0158	0.0105	0.1125	83.1
0	0.021	0.0157	0.1762	83.2
-0.0008	0.0307	0.0135	0.2707	83.3
-0.0068	-0.0488	0.0105	0.2445	83.5
-0.003	-0.066	0.006	0.186	83.6
-0.003	-0.0383	0.003	0.084	83.7
-0.0023	0.0195	-0.0015	0.012	83.8
-0.0008	0.054	0.0015	0.0307	84
-0.003	0.0457	0.0052	0.0082	84.1
0.0045	0.0525	0.003	-0.0195	84.2
0.0045	0.0337	0.003	-0.0436	84.4
0.0045	0.0322	0	-0.0495	84.5
0.0045	0.0007	-0.0046	-0.075	84.6
0.0007	-0.0068	-0.0091	-0.0788	84.7
0.003	-0.0143	-0.0128	-0.078	84.8
0.0052	-0.0225	-0.0091	-0.0743	85
0.0052	-0.0165	-0.0091	-0.0691	85.1
0.0075	-0.0233	-0.0091	-0.0915	85.2
0.0045	-0.0105	-0.0091	-0.1073	85.3
0.003	-0.003	-0.012	-0.1373	85.5
0.0015	0.003	-0.006	-0.1485	85.5
0.0007	0.0127	-0.0046	-0.135	85.7
0.0045	0.0345	-0.0008	-0.1028	85.8
0.0045	0.0277	0.003	-0.0555	85.9
0.0075	0.012	0.0045	0.0277	86
0.0067	-0.0135	0.003	0.0862	86.1
0.003	-0.057	0.0007	0.078	86.3
0.003	-0.0353	0.0052	0.0735	86.4
-0.0015	-0.0105	0.0052	0.048	86.5
-0.003	0.0045	0.0052	0.057	86.6
-0.0015	-0.012	0.0022	0.0367	86.8
-0.0008	-0.0353	-0.0015	-0.0165	86.8
0.0067	-0.0338	-0.003	-0.048	87
0.006	-0.0361	-0.0068	-0.0833	87.1
0.003	0.003	-0.003	-0.0721	87.2
0.0075	0.0487	0.0015	-0.0533	87.3
0.0052	0.0742	0.0067	-0.0225	87.4
0.0067	0.0412	0.0075	-0.0143	87.6
0.0067	-0.0008	0.0075	-0.0473	87.7
0.0052	0.0195	0.0067	-0.0353	87.8
0.0052	0.0262	0.0022	0.0232	87.9
0.0067	0.012	0.0045	0.099	88
0.0082	-0.0105	0.003	0.144	88.2
0.009	-0.0428	0.0045	0.1162	88.2
0.0045	-0.0195	0.006	0.0922	88.4
0.0015	0.0082	0.0037	0.0675	88.5
0.0045	-0.012	0.0052	0.0217	88.6
0.003	-0.0015	0.0022	0.0082	88.7
0.0037	0.0105	0.003	0.0007	88.8
0.0037	0.0247	0.0037	0.0165	89
0.0052	0.0352	0.0007	0.039	89.1
0.0052	0.0262	-0.0008	0.0195	89.2
0.0007	0.0352	0	-0.0128	89.3
0.0015	0.0247	-0.0008	-0.0181	89.4
0.0007	0.0075	-0.0038	-0.0218	89.5
-0.003	-0.0218	-0.0023	-0.0143	89.6
-0.0023	-0.0555	-0.0046	-0.0165	89.8
-0.0008	-0.0518	-0.0046	-0.0278	89.9
-0.0015	-0.0346	-0.0015	-0.0083	90
-0.0015	-0.0405	-0.003	-0.0038	90.1
-0.003	-0.0368	-0.0008	-0.0181	90.2
-0.0038	-0.0105	-0.0038	-0.042	90.4
0.0015	-0.0195	-0.0098	-0.0765	90.4
-0.0008	-0.0203	-0.0165	-0.099	90.6
-0.0015	-0.0143	-0.0203	-0.1455	90.7
0.0007	-0.0278	-0.0158	-0.1575	90.8
0.0007	-0.027	-0.0143	-0.1305	90.9
0.003	-0.0181	-0.012	-0.1343	91
0.0007	-0.0075	-0.0083	-0.0608	91.1
0.0007	-0.0256	-0.0068	0.0195	91.3
0.006	-0.0053	-0.0008	-0.0015	91.3
0.009	0.0292	0.006	-0.0525	91.5
0.0067	0.0675	0.0127	-0.12	91.6
0.0015	0.1612	0.0195	-0.0256	91.7
-0.0023	0.195	0.021	0.144	91.8
-0.0053	0.1252	0.0195	0.2497	91.9
-0.003	-0.0083	0.0217	0.402	92
-0.0046	-0.1013	0.0217	0.39	92.2
-0.0053	-0.1335	0.0187	0.252	92.2
-0.0053	-0.0735	0.0172	0.1845	92.4
-0.0053	-0.039	0.0112	0.1252	92.5
-0.0008	-0.0533	0.0112	0.0705	92.6
-0.0023	0.042	0.0097	0.054	92.7
-0.0023	0.0772	0.006	0.0142	92.8
-0.003	0.0742	0.0045	-0.024	92.9
-0.0053	0.0225	-0.0008	-0.0465	93
-0.0023	-0.0256	-0.0053	-0.0691	93.1
-0.0068	-0.033	-0.0075	-0.0825	93.2
-0.0008	-0.0773	-0.0105	-0.1208	93.4
0.003	-0.0765	-0.0105	-0.159	93.5
0	-0.09	-0.0128	-0.1905	93.6
0.0037	-0.0555	-0.0165	-0.207	93.6
0.0015	-0.0308	-0.0173	-0.2333	93.8
0.0007	-0.0346	-0.0203	-0.2565	93.9
-0.0008	-0.0315	-0.0225	-0.2513	94
-0.0053	-0.027	-0.0181	-0.1965	94
-0.0015	0.039	-0.0113	-0.078	94.1
0.0007	0.0472	-0.003	0.0045	94.3
0.0037	0.0315	0.0052	0.0037	94.4
0.0082	0.0322	0.006	0.0345	94.5
0.003	-0.0105	0.0022	0.105	94.5
0	-0.0533	0.0045	0.1672	94.6
0.0022	0.045	0.012	0.291	94.8
0.0045	0.1237	0.0202	0.3577	94.9
0.0067	0.0517	0.0255	0.3	94.9
0.0067	0.0937	0.0277	0.2407	95
0.0105	0.1762	0.024	0.2032	95.1
0.0105	0.1575	0.015	0.1402	95.3
0.0037	0.084	0.0045	0.0787	95.3
0.0007	-0.0038	-0.003	0.0337	95.4
-0.0046	-0.0428	-0.0008	-0.0165	95.5
-0.0023	-0.0361	-0.0015	-0.0368	95.6
-0.0053	-0.033	-0.0023	-0.0743	95.7
-0.0068	-0.027	-0.0046	-0.1155	95.8
-0.0023	-0.0503	-0.0105	-0.1748	95.9
-0.0023	-0.0713	-0.0128	-0.2348	96
0.0007	-0.0623	-0.0128	-0.2423	96.1
0.0052	-0.0728	-0.0113	-0.2363	96.2
0.0007	-0.0533	-0.012	-0.1305	96.3
-0.0008	-0.0563	-0.0046	-0.0293	96.4
0.0045	-0.0458	0.0022	-0.0143	96.5
0.0045	-0.0008	0.009	0.0187	96.6
0.0112	0.021	0.0172	0.0277	96.7
0.0112	0.063	0.018	0.075	96.8
0.0082	0.0825	0.0105	0.123	96.9
0.006	0.0367	0.0067	0.0877	97
0.006	0.0082	0.0067	0.0742	97.1
0.0112	-0.0128	0.0022	0.0885	97.2
0.009	-0.0653	0.0052	0.0315	97.3
0.012	-0.075	0.0045	-0.0353	97.4
0.0097	-0.0503	0.0007	-0.033	97.5
0.0045	-0.0368	-0.0015	-0.057	97.6
0.0015	-0.0375	-0.0053	-0.0585	97.7
-0.003	0.0105	-0.0068	0.0015	97.8
-0.0105	0.0405	-0.0113	0.0352	97.9
-0.0105	0.009	-0.0113	0	98
-0.003	0.042	-0.0105	-0.0293	98.1
-0.0046	0.0442	-0.0091	-0.0375	98.2
-0.0015	0.021	-0.0053	-0.048	98.3
0.0015	-0.003	0	-0.0256	98.5
0.0037	-0.0225	0.0052	-0.0105	98.5
0.012	-0.0083	0.0067	0.0045	98.6
0.0105	-0.0195	0.003	-0.0053	98.8
0.0067	-0.0053	0.0007	-0.0308	98.9
0.0067	-0.0256	-0.0046	-0.0645	99
0.0052	-0.0465	-0.0091	-0.123	99.1
0.0082	-0.0495	-0.0038	-0.1815	99.2
0.012	-0.039	-0.0046	-0.192	99.3
0.0127	-0.0158	-0.0015	-0.1313	99.4
0.0135	-0.0068	0.0007	-0.024	99.5
0.0082	0.03	0	0.0742	99.6
0.0045	0.0292	0.0045	0.1012	99.7
0.003	0.0315	0.0052	0.1132	99.8
-0.0023	0.0495	0.006	0.1192	99.9
-0.0015	0.0435	0.0075	0.1372	100
-0.0046	-0.0075	0.0052	0.165	100.1
-0.006	-0.093	-0.0023	0.081	100.2
-0.0038	-0.0983	-0.0181	-0.0683	100.3
-0.0053	-0.0675	-0.0225	-0.1515	100.4
-0.003	-0.0195	-0.0218	-0.1665	100.5
-0.0038	0.0007	-0.0158	-0.1238	100.6
-0.0023	-0.0488	-0.003	-0.0308	100.8
0.0015	0	0.009	0.0442	100.8
0.003	0.0997	0.0232	0.144	100.9
0.0045	0.1695	0.0255	0.1995	101.1
0.006	0.1672	0.024	0.2002	101.2
0.006	0.0982	0.0225	0.2025	101.2
0.0082	0.0502	0.021	0.207	101.3
0.012	0.0435	0.0232	0.222	101.5
0.012	0.0142	0.0195	0.1725	101.6
0.0112	-0.0315	0.0127	0.1252	101.7
0.0082	-0.0315	0.0052	0.0607	101.8
0.003	-0.0765	0.003	-0.0443	101.9
0.0045	-0.0818	-0.0015	-0.1441	102
0.0007	-0.0555	-0.0091	-0.2408	102.1
-0.0023	-0.0555	-0.0135	-0.2348	102.2
-0.0046	-0.0495	-0.0143	-0.1193	102.3
-0.006	-0.063	-0.012	-0.0555	102.4
-0.0008	-0.0623	-0.0105	-0.093	102.5
-0.0015	-0.0495	-0.012	-0.1463	102.6
-0.0015	-0.0158	-0.021	-0.18	102.7
-0.0098	0.0187	-0.0233	-0.0698	102.8
-0.0143	-0.0165	-0.0181	-0.0068	103
-0.0068	-0.09	-0.0173	-0.078	103
-0.006	-0.0683	-0.0105	-0.0428	103.1
-0.0015	-0.0346	-0.0038	-0.0353	103.3
-0.0008	0.0052	0.0015	-0.0015	103.4
0.0007	0.093	0.0105	0.0915	103.5
0.0022	0.1642	0.0165	0.1417	103.6
-0.0015	0.1785	0.0217	0.1102	103.7
0.006	0.174	0.027	0.1192	103.8
0.0075	0.1747	0.0292	0.1852	103.9
0.0075	0.0697	0.0277	0.1635	104
0.0112	0.0015	0.0202	0.1027	104.1
0.0052	-0.0165	0.0127	0.0465	104.2
0.0045	-0.0675	0.0082	0.0315	104.3
0.0045	-0.0578	0.003	0.024	104.4
0.0022	-0.0615	0.0015	-0.039	104.5
0.0015	-0.0525	-0.0015	-0.0803	104.6
0.0007	-0.0458	-0.0023	-0.1365	104.7
-0.0038	-0.0818	-0.0038	-0.2048	104.8
-0.0105	-0.0653	-0.0105	-0.1485	104.9
-0.0135	-0.0465	-0.0195	-0.105	105
-0.0128	-0.0068	-0.027	-0.0405	105.1
-0.0038	-0.0113	-0.0308	-0.0113	105.2
0.0015	-0.108	-0.0315	-0.0998	105.3
0.0082	-0.1815	-0.027	-0.186	105.4
0.015	-0.1741	-0.0195	-0.3158	105.5
0.0195	-0.0458	-0.0098	-0.3083	105.6
0.0157	0.0682	-0.0008	-0.1403	105.7
0.0067	0.1747	0.0127	0.0645	105.8
0.0052	0.2347	0.024	0.258	105.9
0.0015	0.1882	0.0352	0.3555	106
0.0052	0.1747	0.042	0.414	106.1
0.0075	0.0637	0.033	0.3675	106.2
0.0045	-0.0015	0.0292	0.318	106.3
0.0052	-0.0083	0.0255	0.2685	106.4
0.0075	-0.0046	0.0195	0.1792	106.5
0.0097	0.0502	0.015	0.135	106.6
0.0075	0.0142	0.009	0.057	106.7
0.0045	0.012	0.0015	0.0307	106.8
-0.0015	0.0292	-0.0046	-0.0405	107
-0.0015	-0.0361	-0.0091	-0.123	107.1
-0.0008	-0.084	-0.0143	-0.1163	107.1
-0.0008	-0.0878	-0.0173	-0.1613	107.3
-0.0008	-0.1365	-0.0165	-0.1426	107.4
-0.0038	-0.1238	-0.015	-0.1268	107.5
-0.0046	-0.057	-0.0128	-0.1305	107.5
-0.006	-0.0315	-0.0128	-0.1028	107.7
-0.0083	0.027	-0.0113	-0.1118	107.8
-0.0038	0.0007	-0.0128	-0.1125	107.9
-0.0015	-0.0488	-0.0128	-0.1358	108
-0.0023	-0.0195	-0.0135	-0.1688	108.1
-0.0015	-0.0083	-0.0135	-0.1973	108.2
-0.0008	0.003	-0.0091	-0.1815	108.3
0.003	-0.0083	-0.0008	-0.0818	108.4
0.0022	0.027	0.0082	0.0742	108.5
0.0045	0.0517	0.0135	0.1222	108.6
0.0127	0.0525	0.0202	0.1597	108.7
0.009	0.0675	0.0202	0.201	108.8
0.012	0.084	0.0157	0.1327	108.9
0.0067	0.0667	0.0082	0.0945	109
-0.0015	-0.0135	0.003	0.042	109.1
-0.0008	-0.06	0.0052	0.0157	109.2
-0.003	-0.0511	0.0067	-0.0143	109.3
0.0022	-0.0256	0.0045	-0.0555	109.4
0	-0.084	-0.0023	-0.129	109.5
0	-0.1118	-0.0046	-0.1575	109.6
0.0007	-0.0428	-0.0083	-0.0308	109.7
-0.0053	0.0555	-0.0083	0.0037	109.8
-0.003	0.1327	-0.0046	0.0607	109.9
-0.0038	0.1177	-0.0008	0.0817	110
-0.003	0.1252	0.0015	0.0277	110.1
0.0037	0.1597	0.0052	0.1207	110.2
0.003	0.1155	0.0112	0.1267	110.3
0	0.0352	0.0135	0.0945	110.4
0.0015	-0.0135	0.012	0.0412	110.5
0.0015	-0.0653	0.0097	-0.024	110.6
0.0022	-0.0908	0.006	-0.0555	110.7
-0.0008	-0.0863	0.0045	-0.1013	110.8
-0.0046	-0.0548	0.0037	-0.0728	110.9
-0.0038	-0.0203	-0.0008	-0.0428	111
-0.0008	-0.021	-0.006	0.003	111.1
0	-0.0465	-0.0068	0.0232	111.2
0.0067	-0.0653	-0.0083	0.0405	111.3
0.009	-0.0653	-0.0053	0.0217	111.4
0.0067	-0.0833	-0.0046	-0.012	111.5
0.0045	-0.075	-0.0083	-0.0233	111.6
-0.0053	-0.063	-0.0053	-0.0585	111.7
-0.0015	-0.03	-0.0046	-0.105	111.8
0.0045	0.015	-0.0008	-0.1688	111.9
0.0045	0.0412	0.0037	-0.1223	112
0.0097	0.084	0.0045	-0.114	112.1
0	0.108	0.009	-0.0083	112.2
-0.0083	0.1005	0.0082	0.174	112.3
-0.012	0.0247	0.009	0.1425	112.4
-0.0143	0.0007	0.0037	0.105	112.5
-0.0113	0.0195	-0.0053	0.063	112.6
-0.0091	-0.0825	-0.0046	0.0577	112.7
-0.0015	-0.1545	-0.0046	0.0172	112.8
0.0045	-0.2198	-0.0008	-0.1028	112.9
0.0052	-0.2085	-0.0015	-0.1845	113
0.0082	-0.0938	0.0015	-0.2535	113.1
0.0082	0.0397	0.012	-0.099	113.2
0.0097	0.1912	0.0255	0.1185	113.3
0.0127	0.1605	0.0345	0.3015	113.4
0.0082	0.0727	0.036	0.417	113.5
0.0075	-0.003	0.0352	0.3547	113.6
0.003	-0.1028	0.027	0.2512	113.7
0.0007	-0.1613	0.0202	0.174	113.8
0.0007	-0.108	0.015	0.078	113.8
-0.0046	0.171	0.0045	0.0045	113.9
-0.006	0.4612	-0.0008	-0.0383	114
-0.0083	0.5137	-0.0091	-0.1073	114.1
-0.006	0.345	-0.0195	-0.1313	114.3
-0.0023	0.249	-0.0323	-0.2235	114.3
-0.0015	0.075	-0.0443	-0.3668	114.4
0.0045	-0.1448	-0.0458	-0.4358	114.5
0.003	-0.084	-0.0405	-0.3885	114.6
-0.0008	-0.0908	-0.0323	-0.2243	114.7
-0.0015	0.0165	-0.0233	-0.0653	114.8
-0.0015	0.2235	-0.0105	-0.024	114.9
0.0015	0.342	0.0067	0.0075	115
0.003	0.3975	0.0142	0.0202	115.1
0.0082	0.3607	0.018	0.0862	115.2
0.0097	0.2827	0.0232	0.315	115.3
0.012	0.1822	0.0292	0.4057	115.4
0.0142	0.1177	0.0367	0.3855	115.5
0.0157	-0.0008	0.036	0.3105	115.6
0.0165	-0.0788	0.039	0.1912	115.6
0.018	-0.1741	0.0345	0.0532	115.7
0.0135	-0.1748	0.0232	-0.0181	115.8
0.0105	-0.1118	0.0157	-0.0248	115.9
0.0105	-0.0773	0.0067	-0.0233	116
0.0067	-0.0713	0.0045	-0.0173	116.1
0.009	-0.1538	-0.0068	-0.0863	116.2
0.0067	-0.1823	-0.015	-0.0953	116.3
0.0022	-0.2303	-0.0218	-0.1155	116.4
0.0022	-0.1778	-0.027	-0.1013	116.5
-0.0008	-0.1125	-0.0263	-0.0585	116.5
-0.0023	-0.1433	-0.0315	-0.048	116.6
-0.0023	-0.1898	-0.0256	-0.039	116.7
-0.003	-0.2753	-0.0233	-0.0638	116.8
-0.0023	-0.3045	-0.0195	-0.1223	116.9
-0.0015	-0.2213	-0.0143	-0.1575	117
-0.0046	-0.0773	-0.0105	-0.0893	117
-0.0023	-0.0233	0.0007	0.054	117.1
0.0007	0.0157	0.0007	0.1327	117.2
-0.0015	0.0435	-0.0091	0.0967	117.3
-0.0038	0.0465	-0.0143	0.051	117.4
-0.0015	0.0555	-0.0083	-0.0038	117.5
0.003	-0.0465	-0.0015	-0.039	117.5
0.0075	-0.114	-0.0008	-0.0465	117.6
0.006	-0.135	0.0015	-0.0128	117.7
0.0097	-0.12	0.0022	-0.0091	117.8
0.009	-0.084	0.0045	-0.0315	117.9
0.0067	-0.0856	0.0075	-0.0023	117.9
0.0105	-0.0706	0.0067	-0.0068	118
0.003	-0.0848	0.0045	-0.033	118.1
0.0007	-0.0525	0.006	0.018	118.2
-0.0008	-0.0173	0.009	0.057	118.2
-0.0068	-0.003	0.009	0.0585	118.3
-0.0046	0	0.006	0.0937	118.3
-0.0038	-0.0653	0.0037	0.066	118.4
-0.003	-0.1013	0.0007	0.0337	118.5
-0.0008	-0.1328	-0.0038	-0.0668	118.6
-0.0046	-0.1448	-0.0091	-0.1463	118.7
-0.0068	-0.1253	-0.0165	-0.1763	118.8
-0.0091	-0.0743	-0.0225	-0.1845	118.8
-0.012	-0.0158	-0.0278	-0.0975	118.9
-0.0053	-0.09	-0.0248	-0.1523	118.9
-0.003	-0.093	-0.0165	-0.1823	119
-0.0015	-0.0293	-0.0128	-0.1006	119.1
0.0022	0.018	-0.0015	-0.0046	119.2
0.0052	0.1365	0.012	0.1695	119.2
0.0052	0.1012	0.0127	0.2347	119.3
0.0075	0.0697	0.0097	0.2272	119.3
0.0127	0.084	0.0105	0.1575	119.4
0.0195	-0.0068	0.0165	0.0285	119.5
0.0187	-0.1305	0.018	-0.0555	119.6
0.0142	-0.1785	0.021	-0.0578	119.6
0.0142	-0.1298	0.033	0.015	119.7
0.0105	-0.0668	0.033	0.024	119.7
0.0045	0.1567	0.0255	0.0427	119.8
-0.0038	0.2992	0.0142	0.117	119.9
-0.015	0.2722	0.0022	0.2145	119.9
-0.0091	0.2407	-0.0046	0.2632	120
-0.0053	0.195	-0.0091	0.1672	120.1
-0.0023	0.1455	-0.0105	0.0862	120.1
0.0015	0.0142	-0.0105	0.051	120.2
0	-0.0405	-0.0091	-0.0038	120.2
0.0045	-0.063	-0.0091	-0.0008	120.2
0.0015	-0.0518	-0.0113	-0.0428	120.3
0.0037	-0.0525	-0.0165	-0.0848	120.3
0.003	-0.1343	-0.021	-0.1006	120.4
0	-0.1118	-0.0256	-0.1756	120.4
-0.0008	-0.1703	-0.0315	-0.228	120.4
-0.006	-0.1103	-0.0315	-0.2475	120.5
-0.0008	0.0817	-0.0263	-0.1553	120.5
0.003	0.1897	-0.0188	-0.027	120.6
0.0045	0.1267	-0.0098	0.0127	120.6
0.0067	-0.0165	-0.003	0.0915	120.6
0.0052	0.111	0.0067	0.1492	120.6
0.0105	0.1095	0.021	0.1762	120.7
0.0165	0.1807	0.0292	0.2197	120.7
0.0157	0.2625	0.0277	0.2077	120.7
0.0082	0.1372	0.012	0.1905	120.8
-0.0015	0.0495	-0.0008	0.1515	120.8
-0.0098	-0.084	-0.0113	0.0712	120.8
-0.0105	-0.0495	-0.0135	0.0195	120.9
-0.0091	0.003	-0.0135	-0.0375	120.9
-0.0098	0.0127	-0.0203	-0.0953	120.9
-0.0068	-0.0091	-0.0195	-0.0856	120.9
-0.0068	0.0217	-0.0203	-0.096	120.9
-0.003	0.0705	-0.0165	-0.0691	121
0.0015	0.0022	-0.0165	-0.0458	121
-0.0015	-0.042	-0.0165	-0.0983	121
0.0015	-0.0525	-0.0158	-0.1148	121
-0.0015	-0.0878	-0.0203	-0.1283	121
-0.0023	-0.1553	-0.0203	-0.108	121
-0.0008	-0.126	-0.0263	-0.0878	121
-0.0053	-0.0323	-0.0293	-0.1283	121
-0.0015	0.0135	-0.0285	-0.1778	121
0.0052	-0.0008	-0.0218	-0.1733	121
0.0097	-0.06	-0.012	-0.1658	121.1
0.0142	-0.063	-0.0068	-0.1388	121.1
0.0142	-0.0046	0.003	-0.054	121.1
0.012	0.06	0.015	0.0667	121.1
0.0112	0.1395	0.0262	0.1672	121.1
0.0052	0.15	0.036	0.1237	121.1
0.0045	0.1657	0.0435	0.1177	121.1
0.0052	0.2145	0.0472	0.2047	121.1
0.003	0.1635	0.042	0.2557	121.1
0.0075	0.0795	0.0247	0.2707	121.2
0.0082	-0.0203	0.0022	0.2152	121.2
0.0082	-0.1688	-0.0128	-0.0068	121.2
0.0112	-0.1763	-0.0188	-0.2093	121.2
0.0105	-0.135	-0.0203	-0.2663	121.2
0.009	-0.0975	-0.012	-0.297	121.2
0.006	-0.0046	-0.0015	-0.1718	121.2
0.0022	0.0615	0.0082	-0.0053	121.2
0.0052	0.1065	0.0217	0.1245	121.2
0.0067	0.075	0.0277	0.2482	121.2
0.0075	0.0352	0.0232	0.2542	121.2
0.0075	-0.0285	0.015	0.1672	121.2
0.003	-0.0203	0.0112	0.057	121.2
0.0022	-0.0023	0.0105	-0.0233	121.3
-0.0008	-0.045	0.0067	-0.0068	121.3
-0.0015	-0.0788	-0.0038	0.0292	121.3
-0.0008	-0.1088	-0.0158	-0.0871	121.3
-0.003	-0.066	-0.0285	-0.2573	121.3
0	-0.0548	-0.0346	-0.3803	121.3
-0.0023	-0.054	-0.0353	-0.4358	121.3
-0.0068	0.0232	-0.03	-0.3188	121.3
-0.0075	0.0277	-0.0218	-0.1523	121.2
-0.0053	-0.0225	-0.0068	0.045	121.2
0.0015	-0.0075	0.0067	0.2107	121.2
0.0045	0.0667	0.015	0.27	121.2
0.003	0.1222	0.0157	0.2835	121.2
0.0037	0.0952	0.015	0.3292	121.2
0	0.1125	0.018	0.318	121.2
0	0.1597	0.012	0.2152	121.1
0.0015	0.0502	0.009	0.1687	121.1
0.003	-0.111	0.0082	0.039	121.1
0.0067	-0.1298	-0.0015	-0.063	121.1
0.0007	-0.153	-0.0143	-0.1418	121.1
-0.003	-0.111	-0.0195	-0.1598	121.1
-0.0038	-0.0863	-0.0158	-0.1208	121.1
-0.0068	-0.1013	-0.0143	-0.1665	121
-0.003	-0.0563	-0.015	-0.18	121
-0.0053	-0.0188	-0.0143	-0.1328	121
-0.0091	0.0367	-0.0143	-0.0353	121
-0.0105	-0.0713	-0.0105	-0.0233	121
-0.0083	-0.0743	-0.0053	-0.0203	121
-0.0023	-0.0015	-0.006	-0.048	121
0.0015	-0.0256	-0.0046	-0.057	121
0	0.165	-0.0053	-0.0263	121
-0.0008	0.276	-0.0053	-0.0675	121
0.0022	0.1875	-0.0008	-0.054	121
0.003	-0.0181	0.006	-0.0346	121
0.0097	-0.18	0.0135	0.018	121
0.0105	-0.1163	0.0127	0.036	121
0.0067	-0.1118	0.0127	0.018	120.9
0.0082	0.0345	0.0127	0.0502	120.9
0.003	0.189	0.0127	0.033	120.9
0.0045	0.165	0.012	0.018	120.9
0.006	0.1215	0.009	0.0165	120.9
0.006	0.0615	0.0067	0.0082	120.9
0.0097	0.042	0.003	0.0172	120.9
0.0082	-0.0256	0.003	0.0405	120.8
0.0097	-0.054	0.0067	0.0067	120.8
0.0082	-0.0038	0.0105	-0.0293	120.8
0.0045	-0.0165	0.0097	-0.0158	120.8
0.003	-0.054	0.0105	0.0322	120.8
0	-0.0443	0.0105	0.0502	120.8
-0.0023	-0.0436	0.009	-0.0263	120.8
-0.003	-0.0083	0.009	-0.057	120.7
-0.003	-0.0053	0.0045	-0.0728	120.7
-0.0053	-0.0436	0.0007	-0.0668	120.7
-0.003	-0.0398	0	-0.003	120.7
-0.003	-0.0436	-0.0015	-0.006	120.7
0.0007	-0.0218	-0.0015	-0.0015	120.6
0.0037	-0.0091	0.0007	0.0112	120.6
0.003	0.0007	0.003	0.0052	120.6
0.0052	0.036	0.0067	0.033	120.6
0.0037	0.042	0.0075	0.0615	120.6
0.003	0.0112	0.0067	0.0615	120.6
0.0045	-0.006	0.0067	0.0517	120.6
0.0052	-0.0203	0.0015	0.0495	120.5
0.0052	-0.0293	-0.0023	0.0277	120.5
0.003	-0.0248	-0.0046	-0.0113	120.5
-0.0008	-0.0083	-0.0105	-0.039	120.5
-0.0023	0.0045	-0.0128	-0.0615	120.5
0.0007	-0.0143	-0.0128	-0.0706	120.4
0.0015	-0.0248	-0.012	-0.066	120.4
0.0045	-0.0563	-0.0053	-0.0953	120.4
0.0022	-0.048	0.0015	-0.099	120.4
0.0015	-0.0038	0.0105	-0.0608	120.4
0.0022	0.0442	0.0195	-0.0128	120.3
0.003	0.1065	0.0307	0.0787	120.3
0.0067	0.0877	0.0345	0.123	120.3
0.0067	0.0495	0.0277	0.1155	120.3
-0.0015	0.018	0.015	0.0577	120.3
-0.0008	-0.0263	0.006	-0.015	120.2
-0.003	-0.0135	0.0037	-0.0233	120.2
-0.0046	0.0097	-0.003	0.024	120.2
-0.0023	0.027	-0.0083	0.1027	120.2
-0.0046	-0.0091	-0.0105	0.081	120.2
-0.0015	-0.0653	-0.0165	-0.06	120.1
-0.0105	-0.1215	-0.0233	-0.1426	120.1
-0.0158	-0.1913	-0.0323	-0.1275	120.1
-0.0135	-0.162	-0.0338	-0.0893	120.1
-0.012	-0.0758	-0.0278	-0.0683	120.1
-0.0023	0.0547	-0.0203	-0.084	120.1
0.0067	0.1792	-0.0053	-0.057	120
0.0097	0.2167	0.0105	0.0157	120
0.0142	0.1432	0.0232	0.096	120
0.0187	0.0847	0.0255	0.1725	119.9
0.0157	0.06	0.024	0.2062	119.9
0.015	-0.0203	0.0247	0.1927	119.9
0.012	0.0052	0.0255	0.165	119.8
0.0105	0.045	0.0217	0.1222	119.8
0.012	0.099	0.0097	0.0832	119.8
0.0075	0.0802	0.0022	0.0607	119.8
0.0112	-0.039	0.0007	0.0397	119.7
0.0082	-0.0878	-0.006	0.024	119.7
0.006	-0.1283	-0.0075	-0.063	119.7
0.0082	-0.1178	-0.0113	-0.159	119.7
0	-0.0706	-0.0165	-0.1703	119.7
-0.0046	-0.0075	-0.0181	-0.0908	119.6
-0.0091	0.0555	-0.0233	-0.0173	119.6
-0.0135	0.066	-0.0256	0.003	119.6
-0.012	0.0135	-0.0233	0.024	119.5
-0.0098	-0.0383	-0.0248	-0.0436	119.5
-0.0083	-0.0308	-0.0256	-0.0398	119.5
-0.0015	-0.0015	-0.0285	-0.0405	119.4
0	0.0195	-0.0263	-0.0436	119.4
0	-0.0188	-0.024	-0.015	119.4
0.0015	-0.0285	-0.0233	-0.0346	119.4
-0.0008	-0.0105	-0.0233	-0.015	119.3
0.003	-0.0038	-0.027	-0.0188	119.3
0.0067	0.0022	-0.024	-0.0046	119.3
0.0045	-0.0105	-0.024	-0.0068	119.2
0.0052	-0.0128	-0.0203	-0.0143	119.2
0.0015	-0.024	-0.0181	-0.0203	119.2
0.0015	-0.0263	-0.0143	-0.0203	119.2
0.0022	-0.0046	-0.0113	0.0127	119.2
-0.0008	0.0667	-0.0105	0.0255	119.1
0.0015	0.138	-0.0053	0.0322	119.1
0.0015	0.0982	-0.0038	0.0405	119
0.0045	0.0465	0.0007	0.0232	119
0.0037	-0.0195	0.0015	-0.0293	119
-0.003	-0.1583	-0.0023	-0.0593	119
0.0007	-0.237	0.0007	-0.057	119
0.0015	-0.1898	-0.0015	-0.0256	118.9
0.003	-0.012	-0.0008	-0.012	118.9
0.0067	0.162	-0.0008	0.012	118.9
0.003	0.1485	-0.0008	-0.0135	118.9
0.0052	0.0285	0.0015	-0.0743	118.8
0.0052	0.0412	0.0007	-0.0165	118.8
0.0037	0.051	0.0045	0.012	118.8
0.0097	0.0645	0.0105	0.057	118.8
0.0082	0.0615	0.0232	0.1065	118.8
0.009	-0.0375	0.036	0.1042	118.7
0.0127	-0.0053	0.0367	0.0952	118.7
0.0067	-0.0308	0.0382	0.0697	118.7
0.006	-0.0413	0.0382	0.078	118.7
0.0082	-0.0173	0.0352	0.0675	118.6
0.0052	-0.0668	0.0345	0.0345	118.6
0.0045	-0.057	0.03	0.0007	118.5
0.0022	-0.0728	0.0277	-0.0263	118.5
0.003	-0.048	0.024	-0.0465	118.5
0.0015	-0.0436	0.018	-0.0691	118.5
0.0007	-0.0728	0.0165	-0.09	118.5
0.0015	-0.1043	0.0165	-0.108	118.4
0	-0.0893	0.0217	-0.1088	118.4
0.0007	0.0442	0.0255	-0.0706	118.4
0.003	0.1372	0.03	0.027	118.4
0	0.1815	0.0315	0.126	118.3
-0.003	0.174	0.0292	0.1425	118.3
-0.003	0.1087	0.0172	0.0705	118.3
-0.0105	0.0322	0.0067	0.009	118.3
-0.0091	0.003	0.0045	0.0502	118.3
-0.0083	0.0097	0.003	0.099	118.3
-0.0091	-0.0068	-0.0008	0.072	118.2
-0.003	-0.027	-0.0053	0.0352	118.2
-0.006	-0.0458	-0.0075	-0.0181	118.2
-0.0008	-0.0555	-0.0068	-0.048	118.2
0.0015	-0.0518	-0.0068	-0.066	118.1
-0.0008	-0.033	-0.0068	-0.0788	118.1
0.0052	-0.0256	-0.0075	-0.0548	118.1
0.003	-0.0098	-0.0075	-0.042	118.1
0.0007	-0.0038	-0.0083	-0.0368	118
-0.0008	0.0067	-0.006	-0.0346	118
-0.0046	0.0442	-0.0091	-0.0105	118
-0.0015	0.0465	-0.0098	0.0075	117.9
0	0.0315	-0.0128	0.0052	117.9
0.003	0.0157	-0.0143	0.0157	117.9
0.0052	0.012	-0.0128	0.027	117.9
0.0052	0.009	-0.0098	0.0195	117.9
0.0045	0.0255	-0.0098	0.003	117.8
0.0015	0.0345	-0.012	-0.006	117.8
-0.0008	-0.0008	-0.0091	-0.0105	117.8
0.0007	-0.0143	-0.0091	-0.0143	117.8
0.003	-0.0053	-0.012	-0.0143	117.7
0.0007	0.0135	-0.0128	0.0142	117.7
-0.0038	0.0285	-0.0128	0.0255	117.7
-0.0046	0.0412	-0.0091	0.0502	117.6
-0.003	0.0525	-0.0038	0.0975	117.6
-0.003	0.0495	-0.0008	0.069	117.5
-0.0008	0.0195	-0.0015	0.0307	117.5
-0.0015	-0.012	-0.0008	-0.0105	117.5
-0.0008	-0.0098	-0.003	-0.0233	117.5
-0.0038	-0.0256	-0.0053	0.012	117.5
-0.0053	-0.012	-0.0046	0.0195	117.4
-0.0053	-0.0053	-0.006	0.009	117.4
-0.0083	-0.012	-0.0015	-0.0308	117.4
-0.0023	-0.048	0.0022	-0.066	117.4
0.0007	-0.1163	0.003	-0.1223	117.4
0.003	-0.099	0.0015	-0.1508	117.3
0.0045	-0.0263	0.0045	-0.1388	117.3
0.0037	0.0997	0.012	-0.0825	117.3
0.0052	0.186	0.0135	0.0337	117.3
0.006	0.1185	0.0165	0.0937	117.2
0.003	0.0562	0.0217	0.1297	117.2
0.003	0.0465	0.0262	0.1222	117.2
0.003	0.045	0.0307	0.1177	117.2
0.003	0.0937	0.036	0.078	117.1
0.009	0.1117	0.0367	0.0427	117.1
0.009	0.1102	0.0277	0.0457	117
0.0037	0.0622	0.0157	-0.0046	117
-0.0008	-0.0256	0.0067	-0.0256	117
-0.0053	-0.06	0.0015	-0.039	117
-0.003	-0.1043	0.003	-0.0308	117
0.003	-0.1253	-0.0008	-0.0353	117
0.0015	-0.0938	-0.0046	-0.063	117
0.0052	-0.0615	-0.0008	-0.0511	117
0.0075	-0.0278	0.006	-0.0346	117
0.0097	0.0172	0.0142	-0.015	117
0.012	-0.0233	0.0187	-0.0278	117
0.0067	-0.0465	0.0202	-0.0323	117
0.0097	-0.0293	0.0187	-0.0098	116.9
0.0075	-0.033	0.0172	-0.006	116.9
0.0052	-0.0218	0.0195	-0.003	116.9
0.0067	-0.0495	0.0195	-0.0128	116.9
0.0007	-0.0346	0.0165	-0.033	116.9
-0.0015	-0.048	0.0127	-0.0465	116.9
-0.0008	-0.054	0.0097	-0.0465	116.9
0.0007	-0.0405	0.0052	-0.039	116.8
0.003	-0.0458	0.0015	-0.0353	116.8
0.0067	-0.0091	0.0022	-0.0158	116.8
0.0067	-0.042	0.0037	0.0015	116.8
0.0052	-0.1148	0.0007	0.015	116.8
0.003	-0.1688	0.0007	0.018	116.7
0.003	-0.1935	0.0045	0.0037	116.7
0.0045	-0.213	0.0037	-0.0105	116.7
-0.0008	-0.1575	0.0045	-0.0165	116.7
0.0052	-0.0706	0.006	-0.0008	116.7
0.0067	-0.108	0.0045	-0.0068	116.6
0.0052	-0.1103	0.0052	-0.0218	116.6
0.0045	0.0165	0.0052	0.0105	116.6
-0.0023	0.1327	0.0015	0.078	116.6
-0.0008	0.2115	-0.0038	0.1372	116.6
-0.003	0.201	0	0.0982	116.5
0.0015	0.1185	0.0045	0.0382	116.5
0.0037	0.039	-0.003	0.0105	116.5
-0.0053	0.0157	-0.0091	-0.0361	116.5
-0.0046	0.0735	-0.0105	-0.006	116.5
-0.0068	0.0382	-0.0098	-0.0053	116.5
-0.006	0.0855	-0.0068	-0.0053	116.4
-0.0023	0.1335	-0.0083	0.0022	116.4
0.0007	0.0975	-0.0113	-0.0346	116.4
0.0015	0.1192	-0.0128	-0.0263	116.4
0.0015	0.078	-0.0135	-0.0585	116.4
0.0067	0.0705	-0.0165	-0.0908	116.4
0.0082	0.0345	-0.0128	-0.1305	116.4
0.0127	-0.0105	-0.0075	-0.1455	116.4
0.0112	-0.0181	0	-0.117	116.4
0.0067	0.018	0.0142	-0.1208	116.3
0.0045	0.1252	0.024	-0.0353	116.3
-0.0015	0.1912	0.0337	0.1312	116.3
0.0007	0.2062	0.042	0.2107	116.3
0.0045	0.1672	0.045	0.2677	116.3
0.0052	0.1177	0.042	0.2542	116.3
0.0067	0.0382	0.0292	0.165	116.2
0.003	-0.0308	0.015	0.1372	116.2
0.0022	-0.0998	0.003	0.0525	116.2
0.0007	-0.135	-0.0053	0.018	116.2
-0.0046	-0.0871	-0.0068	0.009	116.2
-0.0015	-0.0728	-0.0091	-0.027	116.1
-0.0075	-0.0818	-0.0128	-0.0398	116.1
-0.0083	-0.0593	-0.015	-0.0863	116.1
-0.0053	-0.0495	-0.0158	-0.0968	116.1
-0.0053	-0.0525	-0.0173	-0.0585	116.1
-0.003	-0.0691	-0.0195	-0.0495	116.1
-0.0023	-0.0923	-0.0165	-0.0623	116.1
0.0007	-0.0818	-0.0143	-0.0346	116.1
0.003	-0.0803	-0.0098	-0.0361	116.1
0.0015	-0.0593	-0.0046	-0.0285	116.1
0.0022	-0.0563	-0.0008	-0.0181	116.1
0.0052	-0.0706	0.0067	-0.027	116.1
0.0075	-0.06	0.0075	-0.0105	116.1
0.0067	-0.0503	0.0052	-0.0218	116.1
0.0082	-0.0285	0.0067	-0.0188	116.1
0.0045	-0.0181	0.006	-0.0143	116.1
0.003	-0.0046	0.0045	-0.0068	116.1
0.003	-0.003	0.0007	-0.0008	116.1
0.0015	-0.0128	-0.003	-0.0165	116
0.0045	-0.033	-0.0015	-0.015	116
0.0045	-0.045	-0.003	-0.0128	116
0.0037	-0.0308	-0.0053	0.0082	116
0.006	-0.0128	-0.0046	0.0157	116
0.0022	0.0007	-0.0015	0.0007	116
0.0007	-0.006	-0.0023	0.003	116
0.0015	0.0165	-0.003	-0.0008	116
0.0015	0.024	-0.003	0.015	116
0.006	0.0052	-0.006	0.009	115.9
0.0045	0.0165	-0.0083	-0.0233	115.9
0.003	-0.027	-0.0075	-0.039	115.9
0.0007	-0.0458	-0.0068	-0.0465	115.9
-0.006	-0.0218	-0.003	-0.0428	115.9
-0.0068	-0.0158	0.0007	-0.0518	115.9
-0.0068	-0.0083	0.0015	-0.0488	115.9
-0.0015	-0.0323	0.0015	-0.0143	115.8
0	-0.0181	0.0007	0.0472	115.8
0.0007	0.0015	0.0015	0.0645	115.8
0.0052	0.0015	0.0037	0.0577	115.8
0.003	0.024	0.0082	0.0607	115.8
0.003	0.0157	0.0142	0.057	115.8
0.003	0.0217	0.0165	0.054	115.7
-0.003	-0.0158	0.015	0.027	115.7
-0.0008	-0.06	0.0097	0.0075	115.7
-0.0008	-0.1043	0.003	-0.0083	115.7
-0.0015	-0.1343	0.0007	-0.0203	115.7
0.0007	-0.0953	-0.0008	-0.0465	115.7
-0.0015	-0.0548	-0.0008	-0.0773	115.7
0.0007	0.0232	0.0022	-0.0893	115.7
0.0037	0.0075	0.0075	-0.0735	115.7
0.0015	-0.006	0.0142	-0.0053	115.7
0.0015	0.0652	0.0225	0.024	115.7
0.0067	0.1275	0.0255	0.126	115.7
0.003	0.1695	0.024	0.1702	115.7
0.0075	0.1327	0.0255	0.1545	115.7
0.009	0.1012	0.0262	0.144	115.7
0.0037	0.0495	0.0232	0.0645	115.7
0.006	0.0375	0.0105	0.0585	115.7
-0.0023	0.0397	-0.003	-0.0038	115.6
-0.0068	0.0217	-0.0068	-0.0128	115.6
-0.0046	-0.0075	-0.0091	-0.0465	115.6
-0.0046	-0.0413	-0.0083	-0.0668	115.6
-0.003	-0.033	-0.0113	-0.054	115.6
-0.0008	-0.0443	-0.015	-0.078	115.6
0.0015	-0.0203	-0.0128	-0.024	115.6
0.003	-0.0346	-0.0091	-0.0315	115.6
0.0052	-0.012	-0.0008	0	115.6
0.0045	0.0067	0.0015	0	115.6
0.0082	-0.0188	0.0015	-0.0015	115.6
0.0067	0.0135	0.0022	0.0105	115.6
0.0045	0.0232	0.003	-0.0091	115.6
0.0082	0.0195	0.0015	0.0007	115.6
0.0052	0.0015	-0.0015	-0.024	115.6
0.0045	0.0007	-0.0068	-0.0195	115.6
0.0045	0.0015	-0.012	-0.0233	115.6
0.003	0.0052	-0.0143	-0.0233	115.6
0.0052	0.0157	-0.0158	-0.0158	115.7
0.003	0.0127	-0.015	-0.0218	115.7
-0.0008	0.0127	-0.015	-0.0143	115.7
0.0015	0.0112	-0.0143	-0.0181	115.7
0.0007	0.0135	-0.0143	-0.015	115.7
0.003	0.0157	-0.0143	-0.0135	115.7
0.003	0.0255	-0.0158	-0.0128	115.7
0	0.0217	-0.0158	-0.0105	115.7
0.0015	0.0307	-0.0143	-0.012	115.7
-0.0038	0.024	-0.0173	-0.0075	115.7
-0.0053	0.0195	-0.0158	-0.003	115.7
-0.0068	0.0322	-0.0165	0.003	115.7
-0.0053	0.0127	-0.0143	0.0075	115.6
0.003	-0.0046	-0.0075	0.0082	115.6
0.003	-0.0195	-0.006	0.0105	115.6
0.0067	-0.0008	-0.003	0.012	115.6
0.0037	0.009	-0.0053	-0.0008	115.6
0.0045	-0.0143	-0.0075	-0.0098	115.6
0.0067	-0.012	-0.006	-0.012	115.6
0.0022	-0.0091	-0.0053	-0.012	115.6
0.0037	0.0045	-0.0046	-0.0128	115.6
0.003	0.015	-0.0038	-0.0113	115.6
0.0045	0.0007	-0.0008	-0.003	115.6
0.006	-0.0053	0.0007	0.0097	115.5
0.0037	-0.0038	0.0045	0.0255	115.5
0.0045	-0.0015	0.006	0.027	115.5
0.003	-0.0083	0.0045	0.0232	115.5
0.0015	-0.0135	0.0045	0.0157	115.5
0.0015	-0.0083	0.0037	0.0112	115.5
-0.0015	-0.0068	0.0052	0.0127	115.5
0.0015	-0.0105	0.0045	0.009	115.5
0.0015	-0.0128	0.0045	0.009	115.5
-0.0015	-0.0135	0.0082	0.0067	115.5
0.0022	-0.003	0.0075	0.0007	115.5
0.0022	0	0.009	-0.003	115.5
0.0015	-0.0015	0.0082	-0.0046	115.5
0.0067	0.0037	0.0067	-0.0023	115.5
0.0052	-0.0008	0.006	-0.0053	115.5
0.003	0.0037	0.003	-0.0053	115.5
0.0015	0.0052	0.0045	-0.0075	115.5
-0.0008	-0.0075	0.0007	-0.015	115.5
-0.0008	-0.0248	-0.0023	-0.0225	115.5
-0.003	-0.0368	-0.003	-0.027	115.5
-0.0038	-0.0181	-0.0038	-0.0278	115.5
0	-0.0015	-0.0015	-0.024	115.5
0	-0.0053	-0.0015	-0.0158	115.4
0.0015	-0.033	-0.0008	-0.0083	115.4
0.006	-0.066	0.0082	0.0015	115.4
0.0075	-0.0323	0.0142	0.0097	115.4
0.0097	0.021	0.0165	0.018	115.4
0.012	0.0517	0.0165	0.0352	115.4
0.0105	0.1012	0.0195	0.054	115.4
0.012	0.1012	0.0165	0.0712	115.4
0.0112	0.063	0.0097	0.0652	115.4
0.0067	0.06	0.0015	0.0367	115.4
0.0015	0.0322	-0.0046	0.027	115.3
-0.0008	0.0067	-0.003	0.0195	115.3
-0.0008	-0.0585	-0.003	0.0105	115.3
-0.0023	-0.1006	-0.0015	0.0052	115.3
-0.0015	-0.0233	0	-0.0068	115.3
-0.0008	-0.0195	-0.0015	-0.0113	115.3
-0.0053	0.0105	-0.003	-0.0165	115.3
-0.0008	0.045	-0.0023	-0.0195	115.3
0.003	0.0157	-0.0046	-0.0195	115.2
-0.0008	0.0382	-0.0053	-0.0233	115.2
-0.0008	0.0232	-0.0046	-0.0218	115.2
-0.0015	0.0375	-0.0075	-0.024	115.2
-0.003	0.0352	-0.0083	-0.0233	115.2
-0.0008	0.0375	-0.0083	-0.021	115.2
0.003	0.0517	-0.0083	-0.0165	115.2
0.003	0.0015	-0.0083	-0.0135	115.2
0.0045	-0.0008	-0.0083	-0.0098	115.1
0.0045	-0.027	-0.0046	-0.0046	115.1
0.0052	-0.0346	-0.0046	-0.003	115.1
0.006	0.0022	-0.003	0.0007	115.1
0.0037	-0.0046	-0.0038	0.0007	115
0.0022	0.0007	-0.0068	0.0007	115
0	-0.0008	-0.0053	0.0007	115
-0.0023	0.0067	-0.0091	-0.003	115
-0.0046	0.0157	-0.0135	-0.0128	115
-0.0075	0.006	-0.015	-0.027	114.9
-0.006	0.0067	-0.0158	-0.0375	114.9
-0.003	0.009	-0.0128	-0.0428	114.9
-0.003	-0.012	-0.0105	-0.0338	114.9
-0.0008	-0.0383	-0.0083	-0.0083	114.8
0.003	-0.0405	-0.0046	0.0157	114.8
0.0045	-0.0383	-0.0008	0.0322	114.8
0.009	-0.0091	0.0052	0.0442	114.7
0.0082	0.0352	0.0052	0.0412	114.7
0.0082	0.0675	0.0037	0.0375	114.7
0.0097	0.0795	0.0052	0.0315	114.7
0.0082	0.0817	0.0015	0.0202	114.6
0.0075	0.0817	0.0007	0.0165	114.6
0.0037	0.0862	-0.0008	0.0135	114.6
0.0037	0.0937	-0.0053	0.0105	114.5
0.0007	0.0667	-0.0046	0.0015	114.5
-0.0046	0.0382	-0.0053	-0.0038	114.4
-0.0038	-0.0233	-0.006	-0.003	114.4
-0.006	-0.1418	-0.0068	-0.0046	114.4
-0.0068	-0.216	-0.0098	-0.0091	114.3
-0.0068	-0.1935	-0.0098	-0.0165	114.3
-0.0083	-0.1726	-0.0083	-0.0203	114.3
-0.0083	-0.1545	-0.0068	-0.0308	114.2
-0.0038	-0.0788	-0.006	-0.0458	114.2
-0.0008	-0.024	-0.0053	-0.0473	114.2
0.0052	0.018	-0.003	-0.0293	114.1
0.0105	0.042	0.0015	-0.0195	114.1
0.0105	0.045	0.0045	0.0052	114
0.012	0.042	0.0067	0.027	113.9
0.012	0.0202	0.0075	0.0067	113.9
0.0105	0.0015	0.0067	-0.0015	113.8
0.0105	0	0.006	-0.012	113.8
0.009	0.0097	0.0052	0.0045	113.8
0.0075	0	0.0067	0.0195	113.7
0.009	0.0142	0.009	0.024	113.6
0.009	0.057	0.0105	0.0367	113.6
0.009	0.0502	0.006	0.0187	113.5
0.0045	0.0217	0	-0.0068	113.5
0.0037	0.0225	-0.0015	-0.048	113.4
0.006	0.0375	0.0007	-0.0743	113.4
0.003	0.0532	0.0007	-0.054	113.3
0.0022	0.0427	0.0015	-0.0158	113.3
0.0045	0.0375	-0.0008	0.0232	113.2
0.0007	0.0457	-0.0008	0.0592	113.1
0.0007	0.0397	0.003	0.0652	113.1
0.0015	0.0592	0.0052	0.0765	113
0.0015	0.0585	0.0052	0.0967	112.9
0.003	-0.0068	0.0045	0.0945	112.9
0.0007	-0.0721	0.0045	0.0892	112.8
-0.0015	-0.084	0.0007	0.0667	112.7
0.0007	-0.0983	-0.0015	0.0442	112.6
-0.003	-0.099	-0.0015	0.0232	112.6
-0.0015	-0.0765	-0.0023	-0.0015	112.5
-0.0015	-0.054	-0.0015	-0.0225	112.4
-0.0053	-0.0083	-0.0023	-0.0346	112.3
-0.0046	0.018	0.0015	-0.0353	112.2
-0.0053	-0.0128	0.0022	-0.0383	112.2
-0.0046	-0.0158	0.0015	-0.0413	112.1
-0.0023	-0.0555	0.0037	-0.0383	112
-0.0046	-0.159	0.003	-0.0346	111.9
-0.0038	0.105	0.003	-0.033	111.9
-0.0008	0.429	0.003	-0.0233	111.8
-0.003	0.4762	0.0015	0.0082	111.7
-0.0038	0.276	-0.0008	0.0345	111.6
-0.0015	0.0165	0.0007	0.027	111.6
-0.0015	-0.042	-0.0008	0.0097	111.4
0.0022	-0.1065	-0.003	-0.0181	111.4
0.0015	0.0892	-0.0008	-0.0593	111.3
0	0.0637	0.0007	-0.093	111.2
0.0037	-0.0908	0	-0.0788	111.1
0.0007	-0.0856	-0.0015	-0.027	111
0.003	-0.18	-0.0015	0.0232	110.9
0.003	-0.1215	-0.0008	0.057	110.8
0.0015	-0.1763	0.003	0.0487	110.7
0.0067	-0.2093	0.0045	0.0337	110.7
0.0015	-0.1973	0.0045	0.018	110.6
0.0015	-0.2168	0.0052	-0.0008	110.5
0.0022	-0.2385	0.0045	-0.003	110.4
-0.003	-0.246	0.0022	-0.0105	110.3
-0.0008	-0.135	-0.0015	-0.0143	110.2
-0.0015	-0.1411	-0.003	-0.0173	110.1
-0.0015	-0.1125	-0.0046	-0.0195	110
0.0007	-0.0383	-0.0038	-0.0165	109.9
0.0007	-0.0323	-0.0038	-0.0203	109.8
0.0007	0.0285	-0.0053	-0.024	109.8
0.0015	0.0052	-0.0053	-0.0256	109.6
-0.0008	-0.2708	-0.0068	-0.0256	109.5
-0.0015	-0.582	-0.006	-0.0173	109.4
0.0015	-0.7838	-0.0023	-0.0068	109.3
0.003	-0.5858	0.0007	-0.0068	109.2
0.0067	-0.0218	0	0.0045	109
0.0067	0.2445	-0.0015	0.021	108.9
0.0045	0.3975	-0.0023	0.012	108.8
0.0052	0.5632	-0.0046	0.006	108.7
0.0082	0.705	-0.0015	-0.0068	108.5
0.0097	0.8175	-0.003	-0.0315	108.4
0.0067	0.7012	-0.0015	-0.0428	108.3
0.003	0.5835	-0.0038	-0.039	108.2
0.0037	0.411	-0.0053	-0.027	108
0.0045	0.273	-0.0008	-0.0128	107.9
0.0052	0.1635	-0.0008	0.0037	107.8
0.0082	0.0862	0.0015	-0.0091	107.7
0.009	0.0517	0.0052	-0.0143	107.5
0.0127	-0.0458	0.0075	-0.0143	107.4
0.0127	-0.0968	0.009	0.0052	107.3
0.0075	-0.1875	0.0105	0.0645	107.1
0.009	-0.2475	0.009	0.078	107.1
0.0075	-0.2011	0.0097	0.0412	106.9
0.0067	0.021	0.009	0.0142	106.8
0.009	0.201	0.0082	0.0112	106.6
0.006	0.2557	0.0067	0.0097	106.5
0.0037	0.2955	0.0052	0.0127	106.3
0.0045	0.2527	0.0045	0.0172	106.2
0.0015	0.207	0.0007	0.006	106.1
-0.0008	0.096	-0.0053	-0.0068	105.9
0.0022	0.0007	-0.0053	-0.0091	105.7
-0.0046	-0.1043	-0.0038	-0.0105	105.6
-0.0015	-0.1748	-0.003	-0.0083	105.5
0.0007	-0.1726	0.0007	0.0007	105.3
-0.0015	-0.1973	0.0022	0.0037	105.2
0.0015	-0.1943	0.0015	-0.0053	105.1
0	-0.2213	0.0007	-0.0158	104.9
0.003	-0.2348	-0.0008	-0.0135	104.8
0.0022	-0.2093	-0.0015	-0.0008	104.6
-0.0008	-0.1741	-0.0046	-0.0285	104.5
-0.0023	-0.1373	-0.0053	-0.0721	104.3
-0.0053	-0.1426	-0.0015	-0.0503	104.2
-0.003	-0.177	0.003	-0.0225	104
0	-0.21	0.006	0.0165	103.9
-0.0015	-0.1463	0.0105	0.054	103.7
-0.003	-0.042	0.012	0.0442	103.5
-0.003	0.0255	0.0127	0.0465	103.4
-0.003	0.099	0.012	0.0472	103.2
0.0015	0.1005	0.0105	0.0502	103
0.0045	0.0667	0.0112	0.0405	102.9
0.003	0.0142	0.0067	0.015	102.7
0.0022	-0.0465	0.0045	0.0045	102.6
-0.0008	-0.0555	-0.0008	0.003	102.4
-0.003	-0.0795	-0.0023	-0.0008	102.2
-0.003	-0.0683	-0.0023	-0.0323	102.1
-0.003	-0.045	-0.0046	-0.0323	101.9
-0.0015	-0.048	-0.0008	-0.027	101.7
-0.0023	-0.0458	-0.0015	-0.0278	101.6
0.0007	-0.042	-0.0038	-0.0053	101.4
0.003	-0.0368	-0.0008	-0.0068	101.3
-0.0008	-0.0473	0.003	-0.0091	101.1
-0.0008	-0.0315	0.0007	-0.0075	100.9
-0.0053	-0.0278	0	-0.0091	100.8
-0.0053	-0.045	0.0022	-0.0083	100.6
-0.0015	-0.0195	0.0037	-0.006	100.4
-0.0053	-0.0015	0.0052	0.0007	100.2
-0.0015	0.009	0.003	-0.0046	100
0.0007	0.0187	0.0015	-0.012	99.8
0	0.0127	0.0037	-0.0046	99.7
0.0037	0.0157	0	0.0037	99.5
0.0037	0.0052	-0.003	0.0127	99.3
0.0045	-0.0008	0	0.0127	99.2
0.0007	0.0007	0.0015	0.0007	99
0.0007	0.0015	0.0015	-0.0023	98.8
0.0045	0.0015	0.0015	-0.003	98.6
0.0037	-0.003	0.003	-0.003	98.5
0.0045	0.0007	0.0045	0	98.3
0.0037	0.0097	0.0067	-0.0053	98.1
0.0015	0.0225	0.0067	-0.0128	97.9
0.003	0.0502	0.0067	-0.0195	97.7
0.0015	0.0705	0.0075	-0.0158	97.5
0.0015	0.0495	0.0067	-0.0083	97.4
0.0015	0.0345	0.0052	-0.0023	97.2
-0.003	0.0105	0.003	-0.0015	97
-0.0015	-0.0323	0	-0.0015	96.8
-0.0023	-0.0346	-0.003	0.003	96.7
-0.003	-0.0338	-0.0053	-0.0053	96.5
-0.0023	-0.03	-0.0053	-0.0203	96.3
-0.0053	-0.0158	-0.0046	-0.024	96.1
-0.0038	0.0015	-0.003	-0.0075	95.9
0.0007	0.0082	0.0007	0.0165	95.7
0.003	0.0105	0.0007	0.0382	95.5
0.0052	0.024	0.003	0.0315	95.3
0.0075	0.0195	0.0052	0.0015	95.2
0.0052	0.0157	0.0075	-0.033	95
0.0082	0.006	0.0105	-0.0443	94.8
0.0052	0.0067	0.0097	-0.0323	94.6
0.003	0.0142	0.0067	-0.0398	94.5
0.0052	0.0375	0.0067	0.009	94.3
0.003	0.0712	0.006	0.0652	94.1
0.003	0.0727	0.0075	0.084	93.9
0.003	0.0427	0.0075	0.1237	93.7
0.0007	-0.0053	0.0045	0.096	93.5
0	-0.0135	0.0015	0.066	93.3
-0.0008	0.0082	-0.0008	0.0397	93.1
0.0015	0.0067	-0.0038	0.0082	92.9
0.003	-0.006	-0.0023	0.0015	92.7
0.0015	-0.0083	0.0007	-0.0173	92.6
0.0022	0.0022	0	-0.0105	92.3
0.0015	0.0052	0.0022	-0.0128	92.2
0.0015	0.0067	-0.0015	-0.0046	91.9
0.0015	0.0082	-0.0023	-0.0091	91.8
0	0.0052	-0.0008	-0.0195	91.6
0	0.0052	-0.0038	-0.012	91.3
0.0007	0.0067	-0.003	-0.021	91.2
0.0015	0.0127	-0.006	-0.0181	91
0	0.0157	-0.0068	-0.024	90.8
0	0.0127	-0.0053	-0.027	90.6
-0.0015	0.0067	-0.0038	-0.0225	90.4
-0.0008	0.0045	-0.0046	-0.024	90.2
-0.0023	0.0045	-0.0053	-0.0293	90
-0.0038	0.0037	-0.0038	-0.0368	89.8
0.0007	0.0007	-0.0075	-0.0368	89.6
-0.0038	-0.0015	-0.0053	-0.0346	89.5
-0.0038	0.0165	-0.0046	-0.0053	89.3
-0.0008	0.0232	-0.003	-0.0158	89.1
-0.0015	0.0172	0.003	-0.0458	88.9
0.003	0.018	0.0045	0.0015	88.7
0.0015	0.0067	0.0067	0.0165	88.5
0	0.0352	0.0052	0.0195	88.3
0.0015	0.0397	0.0045	0.0375	88.2
0	0.0165	0.0045	0.027	88
0.0015	0.0105	0.0045	0.0345	87.8
0.0007	-0.015	0.0067	0.0382	87.6
-0.0023	-0.024	0.0045	0.0255	87.4
-0.0008	-0.0353	0.0022	0.012	87.2
-0.0023	-0.0218	0.0022	-0.0008	87
-0.0046	-0.0008	0	-0.0023	86.8
-0.0068	-0.0091	-0.003	-0.0203	86.7
-0.0075	-0.0008	-0.0083	-0.0248	86.5
-0.003	-0.006	-0.0091	-0.0158	86.3
0.0007	-0.0038	-0.0068	-0.0143	86.1
0.0045	0	-0.003	-0.006	85.9
0.0075	-0.0068	-0.0008	-0.0083	85.7
0.0052	-0.0181	-0.0008	-0.0195	85.5
0.0067	-0.0293	-0.0015	-0.0428	85.3
0.0097	-0.0105	-0.0008	-0.0495	85.1
0.0067	0.0255	0.0007	-0.0091	84.9
0.006	0.054	0.0045	0.033	84.7
0.0045	0.033	0.0052	0.0487	84.5
0.0045	0.0217	0.0052	0.057	84.3
0.009	0.024	0.0067	0.0495	84.1
0.0082	-0.0015	0.0022	0.0337	83.9
0.0127	-0.0091	-0.003	0.0285	83.7
0.0112	-0.0135	-0.0053	0.0247	83.5
0.009	-0.0053	-0.0075	0.0127	83.2
0.0112	0.0067	-0.0091	-0.0113	83.1
0.0082	0.0202	-0.012	-0.0256	82.9
0.009	0.0195	-0.0068	-0.024	82.7
0.0067	0	-0.0046	-0.0128	82.4
0.0075	0.0052	-0.0046	0.0007	82.2
0.0075	0	-0.003	-0.0068	82.1
0.0045	-0.0008	-0.0053	-0.0165	81.8
0.0037	0.0067	-0.003	-0.0203	81.7
0.0037	0.003	-0.003	-0.006	81.4
0.0007	-0.0083	-0.0046	0.0007	81.3
-0.0008	-0.0165	-0.0038	-0.0128	81.1
0.0015	-0.0083	-0.0038	-0.0113	80.9
0.0015	0.0007	-0.0015	-0.0038	80.7
0.0015	0.0135	0.0007	-0.0105	80.5
0	0.0045	0	-0.0173	80.3
0.0007	-0.0046	0.0037	-0.0165	80.1
0.0067	-0.012	0.0067	-0.0105	79.9
0.006	-0.012	0.009	0.0007	79.7
0.0082	0.0075	0.0105	0.0142	79.5
0.009	0.0067	0.0082	0.0157	79.3
0.006	0.009	0.003	-0.0008	79.1
0.0052	-0.0023	-0.0008	-0.0203	78.9
0.0007	-0.0091	-0.003	-0.0293	78.7
-0.0008	-0.0046	-0.0015	-0.0188	78.5
-0.0008	-0.0091	-0.0015	0.0105	78.3
-0.0008	-0.0023	-0.0015	0.0195	78.1
0.0052	0.003	-0.0008	0.0112	77.9
0.003	0.0067	-0.0008	0.009	77.7
0.0022	0.0052	-0.0008	0.003	77.5
0.003	0.0007	-0.0008	0.0045	77.3
0.0015	-0.0053	0	0.0015	77.1
0	-0.003	-0.0008	0.003	76.9
-0.0008	0.0015	-0.0008	0.003	76.8
-0.006	-0.0015	-0.003	0	76.5
-0.0068	-0.003	-0.003	-0.0015	76.4
-0.0098	-0.0128	-0.003	-0.0091	76.2
-0.0083	-0.024	-0.0053	-0.0068	76
-0.0023	-0.015	-0.0038	-0.0008	75.8
-0.0038	0.0037	-0.0015	-0.0128	75.6
-0.0008	0.0202	0.0015	-0.033	75.4
-0.0023	0.0345	0.0052	-0.0173	75.2
-0.0015	0.0202	0.012	0.012	75
-0.003	0.0232	0.0112	0.0112	74.8
-0.0053	0.0367	0.0082	-0.0023	74.6
-0.0038	0.015	0.0045	-0.0008	74.4
-0.0038	-0.003	0.0015	0.0082	74.2
-0.0046	-0.0353	0.0015	0.0097	74
-0.003	-0.0413	0.0015	0.024	73.8
-0.0053	-0.0158	0.003	0.0465	73.7
-0.003	-0.0046	0.003	0.048	73.4
0.0045	0.0255	0.0007	0.03	73.3
0.0045	0.0225	-0.0008	0.0135	73.1
0.0075	0	-0.0008	-0.0105	72.8
0.0067	-0.0083	0.0015	-0.0293	72.7
0.0067	-0.0195	0.0015	-0.0346	72.4
0.009	-0.0128	0	-0.0233	72.3
0.0067	-0.0091	-0.0015	-0.0068	72.1
0.009	0.0015	-0.0046	-0.0173	71.9
0.0082	0.0007	-0.0075	-0.0278	71.7
0.0067	-0.0233	-0.0105	-0.057	71.5
0.0075	-0.012	-0.0068	-0.0465	71.3
0.0105	-0.0008	-0.0015	-0.0105	71.1
0.0105	-0.042	0.0007	0.0157	70.9
0.0142	-0.0533	0.0067	0.0457	70.7
0.0142	-0.0083	0.0067	0.0277	70.5
0.0082	0.0217	0.0082	0.0502	70.3
0.009	0.0345	0.0067	0.0555	70.2
0.0045	0.0217	0.009	0.0397	69.9
0.0052	0.0142	0.012	0.0405	69.7
0.0037	0.0337	0.0082	0.009	69.6
-0.0023	0.0337	0.0052	0.0082	69.4
0	0.0255	0.0022	-0.0233	69.2
-0.0038	0.0052	-0.0008	-0.0233	69
-0.0053	0.0067	-0.0023	0.0127	68.8
-0.0046	-0.006	-0.0015	0.003	68.6
-0.0053	-0.0173	-0.0008	0.0277	68.4
-0.003	-0.003	-0.0008	0.0202	68.2
-0.003	0.0007	-0.0008	-0.0083	68
-0.0015	0.0172	-0.0008	-0.015	67.8
-0.0008	0.0097	-0.003	-0.0218	67.6
-0.0046	0.0052	-0.0046	-0.003	67.5
-0.0046	-0.0023	-0.003	-0.0113	67.3
-0.0038	-0.0075	-0.003	-0.0038	67
-0.0038	-0.0038	-0.0046	-0.0105	66.9
-0.0015	-0.0091	-0.0038	-0.0083	66.6
-0.0023	-0.0053	0	0.0045	66.5
-0.0046	-0.0015	0	-0.0113	66.3
-0.003	0.006	-0.0008	-0.0091	66.1
-0.0023	-0.0091	-0.0008	-0.024	65.9
0	-0.0225	-0.0023	-0.0248	65.7
0.0052	-0.0008	-0.003	-0.027	65.5
0.0037	0.0202	-0.0015	-0.0346	65.3
0.0067	0.0337	-0.003	-0.012	65.1
0.0082	0.03	-0.003	-0.0053	64.9
0.0045	0.0022	-0.0046	-0.0053	64.7
0.0105	-0.024	-0.0046	0.0097	64.5
0.018	-0.0368	-0.006	0.042	64.3
0.0255	-0.0293	-0.0091	0.072	64.1
0.0247	-0.027	-0.0046	0.048	63.9
0.0217	-0.033	-0.0023	0.006	63.7
0.018	-0.0293	0.0007	-0.0128	63.5
0.0082	-0.0015	0.003	-0.0308	63.3
-0.0008	0.0232	0	-0.0203	63.1
-0.006	0.0112	-0.0008	0.006	62.9
-0.0091	0.003	0	0.0172	62.6
-0.0105	0.0172	0.0045	0.0067	62.5
-0.0075	0.0067	0.0037	0.003	62.3
-0.0083	0.0067	0.0075	-0.0008	62.1
0.0007	-0.0015	0.0045	-0.0083	61.9
0.0022	-0.024	0.0007	-0.0015	61.7
0.0022	-0.0195	0.0022	-0.0068	61.5
0.0007	-0.027	-0.0015	-0.0046	61.3
-0.0046	-0.0181	0.0022	-0.0143	61.1
-0.006	-0.0038	0.0022	-0.0278	60.9
-0.006	0.0277	-0.0008	-0.0361	60.7
-0.003	0.054	0.0007	-0.0368	60.5
0.0037	0.03	0.0015	-0.0128	60.3
0.0067	0.006	0.003	-0.0068	60.1
0.0082	-0.0083	0.0007	0.0052	59.9
0.0127	-0.0015	0.0015	0.033	59.7
0.0127	0.015	0.003	0.024	59.5
0.015	0.0015	0.0007	0.0165	59.3
0.0142	0.0007	0.0007	0.0142	59.1
0.0105	0.0097	-0.0008	0.0007	58.9
0.0105	0.0067	0.0007	0.0045	58.7
0.003	0.0112	0.0015	-0.006	58.5
0.0015	0.0075	0	-0.0083	58.3
0.0007	0.0015	0.0022	0.0045	58.1
-0.0008	-0.0218	0.0015	0.009	57.9
0.0022	-0.045	0.0015	0.0172	57.7
-0.0015	-0.039	0.0007	0.0195	57.6
-0.0046	-0.0413	-0.0023	-0.0053	57.3
-0.0083	-0.0285	-0.0015	-0.0075	57.1
-0.0091	0.0082	0.0007	0	56.9
-0.0083	0.0502	0.0015	-0.0098	56.7
-0.0046	0.084	0.0037	-0.0015	56.6
-0.0053	0.048	-0.0008	-0.0053	56.3
-0.0046	0.0052	-0.0015	-0.0075	56.2
-0.0038	-0.006	0	-0.0038	55.9
-0.006	-0.0353	0.0015	-0.0038	55.8
0	-0.039	0.0007	-0.0008	55.6
0.0015	-0.0338	-0.0008	-0.0015	55.3
0.003	-0.0443	0	-0.0008	55.2
0.0067	-0.0398	0.0007	-0.0068	54.9
0.0067	-0.012	0.0007	-0.006	54.7
0.0082	0.0187	-0.0008	-0.0068	54.6
0.0067	0.0015	0.0007	-0.0083	54.4
0.0082	-0.003	0.003	-0.0075	54.2
0.012	0.0292	0.003	-0.0015	54
0.0142	0.051	0.0052	0.0112	53.8
0.0142	0.0952	0.0045	0.0232	53.6
0.0157	0.0495	-0.0008	0.0255	53.4
0.012	-0.0015	-0.0008	0.0082	53.2
0.0082	0.0067	0	0.0007	53
0.0082	-0.0173	-0.003	-0.0023	52.8
0.0052	-0.0105	-0.0015	0.0037	52.6
0.0045	-0.0158	-0.0008	0.0157	52.4
0.0022	-0.0083	0	0.0075	52.2
-0.0023	-0.003	0.0015	-0.0015	52.1
-0.0023	-0.0091	0.0022	-0.0008	51.8
-0.006	0.0022	0.0007	-0.003	51.7
-0.0091	-0.0015	-0.0015	-0.003	51.5
-0.0083	0.0015	-0.0015	-0.003	51.3
-0.0113	-0.012	-0.0046	-0.0128	51.1
-0.0105	-0.0181	-0.0038	-0.0181	50.8
-0.0113	-0.0203	-0.0023	-0.0173	50.7
-0.0105	-0.0256	0.0007	-0.0165	50.5
-0.003	-0.0338	0.0045	0.0082	50.4
-0.0015	-0.0233	0.0052	0.0277	50.2
0.003	0.0037	0.006	0.0127	50
0.0015	-0.0165	0.0045	0.0142	49.8
0.0007	0.0007	0.0022	0.0105	49.6
0.003	0.009	0.003	-0.0053	49.5
0.0007	-0.0083	0.0052	0	49.3
0.0045	0.0052	0.0052	-0.0008	49.1
0.0037	-0.0203	0.003	-0.0046	48.9
0.0015	0.0067	0.0015	-0.0113	48.7
0.006	0.0405	-0.0046	-0.0143	48.6
0.0015	0.036	-0.006	-0.012	48.4
0.0007	0.0225	-0.006	-0.0083	48.2
-0.0038	0.0015	-0.003	-0.006	48
-0.006	-0.0083	-0.0008	-0.0105	47.8
-0.003	-0.0308	-0.0008	-0.0105	47.6
-0.0053	-0.03	0.0007	-0.0053	47.5
0	-0.033	0	0.012	47.2
0.0015	-0.0308	0.0015	0.0142	47.1
0.0015	-0.0075	0.0022	0.0045	46.9
0.0067	0.069	0.0007	0.0082	46.7
0.0045	0.0727	0.0007	0.003	46.5
0.0037	0.0052	0.0022	-0.006	46.3
0.0052	0.0067	0.0045	-0.0165	46.2
0.0015	-0.0203	0.0015	-0.0053	45.9
0.0052	-0.0015	-0.0008	0.0067	45.8
0.0067	0.015	-0.0008	0.006	45.6
0.0067	-0.0165	-0.003	0.0157	45.4
0.0052	-0.024	0	0.0007	45.2
0.0052	-0.024	0.0045	0.0022	45
0.0052	-0.0113	0.0037	-0.0068	44.8
0.0052	-0.015	0.0045	-0.0091	44.6
0.0052	0.003	0.0045	-0.003	44.4
0.003	0.024	0.0052	-0.0128	44.2
0.0052	0.0382	0.0105	-0.003	44.1
0.0067	0.0255	0.0127	-0.0098	43.8
0.0105	-0.0015	0.0105	-0.0075	43.6
0.009	-0.003	0.0082	-0.0053	43.4
0.0052	-0.0098	0	-0.0008	43.3
0.003	-0.0053	-0.006	-0.003	43.1
-0.0091	-0.012	-0.0091	-0.0068	42.9
-0.0068	-0.0165	-0.012	0.0007	42.8
-0.0053	-0.0143	-0.012	-0.0046	42.6
-0.0068	-0.0158	-0.012	0.003	42.4
0.0007	-0.0083	-0.012	-0.0015	42.3
-0.0015	0.0022	-0.0091	-0.0053	42.1
0.0052	0.0247	-0.0068	-0.0068	41.9
0.0082	0.0255	-0.0053	-0.0105	41.7
0.0045	-0.0075	-0.0046	-0.0083	41.6
0.0067	-0.0361	-0.003	-0.0083	41.4
0.003	-0.0458	0	0.0022	41.2
0.0082	-0.0181	0.0022	0.0045	41
0.009	0.0517	0.006	0.0165	40.9
0.0075	0.1102	0.0082	0.0232	40.7
0.0082	0.0885	0.0075	0.0172	40.5
0.0067	0.033	0.0037	0.0225	40.4
0.0082	0.024	0.0007	0.0045	40.2
0.009	-0.0368	0.0007	0.0007	40
0.0105	-0.0585	0.0015	0.009	39.8
0.0105	-0.0038	0.003	0.0067	39.6
0.0067	-0.0405	0.003	0.0052	39.5
0.0037	-0.0308	0.003	0.0007	39.3
-0.003	-0.003	0	-0.006	39.1
-0.0046	-0.0203	0.003	-0.012	39
-0.0091	-0.0015	0.0045	0.0007	38.8
-0.0091	-0.0135	0.0007	0.018	38.6
-0.0091	-0.0105	-0.0008	0.012	38.4
-0.012	-0.0068	0	0.0067	38.2
-0.0105	-0.0128	0.003	0.0007	38.1
-0.012	-0.0015	0.0015	-0.003	37.9
-0.0091	-0.0091	0.0007	-0.0038	37.7
-0.0053	0.0007	0.0007	-0.0091	37.5
-0.0053	-0.0008	0.0015	-0.006	37.3
-0.003	-0.0008	0.0007	-0.0091	37.2
-0.0008	0.0045	-0.0015	-0.0098	37
0.0052	0.0022	-0.0038	-0.0091	36.9
0.009	0.0052	-0.0046	-0.0091	36.7
0.009	-0.0008	-0.0046	-0.0023	36.4
0.0082	-0.0038	-0.0046	-0.0023	36.3
0.0112	-0.0083	-0.003	-0.0008	36.1
0.009	-0.0098	-0.0015	-0.0008	36
0.012	-0.012	0.0045	0.0015	35.8
0.0135	0.003	0.0082	0.0015	35.6
0.012	0.0202	0.006	0.0007	35.5
0.012	0.0045	0.0045	0.0015	35.3
0.009	0.0052	0.0015	0	35.1
0.0082	0.0037	-0.0038	0	35
0.0052	-0.0008	-0.0091	0.0007	34.8
0.0097	0.0067	-0.012	0.0015	34.6
0.0187	-0.0015	-0.0091	0.0007	34.4
0.0202	0.003	-0.0075	-0.0008	34.3
0.0217	0.0007	-0.0046	0.0007	34.1
0.015	0.0015	-0.0008	-0.0015	33.9
0.0045	-0.0008	0.0022	-0.0015	33.7
-0.0008	-0.0068	0.0045	-0.0008	33.6
-0.0075	-0.0046	0.0037	-0.0015	33.4
-0.0068	-0.0181	0.0045	-0.0015	33.3
-0.0068	-0.0353	0.0037	-0.003	33
-0.0046	-0.0428	0.0052	-0.0046	32.9
-0.003	-0.0218	0.0052	-0.0046	32.8
-0.003	-0.0023	0.0037	-0.0046	32.6
-0.0023	-0.0008	0.0015	-0.0038	32.4
-0.0008	0.024	0.003	-0.0015	32.2
0.003	0.072	0.0037	0.0045	32.1
-0.0008	0.0735	0.0037	0.0097	31.9
0.0015	0.03	0.0052	0.012	31.7
-0.0015	0.0382	0.0037	0.0127	31.6
-0.0023	0.0255	0.0015	0.0097	31.4
-0.0015	-0.0008	-0.0008	0.0067	31.2
-0.0091	-0.0008	-0.0023	0.0015	31.1
-0.0083	-0.0188	-0.003	0.0015	30.9
-0.0091	-0.0075	-0.0053	0.0007	30.7
-0.0091	-0.0091	-0.003	-0.003	30.6
-0.0075	-0.006	0.0022	-0.0008	30.4
-0.0068	-0.0015	0.0097	-0.003	30.2
-0.0068	-0.0038	0.012	-0.0015	30.1
-0.006	0.0007	0.0082	-0.0015	29.9
-0.0053	-0.0075	0.006	0	29.7
-0.0023	-0.0083	-0.0008	-0.0023	29.6
0	-0.0195	-0.0015	-0.0053	29.4
0.0045	-0.0233	0.0007	0.003	29.2
0.0112	-0.015	0.0015	0.0052	29.1
0.015	-0.0135	0.0075	0.0067	28.9
0.0127	-0.0413	0.009	0.003	28.8
0.0082	-0.057	0.006	-0.0008	28.6
0.003	-0.039	0.0007	-0.0008	28.4
-0.006	-0.0248	-0.0008	-0.0015	28.3
-0.0053	0.0142	-0.0023	0.0022	28.1
-0.0046	0.048	-0.0008	0.0045	27.9
-0.006	0.0915	0	0.0015	27.8
0.0007	0.0847	0.0007	-0.0038	27.6
0.0022	0.042	0.0015	-0.006	27.4
0.009	0.0315	-0.0008	-0.0068	27.2
0.015	-0.024	-0.0008	-0.012	27.1
0.0165	-0.0346	-0.0053	-0.0128	26.9
0.0187	-0.0465	-0.0068	-0.0135	26.7
0.0165	-0.0511	-0.0046	-0.0098	26.6
0.0112	-0.0158	-0.003	0.0075	26.4
0.0022	0.0082	-0.0015	0.0247	26.3
-0.0015	0.0352	0	0.0157	26.1
-0.0038	0.0232	0.0045	0.006	26
-0.003	0.0157	0.0075	0.003	25.8
-0.0053	0.0015	0.0082	-0.0038	25.6
-0.0083	0.0045	0.0082	0	25.5
-0.0105	0.006	0.0052	-0.0053	25.3
-0.0113	-0.0053	0.003	-0.0046	25.2
-0.0068	-0.0008	0.0022	-0.0015	25
0.0007	-0.0083	0.0007	-0.003	24.9
0.003	-0.003	0	0.0022	24.7
0.0045	-0.0105	-0.0015	-0.0008	24.6
0.0015	-0.0158	-0.0038	0.0015	24.4
-0.0008	-0.0113	-0.0053	-0.0008	24.3
0.0015	-0.0083	-0.0053	-0.0015	24.1
0	-0.0075	-0.0038	-0.0046	24
0.0022	-0.0128	-0.003	-0.0068	23.8
-0.0015	-0.012	-0.0015	-0.0038	23.7
-0.0083	-0.0158	-0.0015	-0.006	23.5
-0.0053	-0.0135	-0.0023	-0.0046	23.3
-0.0068	-0.0053	-0.0038	-0.0015	23.2
-0.0053	-0.0083	-0.003	0.0007	23.1
-0.0015	-0.0233	-0.0015	0	23
-0.0053	-0.0195	-0.0008	-0.0008	22.9
-0.0068	0.0127	0.0015	0.0022	22.7
-0.0046	0.0652	-0.0015	0.0045	22.6
-0.0075	0.0652	-0.0015	0.0022	22.5
-0.0015	0.021	-0.003	0.0007	22.4
0.0007	0.009	-0.003	0.0007	22.2
0.0015	-0.0046	-0.0015	-0.0015	22.1
0.0075	-0.0046	-0.0015	0	22
0.0127	-0.0038	-0.0008	0.0007	21.9
0.018	-0.0068	0.0007	-0.003	21.7
0.0142	0	0.0015	-0.003	21.6
0.009	-0.003	0.0045	-0.0015	21.5
0.0067	0.0045	0.0105	-0.0038	21.4
0.0075	0.0067	0.0127	-0.0023	21.2
0.0022	0.0052	0.0082	-0.003	21.1
0.0015	0.0007	0.003	-0.0023	21
0.0037	-0.0038	-0.0015	-0.0046	20.8
0	-0.0015	-0.006	-0.006	20.8
-0.0015	-0.0098	-0.0053	-0.0038	20.7
0.0007	-0.012	-0.0015	-0.0053	20.6
-0.0008	-0.012	-0.0008	-0.003	20.5
-0.0015	-0.0233	0	0	20.3
-0.006	-0.0278	0	0.0015	20.2
-0.0083	-0.0233	-0.003	0.0007	20.2
-0.0008	-0.015	-0.0023	0	20
0.0045	-0.0091	-0.0015	-0.0105	19.9
0.0105	-0.0046	0.0007	-0.027	19.8
0.0075	0.003	-0.0008	-0.0181	19.7
0.0067	0.0075	0	0.012	19.6
0.012	0.0172	0.0037	0.024	19.5
0.0142	0.039	0.0037	0.0195	19.4
0.0127	0.0315	0.0037	0.0105	19.3
0.012	0.006	0.0015	-0.0038	19.2
0.0105	0.006	0.0007	-0.0015	19.1
0.009	0.0067	-0.0008	0.0015	19
0.0082	0.0082	0	0.0075	18.9
-0.0053	-0.0068	0.0007	0.012	18.7
-0.0083	-0.0203	-0.0008	0.0045	18.7
-0.0083	-0.0053	0.0007	0.0052	18.6
-0.006	0.018	-0.0008	0.003	18.5
-0.0023	0.0135	-0.0015	-0.0015	18.4
-0.0038	-0.012	0.0007	-0.0038	18.4
0.0007	0.0022	0	-0.0053	18.3
-0.0008	-0.0015	0.003	-0.003	18.2
0.003	-0.0075	0.0067	-0.0008	18.1
-0.0008	-0.0008	0.006	0.0007	18
0.0015	-0.0083	0.0037	0.0015	18
0.0082	-0.0008	0.003	0.0052	17.9
0.0045	-0.0098	0.003	0.003	17.8
0.012	-0.0075	0.0007	-0.0008	17.7
0.0097	-0.0068	-0.0015	-0.0008	17.7
0.0105	-0.0105	-0.003	-0.0038	17.6
0.0157	-0.0091	-0.003	-0.0015	17.5
0.018	-0.0098	-0.0075	-0.0008	17.4
0.0217	0.0022	-0.0091	0.0015	17.3
0.0202	0.0097	-0.0068	0.0045	17.3
0.0202	0.012	-0.0008	0.003	17.1
0.0165	0.003	0.0045	0.0007	17.1
0.0127	0	0.0067	-0.0015	17
0.0015	-0.0008	0.0075	-0.003	17
-0.0098	-0.0023	0.0052	-0.0053	17
-0.012	0.009	0.0007	-0.0068	16.9
-0.0158	0.0202	-0.0015	-0.0068	16.8
-0.0173	0.0097	-0.0008	-0.0068	16.8
-0.0158	-0.0046	0.0045	-0.0053	16.7
-0.0083	0	0.0045	-0.003	16.6
-0.0038	0.0007	-0.0008	-0.0008	16.6
0	0	-0.0008	-0.0008	16.5
0.0052	0.0007	-0.003	0.0022	16.5
0.0045	-0.0008	-0.0023	0.003	16.4
0.0067	-0.0023	0.0007	0.0045	16.3
0.0037	-0.0105	0.0007	0.003	16.3
0.0015	-0.0181	0.0022	0.0015	16.2
0.003	-0.0181	0.0007	0.0022	16.2
-0.0008	-0.0105	0.0015	0.0007	16.1
0.0007	-0.012	0.0082	0.0015	16
-0.0008	-0.0181	0.009	0.0015	15.9
-0.003	-0.027	0.0075	0.0007	15.9
-0.0008	-0.027	0.0045	0.0015	15.9
0.0007	-0.0091	0.0045	0.0022	15.8
-0.0008	0.012	0.0045	0.003	15.8
0.0015	0.0442	0.0015	0.0045	15.7
0.0022	0.069	-0.0015	0.0052	15.7
-0.0015	0.0457	-0.0038	0.003	15.7
-0.0008	0.0112	-0.0015	0.0015	15.7
0	0.0015	-0.0008	0.0007	15.6
0.003	-0.0046	-0.0023	0.0007	15.6
0.0037	-0.0015	-0.0038	0.0007	15.5
0.0007	-0.0038	-0.0038	0.0007	15.5
0.0015	-0.003	-0.003	-0.0008	15.4
-0.003	-0.0015	-0.0046	0.0007	15.4
-0.006	-0.0053	-0.003	0.0015	15.3
0	-0.0015	-0.0015	0.0015	15.3
0.0045	-0.0053	0	0.0022	15.3
0.0037	-0.0046	0.0022	0.0015	15.3
0.0007	-0.0068	0.0052	0.003	15.2
-0.0008	-0.0091	0.0045	0.0007	15.1
-0.0008	-0.0083	0.0015	-0.0023	15.1
-0.0083	-0.012	-0.0008	-0.0053	15.1
-0.0068	-0.012	-0.0053	-0.0068	15.1
0.0007	-0.0068	-0.006	-0.0046	15.1
0.003	0.0015	-0.0075	-0.0038	15.1
0.009	0.0082	-0.003	-0.0008	15
0.0112	0.0187	0.0022	0.0007	15
0.0142	0.0225	0.003	0.0007	15
0.0157	0.009	0.003	-0.003	15
0.0142	0.0045	0.003	-0.003	14.9
0.0127	-0.0038	0.0052	-0.0046	14.9
0.0045	-0.0105	0.0045	-0.0046	14.9
-0.0015	-0.0091	0.0045	-0.0046	14.9
-0.0075	-0.0091	0.0045	-0.0046	14.9
-0.0091	-0.003	-0.0008	-0.0113	14.8
-0.0068	-0.0075	-0.0008	-0.0218	14.8
0.0015	-0.0083	-0.0008	-0.012	14.8
0.0045	-0.003	0	-0.0068	14.8
0.0015	-0.0015	0.0007	0	14.8
0.0037	0.0015	-0.0023	0.0045	14.7
-0.0008	0.0007	-0.0046	0	14.7
0.0015	0.0052	-0.0083	0.009	14.7
-0.0008	0.0052	-0.0083	0.0037	14.7
-0.0023	0.0045	-0.003	0.006	14.7
0.0045	0.0015	0.0007	0.0052	14.6
0.0015	-0.0008	0.0045	0.0007	14.6
-0.0008	-0.0023	0.009	0.003	14.6
0.0007	-0.0068	0.012	0.0007	14.6
0.0015	-0.0113	0.009	0.0022	14.6
0.0022	-0.0098	0.0045	0.0007	14.5
0.0015	-0.0105	-0.0015	0.0022	14.5
0.003	-0.0173	-0.0053	0.0022	14.5
0.0015	-0.0256	-0.0068	0	14.4
-0.0008	-0.027	-0.0113	-0.0023	14.4
-0.0046	-0.0278	-0.0098	-0.0008	14.4
-0.0068	-0.0135	-0.0083	0.0007	14.4
-0.006	0.027	-0.0105	0.0037	14.4
-0.0105	0.0592	-0.0091	0.0037	14.4
-0.0158	0.0517	-0.0053	0.0007	14.4
-0.0225	0.036	0	-0.0023	14.3
-0.0233	0.0052	0.0022	-0.006	14.3
-0.0181	-0.0218	0.0045	-0.003	14.3
-0.0113	-0.0181	0.0082	-0.0008	14.2
-0.0008	-0.0128	0.0052	0.0007	14.2
0.0022	0.0165	0.0015	0.0052	14.1
0.0052	0.033	0.0007	0.0045	14.1
0.009	0.0435	0.0015	0.0052	14.1
0.0127	0.0472	0.0052	0.0045	14
0.0142	0.0157	0.0067	0.0022	14
0.009	-0.0008	0.0045	0.0052	14
0.0082	-0.012	0.0007	0.003	13.9
0.0045	-0.0128	-0.0068	-0.0008	13.9
0.006	-0.0128	-0.0083	0.0015	13.9
0.009	-0.0195	-0.0053	0.0007	13.9
0.0067	-0.021	-0.0008	-0.0008	13.8
0.009	-0.0278	0.0015	-0.0023	13.8
0.0105	-0.0293	0.0007	-0.0038	13.8
0.009	-0.0233	-0.0015	-0.0015	13.7
0.009	-0.0158	-0.0046	-0.003	13.7
0.0045	-0.0128	-0.003	-0.006	13.6
0.0045	0.006	0.0007	-0.0068	13.6
0.0105	0.0292	-0.003	-0.0075	13.6
0.012	0.0277	-0.003	-0.003	13.5
0.0112	0.0172	0.0022	-0.0023	13.5
0.0082	0.0127	0.0052	-0.0008	13.4
0.0037	-0.0008	0.0045	0.0015	13.4
-0.0015	-0.0053	0	-0.0023	13.3
-0.006	-0.0046	0.0007	-0.0038	13.3
-0.0053	-0.0053	0.0015	-0.006	13.2
-0.003	0.0007	0.0045	-0.006	13.2
0	0.0015	0.0045	-0.0068	13.1
0.0082	0.0022	0.0015	-0.0068	13.1
0.009	-0.003	0.006	-0.006	13
0.0105	-0.0023	0.006	-0.0068	13
0.0082	-0.0023	0.006	-0.0068	12.9
0.0052	-0.0083	0.0045	-0.0068	12.9
0.0105	-0.006	0.0037	-0.003	12.8
0.0127	-0.0068	0.0022	-0.0023	12.8
0.0127	-0.006	-0.0008	-0.0023	12.7
0.015	-0.006	0.0007	-0.0008	12.6
0.0112	-0.0046	-0.0015	-0.0023	12.6
0.012	-0.0038	-0.0008	-0.0008	12.6
0.012	-0.0053	-0.0015	-0.0015	12.6
0.0075	-0.0046	-0.003	0.0015	12.6
0.0142	-0.0023	-0.0015	0.0052	12.5
0.018	-0.0015	-0.003	0.006	12.5
0.0165	0.0007	-0.0015	0.0052	12.4
0.012	0.0015	-0.0015	0.0015	12.4
0.003	0.003	0.0022	0.0015	12.4
-0.003	0.0022	0.0067	0.003	12.3
-0.0098	0.0052	0.0135	0.0015	12.3
-0.0128	0.0052	0.0202	0.0015	12.2
-0.012	0.003	0.0127	-0.0008	12.2
-0.0143	0.0007	0.0067	-0.0015	12.2
-0.0046	0	0.0037	-0.0023	12.1
0.003	-0.0008	-0.0008	-0.0038	12.1
0.0045	-0.003	-0.0023	-0.006	12.1
0.0187	-0.003	-0.0046	-0.0068	12.1
0.0165	-0.0038	-0.003	-0.0053	12
0.0105	-0.003	-0.0023	-0.0053	11.9
0.009	0.0015	-0.0068	-0.0015	11.9
0.0015	0.003	-0.0091	-0.0008	11.9
0.0007	0.0007	-0.0053	-0.0015	11.9
-0.0023	0.0015	-0.003	0.003	11.8
-0.003	0.0015	-0.0008	0.0052	11.8
0.0022	0.0007	0.0022	0.009	11.7
0.0067	0.0007	0.0015	0.009	11.7
0.0045	-0.0023	-0.0015	0.0075	11.7
-0.0023	0.0015	0.0007	0.0075	11.7
-0.0068	0.003	0.0052	0.0045	11.6
-0.0105	-0.0015	0.003	0.0045	11.6
-0.0091	0.0007	-0.0023	0.0022	11.6
-0.0091	0.0015	-0.0008	0.0037	11.5
-0.0128	0.0007	-0.0015	0.0045	11.5
-0.0181	0.0007	-0.0015	0.0075	11.5
-0.0195	0.0007	0.0015	0.0075	11.4
-0.0068	-0.0015	0.0045	0.0045	11.4
0.003	-0.0023	0.006	0.0052	11.3
0.0127	0.0007	0.0045	0.003	11.3
0.0172	-0.0008	0.0022	0.0037	11.2
0.0075	-0.003	-0.0046	0.003	11.2
0.0015	-0.0046	-0.0083	0.003	11.2
-0.0068	-0.0075	-0.0046	0.003	11.2
-0.0128	-0.0105	-0.003	0.0045	11.2
-0.015	-0.0128	-0.003	0.0067	11.1
-0.0203	-0.0113	0	0.0045	11.1
-0.0143	-0.015	0.0015	0.0022	11.1
-0.0091	-0.0135	0.0045	-0.0015	11
-0.0046	-0.0008	0.0045	0.0015	11
0.003	0.0127	0.003	0.0007	10.9
0.0015	0.0397	0.003	0	10.9
-0.0053	0.0427	0.0015	0.003	10.9
-0.0015	0.0232	-0.0015	-0.0008	10.8
0.003	0.0202	-0.0046	-0.0015	10.8
0.003	0.003	-0.003	-0.0023	10.8
0.0015	0.0015	-0.0015	-0.003	10.7
0.0015	0.0015	0	-0.003	10.7
0.003	-0.0053	0.0037	-0.0023	10.7
0.0052	0.003	0.0052	-0.0015	10.7
0.006	-0.0053	0.0045	-0.0008	10.6
-0.0008	-0.0083	0.0022	-0.0008	10.6
-0.0015	-0.0128	0.0007	-0.0015	10.5
-0.0038	-0.0098	0.0007	-0.0008	10.5
-0.0015	-0.0046	-0.0008	-0.0015	10.4
0.0015	-0.0053	0.003	-0.0015	10.4
0.0015	-0.0023	0.0075	-0.0046	10.3
0.0067	-0.0038	0.0045	-0.0053	10.3
0.0105	0.0007	0.0045	-0.0023	10.3
0.0157	0.0015	-0.0008	-0.0046	10.2
0.0217	0.0015	-0.0023	-0.0046	10.2
0.018	-0.0015	-0.0015	-0.003	10.2
0.009	-0.006	0.0007	-0.0015	10.1
0.0015	-0.0083	0.006	-0.0023	10.1
0.0015	-0.0128	0.0052	-0.003	10
0.009	-0.0128	-0.0008	-0.0008	10
0.012	-0.006	-0.0068	-0.0023	9.9
0.0112	-0.0046	-0.003	-0.006	9.9
0.0007	-0.015	0.0022	-0.0053	9.9
-0.0105	-0.0135	0.0067	-0.006	9.8
-0.0046	-0.006	0.0082	-0.0068	9.7
-0.0046	0.003	0.0045	-0.006	9.7
-0.0008	0.021	0.0022	-0.0023	9.7
0.0007	0.045	-0.0053	-0.0015	9.7
-0.0068	0.048	-0.0113	-0.0053	9.7
-0.0046	0.0142	-0.0091	-0.0046	9.6
-0.0068	0	-0.0046	-0.0008	9.6
-0.0053	-0.003	-0.0046	0.0015	9.6
-0.0008	-0.0105	-0.0046	0.003	9.5
0.0015	-0.0083	-0.0015	0.0015	9.5
0.0052	-0.0113	0.003	-0.0008	9.5
0.0067	-0.0083	0.0075	-0.0015	9.4
0.0082	-0.0083	0.0082	-0.0038	9.4
0.0187	-0.0068	0.0082	-0.0038	9.4
0.027	0	0.0045	-0.0015	9.4
0.0247	0.0045	0.0045	0.0007	9.4
0.027	0.0022	0.0022	0.0022	9.3
0.024	-0.0015	0.0015	0.0015	9.3
0.0157	-0.0008	0.0015	0.0007	9.3
0.0075	-0.0068	-0.0038	0.0007	9.3
-0.0046	-0.0098	0	0.0007	9.2
-0.0068	-0.012	0.0007	0	9.2
-0.0083	-0.0105	-0.0008	0.0007	9.2
-0.0068	-0.0091	-0.0015	-0.0008	9.1
-0.003	-0.0038	0.0007	0.0015	9.1
-0.0053	0.0045	0.0037	0.003	9.1
-0.0053	0.0067	0.0007	0.0045	9
-0.0083	0.0127	0.0037	0.0015	9
-0.0083	0.0105	0.0015	0.0007	9
-0.0008	0.003	0.0007	0.003	9
0.0045	0.0082	-0.003	0.0022	9
0.0142	0.0067	-0.0046	0.0015	8.9
0.0157	0.0037	-0.0008	0.0022	8.9
0.003	0	-0.0023	0.0037	8.9
-0.0068	-0.0046	-0.0008	0.0015	8.9
-0.0105	-0.003	0.0007	-0.0008	8.8
-0.0105	-0.0038	-0.0008	0.0015	8.8
-0.0053	0	0.0007	0.0022	8.8
-0.0038	-0.0015	0.0007	0.0007	8.7
0.003	-0.0023	-0.0008	0.0015	8.7
0.0067	0	-0.0008	0	8.6
0.0075	-0.0008	0.0007	-0.0008	8.6
0.0157	0.0015	0.0015	0	8.6
0.0127	0.0007	0	-0.0008	8.6
0.0105	-0.003	-0.0046	-0.0046	8.6
0.0112	-0.0046	-0.003	-0.0068	8.5
0.0075	-0.0015	-0.0015	-0.006	8.5
0.0082	0	-0.0038	-0.0038	8.5
0.0045	-0.0046	-0.0053	-0.0046	8.5
0.0007	-0.0038	-0.0023	-0.0008	8.5
0.0015	-0.0023	0	0.0015	8.5
0.0007	-0.0053	0.0007	0.0007	8.4
0.003	-0.0046	0.0007	0.0015	8.4
0.0015	-0.0015	0.0015	-0.0015	8.4
-0.0046	0.0015	0.0015	-0.0015	8.4
-0.0053	0.0045	-0.0023	-0.0015	8.3
-0.0083	0.0015	0	0	8.3
-0.003	-0.0008	0.0007	0.0037	8.3
-0.0015	-0.003	-0.0008	0.003	8.3
0.003	-0.0008	0.003	0.0015	8.3
0.0105	0.0007	0.0052	0.003	8.2
0.009	0.0007	0.0067	0.0037	8.2
0.0127	0.0052	0.0067	0.0022	8.2
0.0075	0.003	0.0052	-0.0008	8.1
-0.0046	-0.0015	0.0007	-0.003	8.1
-0.012	-0.0046	0	-0.003	8.1
-0.0143	-0.003	0.0015	-0.003	8.1
-0.0091	-0.0015	0.0015	-0.0091	8.1
-0.0053	-0.0015	0.0015	-0.0458	8.1
-0.0015	0.0007	0.0007	-0.075	8
0.0045	0.0007	0.0015	-0.0225	8
0.003	0.003	0	0.0367	8
0.0022	-0.0008	0	0.0375	7.9
0.0022	-0.0008	0.0045	0.0345	7.9
0.0015	0.0015	0.0052	0.0255	7.9
-0.0008	-0.0091	0	0.0187	7.9
-0.003	-0.0158	-0.0075	0.0007	7.8
-0.0015	-0.0195	-0.0143	-0.012	7.8
0	-0.0308	-0.012	0.0075	7.8
-0.0015	-0.027	-0.0075	0.0112	7.8
0	-0.0128	-0.0053	-0.0015	7.7
-0.0015	-0.0083	-0.0015	0.0105	7.7
-0.0038	0.0165	-0.003	0.0052	7.7
0.003	0.06	0.0015	0.006	7.7
0.0075	0.0817	0.0052	0.012	7.6
0.012	0.0585	0.006	0.0052	7.6
0.0165	0.0307	0.0052	0.0105	7.6
0.0142	0.0045	0.0045	0.0045	7.6
0.012	-0.0083	0.0097	0.0075	7.6
0.0127	-0.0105	0.0097	0.0015	7.6
0.021	-0.0143	0.0082	-0.0008	7.6
0.0127	-0.0113	0.0067	-0.0015	7.6
-0.0015	-0.0181	0.0022	-0.0083	7.5
-0.006	-0.0158	0.0007	-0.0075	7.5
-0.0181	-0.0105	-0.0023	-0.0105	7.5
-0.015	0.0067	0	-0.0046	7.5
-0.0135	0.0165	0.0007	-0.0038	7.5
0.0007	-0.0015	-0.0046	-0.0046	7.4
0.0225	-0.0068	-0.0091	-0.003	7.4
0.0142	-0.0083	-0.0128	-0.003	7.4
0.012	-0.012	-0.0046	-0.0015	7.3
0.0045	-0.006	0	-0.0008	7.3
-0.0023	-0.0068	0	-0.0008	7.3
-0.003	0	0.0022	0.0007	7.3
-0.0135	0.0007	0.0007	-0.0008	7.3
-0.0158	-0.0038	0.0007	-0.0008	7.3
-0.0143	0.0007	0.0022	0.0007	7.3
-0.0203	-0.0015	0.0015	-0.0008	7.3
-0.0218	-0.003	0	-0.0008	7.3
-0.0128	0.0007	-0.0015	-0.0015	7.3
-0.003	-0.0015	-0.0008	-0.0038	7.3
0.0045	-0.003	0.0015	-0.0015	7.3
0.0052	-0.003	-0.0015	-0.003	7.3
0.009	-0.0046	-0.003	-0.003	7.3
0.012	-0.0046	-0.0015	-0.0015	7.3
0.0112	0	-0.0023	0	7.3
0.0105	0.0015	0.0022	-0.0015	7.3
0.0052	-0.0008	0.0037	-0.0008	7.3
0.0067	0	0.0045	-0.0015	7.3
0.0082	-0.0015	0.003	-0.0046	7.3
0.0097	-0.0008	0.0037	0	7.3
0.0135	-0.0023	0.0067	-0.0023	7.3
0.0112	-0.0083	0.0045	-0.0015	7.3
0.009	-0.0083	0.0045	-0.0038	7.3
0.0045	-0.0068	0.003	-0.0053	7.3
0.0052	-0.0075	0.0015	-0.0015	7.3
0.0022	-0.0053	0.0022	-0.006	7.2
-0.003	-0.0015	0.0015	-0.006	7.2
-0.0008	-0.003	-0.0008	-0.0083	7.2
0	0.003	-0.0015	-0.0046	7.2
0.0067	0.0067	-0.0008	-0.0008	7.2
0.0112	0.0112	-0.0008	0.0007	7.2
0.0067	0.024	0.0045	0.0045	7.2
-0.0015	0.0202	0.0082	-0.0008	7.2
-0.0083	-0.0008	0.0045	-0.0023	7.2
-0.0068	-0.0083	0.0022	0	7.2
-0.0023	-0.0068	0.0022	0.0022	7.2
-0.0015	-0.0068	0.0022	0.0015	7.2
0	-0.006	0.0015	0.0022	7.1
0.0007	-0.006	0.0015	0.0022	7.1
-0.0008	-0.0046	-0.0008	-0.0015	7.1
0.0007	0.006	-0.0008	0.0022	7.1
0.0022	0.015	0.0045	0.003	7.1
0.003	0.006	0.0045	0.0045	7.1
0.0097	-0.0015	0.0015	0.0015	7.1
0.0127	-0.0083	-0.0023	-0.0008	7.1
0.0105	-0.0143	-0.006	0.0022	7.1
0.006	-0.0053	-0.0053	0.0045	7.1
0.0015	0.0127	-0.0053	0.0052	7
0.0015	0.0187	-0.006	0.003	7
-0.0008	0.0067	-0.0075	0.0007	7
-0.0015	0.0067	-0.0068	0	7
0.0007	0.0045	-0.0023	-0.0008	7
-0.0008	-0.0015	0.003	0	7
0.0022	0.0015	0.009	0	7
0.009	-0.0053	0.0082	-0.0015	7
0.012	-0.006	0.006	-0.003	7
0.009	-0.0053	0.0022	-0.0008	7
0.0052	-0.0015	0	-0.0008	6.9
0.0015	-0.0008	0.0007	-0.0008	6.9
-0.0053	-0.006	-0.0015	-0.0015	6.9
-0.0068	0	-0.0008	-0.0038	6.9
-0.0068	-0.003	-0.003	-0.003	6.9
-0.0075	-0.0015	-0.0023	0.0015	6.9
-0.012	0.0075	-0.0008	0.0007	6.9
-0.015	0.003	-0.0015	-0.0008	6.9
-0.0046	0.0007	-0.0023	0.0015	6.9
0.0052	-0.0015	-0.0008	0.0015	6.9
0.0142	-0.0008	0.0007	0.003	6.9
0.0232	0.0015	0.0015	0.003	6.9
0.0277	-0.0008	0.0045	0.0037	6.9
0.0217	0.0015	0.0015	-0.0008	6.9
0.009	0	0.0007	-0.0038	6.9
0.0007	-0.0008	-0.0008	-0.003	6.9
-0.0038	-0.003	-0.0068	-0.0015	6.9
0	-0.003	-0.0075	-0.0008	6.9
0	-0.0023	-0.0053	-0.003	6.9
-0.003	-0.0015	-0.003	-0.0008	6.9
-0.0091	-0.0046	-0.0008	0	6.9
-0.0143	-0.0068	-0.0023	-0.0008	6.9
-0.0105	-0.0098	-0.0015	0.0007	6.8
-0.0158	-0.0135	0.0007	0.0015	6.8
-0.0113	-0.003	0.003	-0.003	6.8
-0.0105	0.0045	0.0045	-0.003	6.8
-0.0105	0.0045	0.0045	-0.003	6.8
-0.0053	0.0105	0.006	-0.0008	6.8
-0.0046	0.009	0.0045	0.0007	6.8
0.0007	0	0.0015	-0.0008	6.8
0.0052	-0.0083	0.0022	0	6.8
0.0067	-0.012	0.0022	-0.0008	6.8
0.0067	-0.012	0.0015	0	6.8
0.0075	-0.0173	0.0015	-0.0023	6.8
0.0105	-0.0128	0.0007	-0.0046	6.8
0.0105	0.0015	0	-0.0015	6.8
0.0105	0.0187	0.0015	-0.003	6.8
0.012	0.0375	-0.0038	-0.0015	6.8
0.0052	0.0292	-0.0015	-0.0008	6.8
0.009	0.0135	0.003	-0.0008	6.8
0.0195	0.012	0.0067	0.0015	6.8
0.0142	0.0007	0.0082	-0.003	6.8
0.0172	-0.0046	0.003	-0.0046	6.7
0.009	-0.006	0.0007	-0.0053	6.7
0.003	-0.0143	-0.003	-0.0015	6.7
0.0007	-0.0098	-0.0053	0.0015	6.7
-0.0038	-0.0068	-0.003	0.0015	6.7
0.003	-0.0068	-0.003	0.0015	6.7
-0.0008	-0.0053	-0.0008	0.0007	6.7
0.0007	-0.0053	0.0015	0.0007	6.7
-0.003	-0.003	0.0007	0.0007	6.7
-0.0046	-0.0023	0.003	0.0045	6.7
-0.0023	-0.0008	0.0007	0.003	6.7
-0.0038	-0.0023	-0.0008	0.003	6.7
0.0045	-0.0015	0.0007	0.0037	6.7
0.003	0.0007	-0.0008	-0.0008	6.7
0.006	-0.0023	0.0007	-0.0008	6.7
0.0052	-0.0008	0.0037	-0.0008	6.7
0.003	-0.0015	0.0037	0.0007	6.7
0.0052	-0.0015	-0.0015	0.003	6.7
-0.0008	0.003	-0.0068	0.003	6.7
-0.0015	0.0037	-0.0068	0.0007	6.7
0.0067	0.0007	-0.0046	-0.0023	6.7
0.0067	0.0015	-0.0015	-0.0008	6.7
0.003	0.003	-0.0038	-0.0008	6.7
0.0067	0	-0.0053	0	6.7
0.0045	0	-0.0053	0.0022	6.7
-0.0023	-0.0008	-0.0038	0.0007	6.7
-0.0083	-0.0015	0.006	0.0037	6.7
-0.015	-0.0038	0.0112	0.003	6.7
-0.0158	-0.003	0.015	0.0007	6.7
-0.006	-0.0008	0.0157	0.0007	6.7
0.0015	-0.0008	0.0112	-0.003	6.7
0.0067	-0.0008	0.0067	-0.003	6.7
0.0142	0	0.0007	-0.003	6.7
0.0165	-0.0008	0	-0.0053	6.7
0.0142	-0.003	-0.0023	-0.006	6.7
0.0067	-0.0023	-0.0008	-0.003	6.7
0.0037	-0.0015	0	-0.0015	6.7
-0.0023	-0.0015	-0.003	-0.0008	6.7
-0.0053	-0.0015	-0.0015	0	6.7
-0.0075	-0.0038	-0.0068	-0.003	6.7
-0.0128	-0.0075	-0.0053	-0.003	6.7
-0.0053	-0.0091	-0.003	-0.003	6.7
-0.0015	-0.0083	-0.0015	-0.003	6.7
0.003	-0.0068	0.0007	-0.0015	6.7
0.0067	-0.0091	-0.0023	-0.0008	6.7
0.0052	-0.0075	-0.0023	0.0007	6.7
0.0052	0.0045	-0.0008	0.0015	6.7
0.0067	0.0232	0.0022	0.0022	6.7
0.0097	0.03	-0.0008	0.0015	6.7
0.0105	0.0232	-0.0023	0.0015	6.7
0.009	0.009	-0.0023	0.0007	6.6
0.0022	-0.0135	-0.0038	0.0007	6.6
-0.0068	-0.0165	-0.0015	0.0037	6.6
-0.0105	-0.0128	-0.0008	0.0015	6.6
-0.0053	-0.0098	0.0015	0.0015	6.6
0.006	0.0142	0.0045	0.003	6.6
0.0217	0.0427	0.0067	0.0045	6.6
0.03	0.0427	0.0082	0.0037	6.6
0.0217	0.0045	0.0037	-0.0023	6.5
0.0045	-0.0105	0.0022	-0.0023	6.5
-0.003	-0.006	-0.0008	-0.0008	6.5
-0.0023	0.0082	-0.0008	0.0015	6.5
-0.0091	0.0105	0.0022	0.0007	6.5
-0.0068	-0.0046	-0.0008	-0.0053	6.5
-0.0023	-0.0075	0.0007	-0.0053	6.5
-0.003	-0.0143	0.0015	-0.0075	6.5
-0.0053	-0.0083	-0.0015	-0.0068	6.5
-0.0068	-0.0098	-0.0008	-0.0053	6.5
-0.003	-0.0091	-0.0008	-0.0046	6.5
-0.0038	-0.0053	-0.0008	-0.0008	6.5
-0.003	-0.0053	-0.0008	0.0007	6.5
-0.0023	-0.0008	-0.0008	0.003	6.5
-0.0053	-0.0053	0.003	0.003	6.5
-0.0046	-0.0015	0.0022	0.0045	6.5
-0.0075	-0.0128	0.0015	0.0052	6.5
-0.0053	-0.033	0.0007	-0.0008	6.5
-0.0053	-0.045	-0.0015	-0.0015	6.5
-0.0068	-0.045	-0.0008	-0.0038	6.5
-0.0038	-0.0361	-0.0008	-0.0046	6.5
-0.003	-0.0256	0.003	-0.0046	6.5
0.0045	-0.0053	0.0045	-0.0046	6.5
0.006	0.018	0.0022	-0.0023	6.5
0.006	0.0532	0.003	0.0007	6.5
0.0067	0.0952	0.0037	0.006	6.5
0.0007	0.1005	0.0052	0.0075	6.5
0.0015	0.048	0.003	0.012	6.5
0.003	0.0112	0.0007	0.0105	6.5
0.0037	0.0015	0	0.0022	6.5
0.0112	-0.0075	0.0015	0.0045	6.5
0.0082	-0.0023	0.0015	0.0037	6.5
0.0045	-0.0091	0.0007	-0.0008	6.5
-0.0053	-0.0105	-0.0023	-0.0008	6.5
-0.0091	-0.0128	-0.0015	0	6.5
0.0015	-0.0143	0.0007	0	6.5
-0.0053	-0.0105	-0.0038	-0.0015	6.5
0.0015	-0.012	-0.003	-0.003	6.5
0.0015	-0.0053	-0.0023	-0.003	6.5
0.003	-0.0091	0	-0.006	6.5
0.0097	-0.0143	0.003	-0.0046	6.5
0.0022	-0.0218	0	-0.003	6.5
0.009	-0.027	0.0015	-0.0015	6.4
0.003	-0.0218	0	-0.0008	6.4
0.003	-0.0218	-0.0008	0	6.4
0.0037	-0.0181	0.0007	-0.0008	6.4
-0.003	-0.0128	-0.0015	-0.003	6.4
0.0007	-0.0098	-0.0015	-0.003	6.4
-0.0015	0.0015	-0.0015	-0.0068	6.4
0.003	0.0165	-0.0023	-0.0068	6.4
0.0045	0.0255	-0.0023	-0.0038	6.4
0.003	0.012	-0.0008	-0.0015	6.4
0.0075	-0.0075	-0.0008	0.0015	6.5
0.0052	-0.0083	-0.0015	0	6.5
0.0052	0.009	-0.0008	0.0007	6.5
0.0015	0.0367	0.0015	0.0015	6.5
0	0.0495	0.0015	-0.0015	6.5
0.003	0.0367	-0.0008	0.0007	6.5
0.0052	0.018	-0.003	0.0022	6.5
0.0142	0.0007	-0.0038	0.0037	6.5
0.0232	-0.0053	-0.0023	0.0075	6.5
0.0165	-0.0188	0.0015	0.0075	6.5
0.0165	-0.0293	0.0007	0.0007	6.5
0.0142	-0.0428	-0.0008	-0.0053	6.5
0.003	-0.06	0.0015	-0.0091	6.5
-0.006	-0.0555	0.0007	-0.0105	6.5
-0.0188	-0.0533	0.0022	-0.0083	6.5
-0.0203	-0.0413	0.003	-0.0083	6.5
-0.0113	-0.0128	0.003	-0.0015	6.5
-0.0068	0.0352	0.0022	0.0022	6.5
-0.0008	0.0757	0.0022	0.0082	6.5
0.0045	0.1162	0.0045	0.012	6.5
0.0037	0.1387	0.0045	0.0075	6.5
0.0082	0.0667	0.0045	0.0052	6.5
0.0052	0.0105	0.0045	0.0007	6.5
0.0052	-0.0053	0.0022	-0.0008	6.5
0.0052	-0.0263	-0.0015	-0.0023	6.5
0.0022	-0.0173	-0.0015	-0.0015	6.5
0.0082	-0.0203	0	0.0007	6.5
0.0067	-0.0173	0.0007	-0.003	6.5
0.006	-0.0188	0.0015	-0.0015	6.5
0.0045	-0.021	-0.0008	0.0022	6.5
0.003	-0.0128	-0.0008	-0.0015	6.5
0.003	-0.015	-0.0015	-0.003	6.5
-0.0015	-0.0083	-0.0038	-0.0008	6.5
0.0022	-0.0158	-0.003	-0.0015	6.5
0.0015	-0.0195	-0.0023	-0.003	6.6
0.0007	-0.0233	-0.0015	-0.003	6.6
0.006	-0.033	-0.0038	-0.003	6.6
0.0112	-0.039	-0.003	-0.003	6.6
0.0217	-0.0353	0	-0.0008	6.6
0.0187	-0.0105	0.0007	0.0037	6.7
0.0105	0.012	0	0.0067	6.7
0.0082	0.0217	-0.0015	0.0015	6.7
0.003	0.0067	0.0007	0.0015	6.7
-0.0038	0.0052	0.0052	0.0007	6.7
-0.0105	0.033	0.009	0.0015	6.7
-0.012	0.0495	0.0097	0.0037	6.7
-0.0165	0.0382	0.0082	0.0015	6.7
-0.0218	0.012	0.0075	0.0052	6.8
-0.0113	0.009	0.0045	0.0007	6.8
-0.0068	0.003	-0.0008	-0.0015	6.8
-0.0053	-0.003	-0.0023	-0.0015	6.8
0.0015	-0.0023	-0.0008	-0.0008	6.8
-0.0008	-0.0068	0.0007	0.003	6.9
0.0067	-0.0083	0.0007	0.0015	6.9
0.0067	-0.0105	0.0007	0.003	6.9
0.0045	-0.003	0	0.0007	6.9
0.0045	-0.0038	0.0015	0.0015	6.9
-0.0068	-0.0053	0.0007	0.0015	7
-0.0143	-0.0113	0.0007	0.0007	7
-0.012	-0.015	0	0.0007	7
-0.0083	-0.0135	-0.0008	-0.0008	7
0.0007	-0.027	-0.0008	0.0015	7
0.0082	-0.0323	-0.0023	-0.003	7.1
0.009	-0.027	-0.003	-0.006	7.1
0.0157	-0.0128	-0.0015	-0.0053	7.1
0.0142	0.0157	-0.0008	-0.0083	7.1
0.0195	0.0165	-0.0015	-0.0091	7.1
0.012	-0.0015	-0.0008	-0.0083	7.2
0.003	0.0277	0.0007	-0.0046	7.2
0.0022	0.0337	0.0007	-0.003	7.2
-0.006	-0.0091	0.0015	-0.0015	7.2
0.0015	-0.0158	0.0022	0	7.2
-0.0015	-0.0068	0.0007	0.0022	7.2
-0.0015	0.0412	0.0007	0.0067	7.2
0.0022	0.0645	0.0007	0.0067	7.3
-0.0023	0.0352	0.0007	0.0067	7.3
0.0007	0.015	0.0015	0.0052	7.3
-0.0046	-0.0128	0.0022	0.003	7.3
-0.0008	-0.0113	-0.0008	0.0007	7.3
-0.0008	-0.0068	0.0007	-0.003	7.4
-0.0015	-0.0046	0.0015	-0.0046	7.4
0.0045	0	-0.0015	-0.012	7.4
0.0022	-0.0068	-0.0008	-0.0158	7.4
0.0022	-0.0053	-0.0015	-0.012	7.4
0.0015	-0.0143	-0.0046	-0.0053	7.5
0.0015	-0.0225	-0.0038	-0.0015	7.5
0.0052	-0.03	-0.0008	-0.0091	7.5
0.0045	-0.03	0	-0.0135	7.5
0.0082	-0.0248	0	-0.0068	7.5
0.0082	-0.0218	-0.0008	0.003	7.6
0.0112	-0.0165	0	0.0105	7.6
0.0135	-0.0038	0.0015	0.0127	7.6
0.0067	0.0127	0.0007	0.0142	7.6
0.0067	0.024	-0.0038	0.018	7.6
0.0015	0.0142	-0.003	0.0127	7.6
-0.0015	-0.0068	-0.0023	-0.0053	7.6
-0.0046	-0.0053	-0.0015	-0.0135	7.7
-0.0083	-0.003	0.0015	0.0007	7.7
0	0.003	0.003	0.0052	7.7
-0.0008	0.0165	0.003	-0.0008	7.7
-0.0008	0.042	0.0022	-0.0015	7.8
0.003	0.0547	0.0015	0.0007	7.8
-0.0008	0.0255	0.003	0.0037	7.8
0.0045	0.009	0.0045	0.003	7.8
0.003	-0.0015	0.0015	-0.0015	7.8
0.0007	-0.0143	0.0007	-0.0075	7.9
0.0052	-0.0053	0.003	-0.0128	7.9
0.0082	-0.006	0.003	-0.0046	7.9
0.0165	-0.0053	0.0022	-0.0046	7.9
0.0165	-0.0046	-0.0015	-0.0068	8
0.0157	-0.0105	-0.0046	-0.0068	8
0.015	-0.0225	-0.0008	-0.0068	8
0.0075	-0.0488	0.0007	-0.0046	8
0.0007	-0.0668	-0.0008	-0.0068	8.1
-0.0098	-0.0758	-0.0015	-0.0053	8.1
-0.021	-0.0803	-0.0023	-0.006	8.1
-0.0143	-0.0706	-0.0008	-0.003	8.1
-0.0068	-0.039	0.0015	0.0015	8.1
-0.0053	0.0052	0.003	0.0052	8.2
0.0067	0.0742	0.0067	0.0097	8.2
0.0097	0.15	0.0045	0.0082	8.2
0.0067	0.1245	0.0015	0.0067	8.3
0.0075	0.0697	0.0022	0.003	8.3
0.0015	0.0667	-0.0015	0.0015	8.3
0.0007	0.0517	-0.0015	0.0007	8.3
0.0045	0.0442	-0.0008	0.0015	8.4
0.0015	0.0315	0.0007	0.0007	8.4
-0.0008	-0.0015	0.003	-0.0015	8.4
0.0022	-0.0195	-0.0008	-0.0008	8.5
0.0037	-0.0278	-0.0015	0	8.5
0.006	-0.0181	0.0007	0.0015	8.5
0.0045	-0.0165	-0.0015	-0.0015	8.5
0.003	-0.0218	-0.003	-0.0008	8.5
0.0022	-0.0203	-0.0008	-0.0015	8.6
-0.0015	-0.0338	0	-0.003	8.6
-0.003	-0.0518	0.0007	-0.0083	8.7
-0.0105	-0.063	-0.0008	-0.012	8.7
-0.0113	-0.0638	-0.003	-0.0128	8.7
-0.0068	-0.0713	-0.0015	-0.015	8.8
-0.0046	-0.0691	0.0015	-0.0091	8.8
0.0007	-0.0511	0.003	-0.0105	8.9
0.0037	-0.0135	0.0015	-0.003	8.9
0.0082	0.0517	0.0015	0.0037	8.9
0.0067	0.0502	0	0.006	9
0.0067	-0.0098	0.0015	0.0165	9
0.0127	0.0255	0.0052	0.0202	9
0.012	0.108	0.0052	0.0157	9
0.0105	0.1162	0.0045	0.0142	9.1
0.0082	0.0652	0.0052	0.0135	9.1
0.0015	0.024	0.0037	0.009	9.1
0.0015	0.0225	0.0015	0.0052	9.2
0.003	0.0142	0.0015	0.0007	9.2
0.0015	-0.0068	0.0007	-0.0008	9.3
0.0007	-0.0091	0.0015	-0.0008	9.3
-0.0015	-0.015	-0.0015	-0.003	9.4
-0.0038	-0.012	-0.0046	-0.0008	9.4
-0.0053	-0.0113	-0.003	-0.0023	9.4
-0.0046	-0.015	-0.0015	-0.0023	9.5
-0.0015	-0.0105	-0.0015	-0.0015	9.5
-0.0038	-0.0158	-0.0015	-0.0046	9.6
-0.0023	-0.0143	-0.003	-0.0046	9.6
-0.0015	-0.0203	-0.0023	-0.0038	9.7
-0.003	-0.0256	-0.0008	-0.003	9.7
-0.0008	-0.027	-0.0023	-0.0015	9.8
-0.003	-0.0278	-0.0008	-0.003	9.8
-0.0023	-0.0203	-0.0008	-0.0046	9.9
-0.0023	-0.0188	0.0007	-0.0046	9.9
-0.0008	-0.0091	0.0007	-0.0023	9.9
0.0045	0.0052	0.0015	-0.0023	10
0.003	0.0105	0.0037	-0.0008	10
0.003	0.0067	0.0015	-0.0015	10.1
0.0007	0.027	-0.0008	0.0007	10.1
0.0015	0.0292	-0.0015	0.003	10.2
0.0067	-0.0083	-0.0015	0.0007	10.2
0.0037	-0.0128	-0.003	-0.0008	10.3
0.0067	-0.0188	-0.0015	-0.0015	10.3
0.0052	-0.0143	-0.003	-0.0008	10.4
0.0007	0.0015	-0.003	0.0007	10.4
0.0022	0.0022	-0.0008	0.0007	10.5
0.0022	0.024	0.0015	0.0022	10.5
0.003	0.0277	0.0015	-0.0008	10.6
0.0015	0.0105	0	-0.003	10.6
0.0015	0.0015	0.003	-0.0015	10.7
0.0045	-0.0038	0.003	0.003	10.7
0.003	-0.0068	0.0015	0.0082	10.7
0.003	0.0022	0.0007	0.0105	10.8
0.0052	0.003	0	0.0067	10.9
0.0045	-0.0046	0.0007	0.0052	10.9
0.003	-0.0053	-0.0023	0.0007	11
0.003	-0.0083	-0.0008	0.0022	11
0.0045	-0.0105	-0.0008	0.0007	11.1
0.0045	-0.0158	-0.0015	0.0007	11.1
0.0015	-0.0195	0.0015	0.003	11.2
0	-0.0203	0	-0.0023	11.2
0.0022	-0.0165	-0.0023	-0.003	11.3
-0.0008	-0.0113	-0.0008	-0.0046	11.4
0.003	-0.015	0.0015	-0.0046	11.4
0.0022	-0.0105	0.0037	-0.0023	11.5
0.0015	0	0.0022	0.0007	11.6
0.009	-0.0083	0.0015	0.0045	11.7
0.0082	-0.0015	0.006	0.003	11.7
0.009	0.039	0.0067	0.0015	11.7
0.006	0.0675	0.0067	0.0015	11.8
0.0007	0.0457	0.0015	-0.003	11.9
-0.0008	0.024	-0.0008	-0.0008	12
-0.003	0.0187	-0.0008	0.0007	12
0.0007	0.0052	-0.0008	0.0015	12.1
0.0015	-0.0015	0.0007	0.0007	12.1
-0.0008	-0.0135	-0.0008	-0.0015	12.2
0.003	-0.0105	0.0015	-0.0015	12.3
0.0052	-0.0068	0.0007	-0.0046	12.3
0.0052	-0.0068	-0.0008	-0.0038	12.4
0.0052	-0.0053	0.0007	-0.0068	12.5
0.0007	-0.0158	-0.0008	-0.0083	12.6
0.0007	-0.012	0.0015	-0.0053	12.6
0.0037	-0.015	0.0015	-0.003	12.7
0	-0.0158	0.0022	0.0007	12.8
0.0045	-0.0143	0.0015	0.0007	12.9
0.0015	-0.0083	0.0015	0.0022	12.9
-0.0008	0.0127	0.003	0.0007	13
-0.0008	0.0277	0.0015	-0.0008	13.1
-0.0008	0.0157	0.0022	0.009	13.1
0.0045	-0.0023	0.0007	0.0082	13.2
-0.0008	0	0.0007	-0.006	13.3
-0.0023	-0.0053	0.0007	0.009	13.4
0.0015	0.0022	0.0015	0.0105	13.5
0.0007	0.0045	0.0015	0.0067	13.5
0.0007	-0.0023	0.0022	0.0067	13.6
-0.0023	-0.0098	0.0007	-0.0015	13.7
-0.0023	-0.0195	-0.0023	0.003	13.7
0.0037	-0.0203	-0.0015	-0.003	13.8
0.0015	-0.027	-0.0015	-0.0008	13.9
-0.0008	-0.0256	-0.0008	-0.0008	13.9
0.0007	-0.0248	0.0015	-0.003	14
-0.0015	-0.0233	-0.0008	-0.003	14.1
0.0007	0.0007	0.0007	-0.0008	14.2
0.0015	0.018	-0.0008	0.0007	14.3
0.003	0.015	-0.0015	-0.0008	14.3
0.003	0.0217	-0.0008	0.0007	14.4
-0.003	0.0427	-0.0015	-0.0015	14.4
-0.003	0.03	-0.0008	0.0007	14.5
-0.0046	0.0307	-0.0015	-0.0015	14.6
-0.0038	0.06	-0.0008	-0.0015	14.7
-0.0015	0.0255	0.0007	-0.0053	14.8
-0.0046	-0.012	0.0007	-0.006	14.8
-0.0023	-0.0188	0	-0.003	14.9
-0.0008	-0.021	0.0007	-0.003	15
-0.0053	-0.0015	0.0015	-0.0023	15
-0.003	-0.003	0.003	-0.0068	15.1
-0.003	-0.0075	0.0007	-0.0015	15.2
-0.003	0.009	-0.0008	0.003	15.3
-0.0015	0.0135	-0.0015	0.003	15.3
-0.0023	0.0097	-0.0023	0.0052	15.4
0.003	-0.0075	-0.0015	0.003	15.5
0.0015	-0.0046	-0.0008	0.0007	15.6
0.0015	0.0097	0.0007	0.003	15.7
0.0015	0.0075	0	0.0015	15.7
0.0007	0.0082	-0.0023	0.0015	15.8
-0.0008	-0.0068	-0.0023	0.0052	15.9
0.0007	-0.0113	-0.0023	0.0045	16
-0.0023	-0.0248	-0.0015	0	16.1
-0.0038	-0.039	-0.0008	-0.0015	16.2
-0.0038	-0.039	-0.0008	-0.0015	16.2
-0.003	-0.0503	0.0007	-0.0008	16.3
0.003	-0.042	0.0022	0	16.4
0.0015	-0.0188	0.003	-0.0015	16.5
0.0015	0.0255	0.003	-0.0015	16.6
0.003	0.0442	0.003	-0.0008	16.6
0.003	0.0397	0.0045	0.0015	16.7
0.0067	0.0585	0.0045	0	16.8
0.0045	0.03	0.003	-0.0023	16.9
0.0075	0	0.003	-0.003	17
0.0075	-0.0008	0.0007	-0.0046	17
0.0037	-0.0135	-0.0008	-0.0046	17.1
0.0052	-0.0015	-0.0008	-0.0046	17.2
0.0045	-0.0015	-0.0038	-0.0053	17.3
0.0007	-0.0008	-0.0023	-0.0046	17.3
0.0007	0.0015	-0.0015	-0.0015	17.4
0.0015	-0.0105	-0.0008	-0.0008	17.5
0.0007	-0.0181	-0.0008	-0.0015	17.5
0.0045	-0.0285	-0.0008	-0.0015	17.6
0.003	-0.03	0	-0.0008	17.7
0.006	-0.0375	0.0015	0	17.8
0.0082	-0.0368	0.003	-0.0015	17.9
0.0052	-0.0375	0.0015	-0.006	18
0.0067	-0.0218	0.0007	-0.0008	18
0.0022	0.0082	-0.0008	0.0015	18.1
0.003	0.0052	-0.0008	0.0037	18.2
0.0052	0.0067	-0.0008	0.0052	18.3
0.003	0.027	0.0007	0.0022	18.3
0.006	0.0285	0.0007	0.0052	18.4
0.0045	0.0427	0.0007	0.0045	18.5
0.0007	0.0772	0.0007	0.0075	18.6
0.0022	0.057	-0.0015	0.0052	18.6
0.003	0.018	0.0015	0.0007	18.7
0.0045	0.0037	0.003	-0.0008	18.8
0.003	-0.0083	0.0007	-0.0038	18.9
0.0007	-0.0068	0	-0.003	19
0.0045	-0.0083	0.0007	-0.0068	19
0.003	-0.0091	-0.0008	-0.0038	19.1
0.0097	-0.0083	0	-0.0046	19.2
0.0105	-0.0091	0.0007	-0.0053	19.3
0.009	-0.0023	0.0022	-0.0038	19.4
0.0075	-0.0046	0.0015	-0.0075	19.4
0.0015	-0.0023	0.0007	-0.0053	19.5
0.006	0.0007	0.0015	-0.006	19.6
0.0045	0.0045	0.0015	-0.0046	19.7
0.006	0.0015	0.003	0.0007	19.8
0.0052	-0.0195	0.0015	0	19.8
0.003	-0.0368	0.0007	0.0045	19.9
0.003	-0.0383	0.0007	0.0045	20
0.0015	-0.0308	0.003	0.0112	20.1
0.0075	-0.0105	0.003	0.0157	20.2
0.0052	0.0007	0.0007	0.0045	20.2
0.0082	0.0022	0.0022	-0.006	20.3
0.0075	0.0105	0.003	-0.0023	20.4
0.0037	-0.0008	0.003	0	20.5
0.0105	0	0.0022	-0.0091	20.6
0.0097	0.0202	-0.0008	-0.0046	20.6
0.0112	0.03	-0.003	0	20.7
0.009	0.027	-0.006	-0.0105	20.8
0.003	-0.0135	-0.0083	-0.0158	20.8
0.0037	-0.0346	-0.0083	-0.0143	20.9
-0.0008	-0.0195	-0.006	-0.0105	21
0.0007	-0.0083	-0.0046	0.0007	21.1
0.0037	0.0232	0	0.0112	21.1
-0.0015	0.0277	0.0037	0.0127	21.2
-0.0038	0.0277	0.0022	0.0105	21.3
-0.003	0.0577	0.003	0.006	21.4
-0.0015	0.036	0.0015	0.0007	21.4
-0.0008	0.0067	-0.0008	0.0022	21.5
0.0007	0.0037	0.0007	0.012	21.6
0.003	-0.0083	0.0022	0.0105	21.6
0.003	-0.0046	0.003	0.0127	21.7
0.0022	-0.0091	0.0015	0.0157	21.8
-0.0008	-0.0143	0.0022	0.0157	21.9
-0.0015	-0.0173	0.0037	0.0127	22
-0.0015	-0.0203	0.0082	-0.0015	22
0.0022	-0.0098	0.009	-0.0008	22.1
-0.0008	-0.0098	0.006	0	22.2
-0.003	-0.0181	0.0045	-0.0023	22.3
-0.0038	-0.0338	0.0015	-0.0038	22.3
-0.0046	-0.039	0.0022	-0.0105	22.4
0.003	-0.0195	-0.0008	-0.0105	22.5
0.0015	-0.006	-0.0046	-0.0143	22.5
0.003	-0.0256	-0.0091	-0.0218	22.6
0.0007	-0.0338	-0.0113	-0.0188	22.7
-0.0046	-0.0181	-0.0068	-0.0158	22.8
0	-0.0008	-0.003	-0.012	22.9
-0.0008	0.0307	-0.0008	-0.021	22.9
0.0007	0.0345	-0.003	-0.0308	23
0.0022	0.0285	-0.006	-0.0323	23.1
-0.0008	0.0322	-0.0068	-0.0293	23.2
0.003	0.0495	-0.006	-0.0218	23.3
0.0022	0.0825	-0.0038	-0.0105	23.4
0.0045	0.0675	-0.0015	0.009	23.5
0.0067	0.0352	-0.0008	0.042	23.6
0.0037	0.0112	0.0007	0.0757	23.7
0.003	-0.0195	0.003	0.075	23.8
0	-0.0405	0.0082	0.0495	23.8
-0.003	-0.0465	0.0097	0.0315	24
-0.0008	-0.0308	0.009	0.0217	24.1
0.0015	-0.0218	0.012	0.0052	24.2
0.0075	-0.027	0.012	-0.0083	24.3
0.0075	-0.0353	0.009	-0.0128	24.3
0.0045	-0.048	0.0052	-0.0181	24.4
0.0037	-0.0503	0.0007	-0.0128	24.5
-0.0008	-0.0383	0.0007	-0.0105	24.7
-0.0015	-0.0263	-0.0038	-0.0135	24.7
-0.0023	-0.0113	-0.0053	-0.0143	24.8
-0.0038	0.0195	-0.006	-0.0195	24.9
-0.0008	0.057	-0.0053	-0.027	25
-0.0015	0.069	-0.003	-0.039	25.1
-0.003	0.0457	-0.0053	-0.0458	25.2
0.0007	0.0285	-0.0068	-0.0495	25.3
-0.0023	0.0277	-0.0046	-0.045	25.4
-0.0023	0.018	-0.003	-0.0203	25.5
-0.0015	0.0105	-0.0038	0.009	25.6
-0.0008	-0.0068	0.0007	0.0435	25.7
0.0015	-0.0278	0.003	0.0645	25.8
-0.003	-0.0256	0.0007	0.0622	25.9
-0.0023	-0.0315	0.0015	0.0442	26
-0.0023	-0.0233	0.0007	0.0315	26.1
-0.006	-0.0218	-0.0008	0.018	26.2
-0.003	-0.03	0	0.0007	26.3
-0.0015	-0.0128	0.0037	0.0007	26.4
0.0015	0.0015	0.003	0.009	26.5
0.0007	0.012	0.0015	0.0127	26.6
-0.003	0.0037	0.0007	0.0052	26.7
-0.0015	-0.0083	0.0015	-0.0015	26.8
-0.0008	-0.0091	0.0075	-0.0091	26.9
-0.0015	-0.003	0.0082	-0.0128	27
0.0007	0.006	0.009	-0.0083	27.1
