File Name: 5Nsen.log
Channel 1: 'RF', 13480 values, engineering units: mV, no filters.
Channel 2: 'BF', 13480 values, engineering units: mV, no filters.
Channel 3: 'VM', 13480 values, engineering units: mV, no filters.
Channel 4: 'ST', 13480 values, engineering units: mV, no filters.
Channel 5: 'FX', 674 values, engineering units: deg, no filters, extrapolated from 50 to 1000 samples per second.

0.0007	-0.0015	-0.0008	0.003	64.1
0.0075	-0.0015	-0.0023	0	64.1
0.003	-0.0015	-0.0008	0	64.1
0.003	-0.003	0	0.0015	64.1
-0.0023	-0.003	0.0015	0	64.1
0.0007	-0.0015	0	-0.0008	64.1
-0.003	0.0015	-0.0008	-0.0008	64.1
-0.0046	0.0015	0.0007	-0.0008	64.1
-0.0023	-0.0015	-0.0015	-0.003	64.1
-0.003	-0.0008	-0.0015	-0.0023	64.1
0.0052	-0.0015	-0.0008	-0.0008	64.1
0.003	0.0007	-0.0008	-0.0008	64.1
0.0045	-0.0015	0.0015	-0.0008	64.1
0.0052	-0.0023	0.003	-0.0023	64.1
0.0045	-0.0008	0.0015	-0.0015	64.1
0.006	0.0007	0	-0.0046	64.2
0.0015	0.0015	0.003	-0.0038	64.2
0.0037	0.0037	0.0022	-0.0038	64.2
0.0045	0.003	-0.0008	-0.0038	64.2
0.0022	0.0022	-0.0023	-0.003	64.2
0.0045	0.0007	0.0007	0.0007	64.2
0.0007	-0.0038	0.0007	0.0007	64.2
-0.0008	-0.003	0	0.0015	64.2
0	-0.0015	0.0007	0.0045	64.2
-0.0053	-0.0015	-0.0008	0.003	64.2
-0.003	-0.003	0.0007	0.003	64.2
-0.0023	-0.003	0.003	0.0037	64.2
-0.0038	-0.0008	0.0075	0.0015	64.2
0.0015	-0.0008	0.0075	0.0007	64.2
0.0007	0.0015	0.006	0.0007	64.2
0.0045	0.0015	0.0045	0.003	64.2
0.0045	0.0015	-0.0015	0.003	64.2
0.0045	0.0022	-0.0053	0.0022	64.2
0.0082	0.0007	-0.0053	0.0007	64.2
0.0052	0.0022	-0.0053	-0.0015	64.2
0.0067	0.0015	-0.0068	-0.0008	64.2
0.0037	0	-0.006	0.0007	64.2
0.003	0	-0.0046	0.0007	64.2
0.0037	-0.0023	-0.003	-0.0008	64.2
-0.0023	-0.0038	-0.0015	-0.0053	64.2
0.0007	-0.0015	-0.0008	-0.003	64.2
0	0.0007	-0.0008	-0.0015	64.2
0.0007	0	0.0007	-0.0053	64.2
0.0075	0.0007	0.0022	-0.0046	64.2
0.0052	0.0015	0.0015	-0.0053	64.2
0.0052	0.0015	0	-0.0046	64.2
0.0052	0.0015	0.0015	-0.0038	64.2
0.006	0.0015	0.003	-0.0038	64.2
0.0082	-0.0008	0.0037	-0.0015	64.2
0.0075	-0.0008	0.006	-0.0008	64.2
0.0082	-0.003	0.003	0.0007	64.2
0.0045	-0.003	0.003	-0.0008	64.2
0.0015	-0.0008	0.0007	0.0022	64.2
-0.0015	-0.0008	-0.0015	0.0015	64.2
-0.003	0.0007	-0.0008	0.003	64.2
0	0	-0.0015	0.0052	64.2
-0.0053	0.0007	-0.0008	0.003	64.2
-0.0053	0.0007	0	0.0037	64.2
-0.0038	-0.0015	-0.0008	0.0022	64.2
-0.0046	-0.003	0.0015	0.0015	64.2
0.0007	-0.0023	-0.0008	-0.0015	64.2
-0.0008	-0.0008	-0.0015	-0.003	64.2
0.0015	0.0015	-0.0015	-0.0008	64.2
0.0037	0.0022	-0.003	0.0007	64.2
0.0037	0	-0.0008	0.0007	64.2
0.0075	0.0015	-0.003	-0.0015	64.2
0.006	0	-0.0008	-0.0015	64.2
0.0052	-0.0008	0	-0.0008	64.2
0.006	-0.0008	0.0015	-0.0015	64.2
0.0007	-0.003	0.003	-0.0023	64.2
0.0022	-0.0008	-0.0008	-0.0008	64.2
0.0007	0	0	0	64.2
-0.0008	-0.0008	-0.0023	-0.0023	64.2
0.0007	-0.0008	-0.0023	-0.0008	64.2
-0.0053	0.0007	0.0015	0.0007	64.2
-0.0023	0.0007	0.0007	-0.0008	64.2
-0.0015	-0.0008	0.0015	-0.0015	64.2
0.0015	-0.0015	0.0007	0.0007	64.2
0.0045	-0.0046	0.0007	0.0022	64.2
0.0045	-0.0046	0.0007	0.0007	64.2
0.0067	-0.003	-0.0008	0.003	64.2
0.0007	-0.0023	0.0015	0.003	64.2
0.003	0	0.0015	0.0015	64.2
0.0015	-0.0008	0.003	0.0015	64.2
0.003	0.0007	0.0015	0.0007	64.2
0.0052	0.0022	0.006	0.0007	64.2
0	0.003	0.0052	-0.0015	64.2
0.003	0.0037	0.0037	-0.0015	64.2
-0.0046	0.003	0.0045	0	64.2
-0.0015	0.0015	0.0015	0.0007	64.2
-0.0038	-0.0008	0.0022	0.0037	64.2
-0.0068	0.0007	0.0015	0.0022	64.2
-0.0008	0.0007	0.0015	0.0022	64.2
-0.0053	0	0.0007	0.003	64.2
0.0007	0.0007	-0.0015	-0.0023	64.2
-0.0015	-0.0008	0	-0.0046	64.2
-0.0008	-0.0015	0.0007	-0.0015	64.2
0.0067	-0.0008	0.0007	-0.0008	64.2
0.003	0.0015	-0.0008	0	64.2
0.0105	0.0022	0.0007	-0.0023	64.2
0.009	0.0015	0.003	-0.0008	64.2
0.009	0.0015	0.0015	0.0022	64.2
0.012	-0.0008	0	-0.0008	64.2
0.0052	-0.0015	-0.0008	-0.0008	64.2
0.0082	-0.0008	0.0007	-0.0046	64.2
0.006	0	0	-0.006	64.2
0.0015	-0.0008	-0.0015	-0.0046	64.2
0.0015	-0.0008	-0.003	-0.0038	64.2
-0.003	0.0015	-0.003	-0.0015	64.2
-0.003	0.0007	-0.0008	-0.0008	64.2
-0.003	0	0.0007	0.0007	64.2
-0.0053	-0.0008	0.0007	0.0045	64.2
-0.0023	0	0.0007	0.003	64.2
-0.003	0	0	0.0045	64.2
-0.0023	-0.0008	-0.0008	0.0037	64.2
0	-0.0008	-0.0008	0.0015	64.2
-0.0023	0	-0.003	0.0015	64.2
0.0037	0	-0.0046	-0.0008	64.2
0.0045	0.0007	-0.0015	0.0007	64.2
0.0045	0.0015	-0.0015	0.0007	64.2
0.0037	-0.0008	0	0.0022	64.2
0.0022	-0.0008	0.003	0.0037	64.2
0.0052	-0.0008	0.0015	0.0007	64.2
-0.0015	-0.003	0.0015	0.0007	64.2
-0.0008	-0.003	-0.0015	0.0007	64.2
0.0015	-0.0008	-0.0008	-0.0008	64.2
-0.0008	0	0.0007	-0.0015	64.2
0.0022	-0.0015	0.0015	-0.0015	64.2
0.003	-0.0015	0.0007	-0.0008	64.2
0.0045	-0.0023	0.0007	-0.0008	64.2
0.0082	-0.0015	0.0007	0	64.3
0.0075	-0.0023	0	-0.0015	64.3
0.0067	0	0.0007	-0.0015	64.3
0.0082	0	-0.0008	0.0007	64.3
0.0082	0	0	-0.0015	64.3
0.009	-0.0015	0.0022	-0.0015	64.3
0.0097	-0.0015	-0.0008	-0.0046	64.3
0.006	-0.0008	-0.003	-0.0053	64.3
0.0052	-0.0015	-0.0046	-0.0053	64.3
-0.0008	-0.0015	-0.003	-0.006	64.3
-0.0053	-0.0008	0	-0.003	64.3
-0.0046	0.0007	0.0007	-0.0053	64.3
-0.0068	0	0.0007	-0.0023	64.3
0.0015	0.0015	-0.0008	-0.0023	64.3
0.0015	0.003	0.0007	-0.0008	64.3
0.0037	0.0045	-0.0008	0	64.3
0.0052	0.0045	-0.0015	-0.0008	64.3
0.003	0.0007	0	0.003	64.3
0.0067	0	0.0022	-0.0008	64.3
0.0015	-0.0008	0.006	0.0007	64.3
0.0045	-0.0008	0.0067	-0.0015	64.3
-0.0015	-0.0008	0.0067	-0.0023	64.3
-0.0038	-0.0015	0.0045	0.0015	64.3
-0.0046	-0.0008	0.0015	0.0022	64.3
-0.0083	0.0015	-0.0008	0.0052	64.3
-0.003	0.0007	-0.0053	0.0037	64.3
-0.0075	0.0007	-0.0053	0.0045	64.3
-0.0015	-0.0008	-0.0038	0.0045	64.3
0.0007	0.0007	-0.0053	0.003	64.3
0.0015	0.0007	-0.0046	0.0022	64.3
0.0082	-0.0008	-0.003	0.003	64.2
0.0037	0.0022	-0.0053	0.003	64.2
0.0067	0	-0.003	0.003	64.2
0.0045	0	-0.0008	0.003	64.2
-0.0008	0	0.0007	0.0007	64.2
0.0022	0.0007	0.003	-0.0008	64.2
-0.0008	0.0007	0.0045	-0.0008	64.2
0.0015	0.0015	0.0045	0.0007	64.2
0.003	0.003	0.003	-0.0015	64.2
-0.0008	0.0015	0.0022	-0.0015	64.2
0.0015	0.0015	0.003	-0.0015	64.2
-0.0046	-0.0008	0.0067	-0.0015	64.2
-0.006	-0.0015	0.0052	-0.0008	64.2
-0.0038	-0.0008	0.003	0	64.2
-0.0068	-0.003	0.0045	0.0007	64.2
-0.0008	-0.0015	0.0015	-0.0015	64.2
0.0022	-0.0015	0.003	0	64.2
0.006	-0.0015	0.0045	-0.0015	64.2
0.0067	-0.0023	0.003	-0.003	64.2
0.003	-0.0015	0.0045	-0.0015	64.2
0.0067	-0.0008	0.003	-0.003	64.2
0.0037	-0.0008	0.0015	0.0007	64.2
0.006	0.0015	0.003	0.0007	64.2
0.0097	0.0007	0.0045	0.0022	64.2
0.0067	0.0007	0.0015	0.0045	64.2
0.0105	0.0007	-0.0015	0.0015	64.2
0.0075	0.0007	-0.0023	0.0007	64.2
0.0052	0.0007	-0.0015	-0.0008	64.2
0.0045	0.0007	0	-0.0023	64.2
-0.0008	0	-0.0015	-0.0038	64.2
0.0007	-0.0015	0	-0.0038	64.2
-0.003	-0.003	0	-0.003	64.2
0	-0.0023	-0.003	-0.0023	64.2
0.0007	-0.0015	-0.0023	-0.0008	64.2
-0.0015	0	-0.0023	0.0007	64.2
0.003	-0.0015	-0.003	0.003	64.2
-0.0015	-0.0008	-0.0023	0.0007	64.2
0.0022	-0.0008	-0.0038	-0.0023	64.2
0.003	0.0022	-0.0023	-0.0008	64.2
0.0022	0.003	-0.0008	0	64.2
0.0082	0.0007	0.0015	0.0007	64.2
0.0037	-0.0015	-0.0008	-0.0015	64.2
0.0067	-0.0008	-0.0008	-0.0015	64.2
0.0022	0	-0.0008	-0.003	64.2
-0.0023	-0.0015	0	-0.0008	64.2
0.0015	-0.0008	0.0007	-0.0008	64.2
-0.0068	-0.0008	0.0015	-0.0015	64.2
-0.0008	0	0.0007	-0.0008	64.2
-0.0023	0	-0.0008	-0.0015	64.2
-0.003	-0.0008	0.0007	-0.0015	64.2
0.0007	-0.0008	0.0007	-0.0023	64.3
-0.003	-0.0023	0	-0.003	64.3
0.0015	-0.0008	0	0.0015	64.3
-0.003	0	0.0007	0.0015	64.3
0.0007	0	0.0022	0.0007	64.3
0.0022	0.0015	0.0007	0.0015	64.3
0.003	0.0007	0	0.0007	64.3
0.0082	0	0.0007	0	64.3
0.0037	-0.0008	-0.0008	0.0007	64.3
0.0045	0.0007	0.0007	-0.0008	64.3
0.0015	0.0015	0.0007	-0.0008	64.3
-0.0015	0.0007	0.0007	-0.0015	64.3
0.0007	0.0007	0.0007	-0.0008	64.3
-0.003	0.0015	-0.0008	0.0045	64.3
-0.0008	-0.0008	-0.0015	0.0022	64.3
0.0007	-0.003	0.0015	0.0015	64.3
0.0015	-0.0015	0.0015	0.0007	64.3
0.0067	-0.0008	0.0007	-0.0015	64.3
0.0075	-0.003	0.0007	-0.0023	64.3
0.0075	-0.0023	-0.0008	-0.003	64.3
0.0052	-0.0038	-0.0008	-0.003	64.3
0.003	-0.0038	-0.0015	-0.0023	64.3
0.0037	-0.0023	-0.0008	-0.0015	64.3
0.0052	-0.0015	0.0015	-0.0008	64.3
0.0052	0.0015	0.003	0.0007	64.3
0.0052	0.0007	0.0015	0.0007	64.3
0.0007	0.0015	0.0007	0.0007	64.3
0.0022	0.0007	0.0015	-0.003	64.3
-0.0015	-0.0008	0.0015	-0.003	64.3
-0.0046	-0.0015	0.0015	-0.0046	64.3
-0.0015	-0.0023	0.0045	-0.0046	64.3
-0.0008	-0.0023	0.003	-0.0015	64.3
0.006	-0.0046	0.0022	-0.0008	64.3
0.0045	-0.0015	0.003	0.003	64.3
0.0067	0	0.0022	0	64.3
0.0067	0.0007	0	-0.0008	64.3
0.003	0.0007	0.0007	-0.0015	64.3
0.0075	0.0007	-0.0008	-0.0008	64.3
0.0045	0.0037	-0.0023	0.0007	64.3
0.0105	0.0052	0.0015	0	64.3
0.0105	0.0052	0.0007	0.0007	64.3
0.0097	0.0045	0.0007	-0.0008	64.3
0.0097	0.003	0.0007	-0.0008	64.3
0.003	0.0015	-0.0015	-0.0015	64.3
0.0045	0.003	0.0015	-0.0008	64.3
-0.0023	0.0015	0.003	-0.0008	64.3
-0.0046	-0.0008	0.0052	-0.0015	64.3
-0.0075	-0.0008	0.0067	0.0015	64.3
-0.0105	-0.003	0.0082	0	64.3
-0.0053	-0.0008	0.0067	0.0007	64.3
-0.0083	0.0007	0.0022	0	64.3
-0.0015	0.0007	-0.0015	0.0015	64.3
0.0007	0	-0.0053	0.0007	64.3
-0.0015	-0.0015	-0.0091	-0.0008	64.3
0.003	-0.0023	-0.0091	-0.0008	64.3
0.0022	-0.003	-0.0091	-0.0015	64.3
0.006	-0.0008	-0.0091	0.0007	64.3
0.0082	0.0022	-0.0046	0.0007	64.3
0.0015	0.0007	-0.0053	0.003	64.3
0.0015	-0.0008	-0.003	0.0015	64.3
-0.0008	0	-0.003	-0.0008	64.3
-0.0023	-0.0008	-0.0023	0.0007	64.3
-0.0015	-0.0008	0.0015	0.0015	64.3
-0.0038	-0.0038	0.003	0.003	64.3
-0.0015	-0.0023	0.0052	0.0015	64.3
-0.0023	-0.0015	0.0045	0.0015	64.3
0.0007	-0.0015	0.003	0.0015	64.3
0.003	0	0.0037	0	64.3
0.0007	-0.0015	0.0015	-0.0008	64.3
0.003	-0.0015	0.003	0.0007	64.3
-0.0008	-0.0023	0.0022	0.0015	64.3
-0.0015	-0.0008	0.003	0.003	64.3
0.003	-0.0008	0.0022	0.0022	64.3
0.0067	-0.0015	0.0015	-0.0008	64.3
0.0112	-0.0008	0.0007	0.0007	64.3
0.0052	-0.003	-0.0008	-0.0015	64.3
0.0082	-0.0015	0.0037	0.0007	64.3
0.0075	-0.0015	0.0022	0.0007	64.3
0.006	0	0	-0.0015	64.3
0.0075	0.0007	-0.0008	0	64.3
0.0015	-0.0008	-0.0008	-0.0015	64.3
0.0015	-0.0015	0.0015	-0.0015	64.3
-0.0008	-0.0015	0.0007	-0.0008	64.3
-0.0015	0.0007	0.003	0.0007	64.3
0.0015	0	0.0007	0.0015	64.3
0	0	-0.0023	0.0007	64.3
0.0045	-0.0008	-0.0015	0.0015	64.3
0.0045	0.0007	0.0007	0.003	64.3
0.0007	0.003	0.0022	0.003	64.3
0.0045	0.0015	0.0015	-0.0008	64.3
0.003	0.0007	0.0015	-0.0008	64.3
0.0052	-0.003	0.0007	0.0007	64.3
0.0037	-0.0038	0	0.0022	64.3
0.003	-0.0023	0	0.0015	64.3
0.0052	-0.0023	0.003	-0.0008	64.3
0	0.0007	0.0007	-0.0023	64.3
0.0045	0.0007	0	-0.0068	64.3
-0.0008	-0.0015	0.0007	-0.0046	64.3
0.0007	-0.0023	-0.0046	-0.003	64.3
0.003	-0.0008	-0.003	-0.0046	64.3
-0.0015	0	-0.0023	-0.0046	64.3
0.003	0.0015	-0.0038	-0.0068	64.3
-0.0008	0.0007	-0.0008	-0.0046	64.3
0	-0.0008	0.0007	-0.0046	64.3
0.0007	0.0007	0.0007	-0.0038	64.3
-0.003	0.0007	0	-0.0023	64.3
0.0007	0	-0.0015	-0.0015	64.3
0.0007	-0.0015	-0.0015	0.0007	64.3
-0.0015	-0.0008	-0.0015	-0.0015	64.3
0.0007	-0.0008	-0.0008	0.0007	64.3
-0.0046	0.0007	0.0007	0.0007	64.3
-0.0008	0.0007	0.0015	-0.0008	64.3
-0.0038	0.0007	0.0015	0.0007	64.3
-0.0053	0.0007	0.0007	0.0007	64.3
-0.0015	0.0007	0.0015	0.0015	64.3
-0.0068	0.0007	0.0007	0.003	64.3
-0.0008	0	0.0015	0.003	64.3
-0.003	0.0007	0.0007	0.003	64.3
-0.0008	0.0007	0.0022	0.003	64.3
0.0022	0	0.003	0.0022	64.3
-0.0008	-0.0008	0.0015	0.003	64.3
0.0052	-0.0015	0	0.0022	64.3
0.0015	-0.0015	0.0007	-0.0008	64.3
0.0052	0.0022	0.0015	0.0015	64.3
0.0082	0.0015	0.0007	-0.0015	64.3
0.0045	-0.0015	0.003	-0.003	64.3
0.0067	-0.0015	0.0015	-0.0008	64.3
0.0015	-0.0015	0.0007	-0.003	64.3
0.0015	-0.0008	0.0015	-0.0015	64.3
0.0007	-0.0008	0.0015	-0.0023	64.3
-0.0015	-0.0015	0	-0.0008	64.3
0.0037	0.0022	-0.0008	-0.0008	64.3
0.003	0.003	-0.003	0.0007	64.3
0.0045	0.003	-0.0023	0.0015	64.3
0.0067	0.0045	-0.0008	0.0007	64.3
0.006	0.0007	-0.0008	0.0015	64.3
0.009	-0.0008	0.0007	-0.0015	64.3
0.009	-0.003	0.0022	-0.0038	64.3
0.006	-0.0053	0.0045	0	64.3
0.006	-0.003	0.0045	0.0022	64.3
0.0052	0	0.0022	0.0007	64.3
0.003	0.003	0.0015	-0.0015	64.3
0.003	0.0022	-0.0008	-0.0015	64.3
-0.0008	0.0007	0.0007	0.0007	64.3
0	-0.0008	0.0007	0.0022	64.3
-0.0053	-0.003	0.0007	0.0015	64.3
-0.0075	-0.0023	0.0007	0.0015	64.3
-0.003	-0.0023	-0.0008	0.0015	64.3
-0.0038	0	0	0	64.3
0.0052	0.0022	-0.0008	-0.0015	64.3
0	0.0015	-0.0023	-0.0015	64.2
0.0015	0.0007	0.0007	-0.0008	64.2
0.0015	-0.0015	0	0.0007	64.2
0	-0.0008	-0.0008	-0.0015	64.2
0.0067	-0.0008	-0.0008	-0.0038	64.2
0.0015	-0.0015	-0.0015	-0.0015	64.2
0.009	-0.0015	-0.0023	0	64.2
0.0052	-0.0008	-0.003	0.0022	64.2
0.0067	-0.0008	-0.0015	0.0037	64.2
0.006	-0.0015	0	0.003	64.2
-0.0015	-0.0023	0.0007	0.0015	64.3
0.0037	-0.003	-0.0008	-0.0008	64.3
-0.006	-0.0023	0.0015	0	64.3
-0.0046	-0.0015	-0.0015	0	64.3
-0.0053	-0.0008	-0.0008	0.0007	64.3
-0.0046	0.0022	0.0007	-0.0008	64.3
0.0037	0.003	-0.0008	-0.0015	64.3
0.0007	0.0045	0.0015	-0.0015	64.3
0.0075	0.0015	0.0007	-0.003	64.3
0.0045	0.0007	0.0015	-0.0023	64.3
0.0067	0.0022	0.003	-0.0008	64.3
0.0045	0.0015	0.006	0.0007	64.3
-0.0008	0.003	0.0075	-0.0008	64.3
0.006	0.0007	0.0045	0	64.3
0	0	0.0015	0.0007	64.3
0.0015	0.0007	0.0015	-0.0015	64.3
0.0022	-0.0008	-0.0008	-0.003	64.3
-0.0046	0.0007	-0.0023	-0.003	64.3
-0.0008	0.0007	-0.0023	-0.003	64.3
-0.0023	-0.0008	0	-0.0053	64.3
-0.0023	-0.0015	0	-0.0046	64.3
0.0015	-0.003	-0.0023	-0.0015	64.3
0.0007	-0.0046	-0.0008	-0.0015	64.3
0.0037	-0.003	0	0	64.3
0.003	-0.0008	0	0.0015	64.3
0.0045	0.0015	-0.003	0.0045	64.3
0.0067	0.0022	-0.0023	0.0015	64.3
0.0022	0.0007	-0.0008	-0.0008	64.3
0.0052	0.0007	0.0037	-0.0008	64.3
0.0075	0.0015	0.009	-0.0015	64.3
0.012	0.0015	0.0067	-0.003	64.3
0.0097	0.0007	0.0067	-0.0008	64.3
0.0082	0.0007	0.0015	0.0015	64.3
0.0067	0	-0.0015	-0.0008	64.3
0.003	-0.0008	-0.0038	0.0007	64.3
0.006	-0.0008	-0.0068	0.0007	64.3
0.0007	-0.0015	-0.006	-0.0008	64.3
-0.0015	-0.0015	-0.0083	0.0015	64.3
-0.0008	-0.0015	-0.0083	0.0007	64.3
-0.0015	-0.0008	-0.0083	0.003	64.3
0.0007	0	-0.0046	0.003	64.3
0.0007	0	-0.0008	0.0015	64.3
0.0045	0	0.0015	0.003	64.3
0.006	0.0022	0.003	0.0015	64.3
0.003	0.0045	0.0045	0.0037	64.3
0.0022	0.0007	0.0052	0.003	64.3
0.0007	-0.0023	0.0022	0.0015	64.3
0.003	0	0.0045	0.0037	64.3
0.0037	0.0007	0.003	0.003	64.3
0	0.0015	0.0007	0.0015	64.3
0.0015	0.0015	0.003	0.0015	64.2
-0.0008	-0.0008	0.0045	0.0007	64.2
-0.0038	-0.0008	0.006	-0.0046	64.2
-0.0053	-0.003	0.006	-0.0053	64.2
-0.006	-0.003	0.0037	-0.0046	64.2
-0.0046	-0.0015	0.0015	-0.0008	64.2
-0.0008	-0.003	0.0015	0.0007	64.2
-0.0008	-0.0023	0.0045	0.0015	64.2
0.003	0.0015	0.0037	0.0015	64.2
0.0045	0.0045	0.003	-0.0008	64.2
0.003	0.0037	0.0015	-0.0008	64.3
0.0037	0.0022	-0.0008	-0.0015	64.3
0.0045	0.0045	-0.0023	-0.0015	64.3
0.0067	0.0022	-0.0015	-0.0023	64.3
0.0067	0.0015	0.0015	-0.003	64.3
0.003	0.0022	-0.0015	-0.0038	64.3
0.0015	-0.0008	0	-0.0046	64.3
0.0007	-0.0008	0.0007	-0.0038	64.3
-0.0046	-0.003	-0.003	-0.0046	64.3
-0.0046	-0.003	-0.0015	-0.003	64.3
-0.0053	-0.0008	-0.0008	-0.0015	64.3
-0.003	-0.003	-0.0008	0	64.3
0.003	-0.0023	-0.0015	0	64.3
0.0007	-0.003	-0.0015	0	64.3
0.0045	-0.003	-0.0023	0.0015	64.3
0.003	-0.003	-0.0008	0.0015	64.3
0.0015	-0.0023	0.0022	0.0052	64.3
0.0052	-0.0008	0.0022	0.0037	64.3
0.0022	-0.0008	0.0007	-0.0008	64.3
0.009	-0.0008	-0.0008	0	64.3
0.0082	-0.0008	-0.0015	-0.0015	64.3
0.0067	-0.0023	-0.0008	-0.0046	64.3
0.0075	-0.0015	0	-0.0053	64.3
-0.0008	0	0.0022	-0.0046	64.3
0	0	0	-0.003	64.3
-0.0046	-0.0008	-0.0015	-0.0023	64.3
-0.0068	-0.0015	0	-0.0008	64.3
-0.0023	-0.0015	-0.0015	-0.0008	64.3
-0.0053	-0.0023	0.0015	-0.0008	64.3
0.0015	0	0.0007	0.0015	64.3
0	0.003	0.0015	0.003	64.3
-0.0008	0	0.0045	0.003	64.3
0.0007	0	0.0022	0.0015	64.3
-0.0023	-0.0015	0.0015	0.0015	64.3
0.0045	-0.0023	-0.0015	0.0015	64.3
-0.0015	0	-0.0008	0.0007	64.3
0.0007	-0.0008	0.0007	0.0015	64.3
0.0022	0.0022	-0.0008	-0.0008	64.3
0.0007	0.0022	0	-0.0023	64.3
0.006	-0.0008	0	-0.0015	64.3
0.0007	0.003	-0.0008	-0.0046	64.3
0.0052	0.003	0.0007	-0.0023	64.3
0.0015	0.0007	0	-0.0015	64.3
0.0007	0.0007	-0.0015	-0.0008	64.3
0.0052	0	-0.0008	-0.0015	64.3
0.003	-0.0015	-0.0008	-0.003	64.3
0.0082	-0.0008	-0.0015	0.0007	64.3
0.006	0.0007	-0.0008	0.0045	64.3
0.0075	-0.0008	0.0007	0.003	64.3
0.009	0	0.0007	0.0052	64.3
0.0082	-0.0008	0.0015	0.0045	64.3
0.0127	-0.0008	0.0015	0.003	64.3
0.0075	0.0022	0.0007	0.0015	64.3
0.006	0.0015	0	-0.0008	64.3
0.0037	-0.0008	0.0015	-0.0008	64.3
-0.0008	-0.0023	0.003	-0.0038	64.3
0.0015	-0.0023	0.0022	-0.0015	64.3
-0.0046	-0.0015	0.0015	-0.0015	64.3
-0.0046	-0.0015	0	-0.003	64.3
-0.0053	-0.0015	-0.0008	0	64.3
-0.0053	-0.0015	0	-0.0008	64.3
-0.0046	0	0.0015	-0.0008	64.3
-0.0053	0.0015	0.0007	-0.003	64.3
-0.0008	0.003	-0.0008	-0.0023	64.3
-0.0015	0.0015	0.003	-0.003	64.3
-0.0008	0.003	0.0045	-0.0046	64.3
0.0045	0.0007	0.0022	-0.0015	64.3
0.006	-0.0015	0.0007	-0.0008	64.3
0.0067	-0.0008	0.0022	-0.0008	64.3
0.009	-0.003	0.003	0.003	64.3
0.0067	-0.0008	0.0007	0.0015	64.3
0.0075	0.0007	0.0007	0.0007	64.3
0.0045	-0.0008	-0.003	0.0015	64.3
0.0015	0.0015	-0.003	0.0015	64.3
0.0045	0.0007	-0.0015	0.0015	64.3
-0.0008	0.0007	-0.0008	-0.003	64.3
0.0015	-0.0008	0.0015	-0.0023	64.3
0	-0.0015	0	-0.0038	64.3
0	-0.0015	0	-0.0008	64.3
0.0052	0	-0.0008	0	64.3
0.0007	0.003	-0.0015	-0.0015	64.3
0.0037	0	-0.0015	0.0007	64.3
0.003	-0.0015	0	-0.0008	64.3
0.0007	-0.0015	0.0007	0.0007	64.3
0.0037	0.0007	0	0.003	64.3
-0.0008	-0.0015	-0.0008	0.0015	64.3
0.0007	-0.0023	0.0007	-0.0023	64.3
0.0007	0	0.0007	-0.0015	64.3
-0.0015	-0.0008	-0.0008	-0.0008	64.3
0.0007	0	0.0015	-0.0015	64.3
-0.0015	0	0.0007	0.0007	64.2
-0.0008	-0.0015	0.0015	-0.0008	64.2
0.0007	-0.0008	0.0045	-0.0008	64.2
-0.003	-0.0008	0.0015	-0.0008	64.2
0.0007	0.0007	0.003	0.0007	64.2
-0.0015	0	0.0015	0.003	64.3
0.0007	0	-0.0038	0.0037	64.3
0.003	0.0007	-0.0053	0.0052	64.3
0.0015	-0.0015	-0.006	0.0037	64.3
0.0082	-0.003	-0.0038	0.0015	64.3
0.0022	-0.003	-0.003	-0.0008	64.3
0.0037	-0.003	-0.0008	-0.0008	64.3
0.0045	-0.0008	0.0015	0	64.3
0.0022	-0.0008	0.0007	0	64.3
0.0105	-0.0008	0.0015	-0.0008	64.3
0.0052	-0.0015	0.0015	0.0007	64.3
0.006	-0.0015	0.0007	0.0015	64.3
0.0052	0.0015	0	0.003	64.3
0.0007	0.0015	0.0007	0.0022	64.3
-0.003	0.0007	0.0015	0.0015	64.3
-0.0015	0.0015	0.0022	-0.0008	64.3
0.0022	0.0015	0.0007	-0.0015	64.3
0.0007	0.0015	-0.0008	-0.0015	64.3
0.0007	-0.0008	-0.0015	-0.003	64.3
-0.0008	-0.0015	-0.003	-0.0015	64.3
0.0022	-0.0023	-0.0015	0	64.3
0.0015	0.0007	0.0007	-0.0008	64.3
0.003	0.0022	0.0007	-0.0015	64.3
0.0015	0.0037	0.0015	-0.0008	64.3
0.0015	0.0045	0.0007	-0.0008	64.3
0.0097	0.0007	0.003	-0.0015	64.3
0.0067	0.0007	0.0007	-0.003	64.3
0.0052	-0.0008	-0.0015	-0.0023	64.3
0.0015	0	-0.0008	-0.003	64.3
0	0.0022	-0.003	-0.0046	64.3
0.0007	0.0015	0.0007	-0.003	64.3
-0.0053	0.0045	0.0015	-0.0015	64.3
-0.003	0.0015	0.003	-0.003	64.3
-0.0046	0	0.003	-0.0015	64.3
0.0015	0	0.0007	0.0015	64.3
0.0037	-0.0015	0.003	0.0015	64.2
0.0037	-0.0008	0	0.0015	64.2
0.0097	-0.003	-0.0008	0	64.2
0.0045	-0.003	-0.0015	-0.0008	64.2
0.0045	-0.0023	-0.0015	-0.0023	64.2
0.0015	-0.0015	0.0007	-0.003	64.2
-0.0008	0.0007	0.0007	-0.0038	64.2
0.003	-0.0008	0.003	-0.0046	64.2
0.003	-0.0015	0.0007	-0.0015	64.2
0.0007	0.0007	-0.0015	-0.0008	64.2
0.0007	-0.0008	-0.003	0.003	64.3
-0.0008	0.0015	-0.0008	0.0067	64.3
-0.003	0.0007	0.0015	0.009	64.3
-0.0023	-0.0008	0.0015	0.0075	64.3
-0.0046	0.0022	0.0015	0.003	64.3
0.0007	-0.0008	0.0022	0.003	64.3
0	-0.0015	0.0037	-0.0015	64.3
-0.0023	-0.0015	0.0007	-0.0053	64.3
-0.0008	-0.0053	0.0022	-0.0053	64.3
-0.0008	-0.0053	0.0007	-0.0068	64.3
0.0045	-0.0038	-0.0015	-0.0068	64.3
0.0045	-0.003	0.0007	-0.0068	64.3
0.0067	-0.0015	0.0007	-0.0075	64.3
0.009	-0.0008	0.003	-0.0046	64.3
0.0052	0	0.0045	-0.0046	64.3
0.0067	-0.0008	0.003	-0.0008	64.3
0.0022	-0.0038	0.003	0	64.3
0.0015	-0.0038	0.0037	0.0015	64.3
0.0007	-0.0015	0.0037	0.0052	64.3
0	0.0007	0.0022	0.0067	64.3
0.0015	0	0.0045	0.012	64.3
-0.0008	-0.0008	0.0045	0.0105	64.3
0.0037	0	0.0037	0.0082	64.3
0.003	0.0015	0.0007	0.0075	64.3
0.0007	0.0052	-0.003	0.0067	64.3
0.0045	0.0052	-0.0068	0.0052	64.3
-0.0008	0.0015	-0.003	-0.003	64.3
0.0045	-0.0008	0	-0.0046	64.3
0.0037	-0.0008	-0.0008	-0.0053	64.3
0.003	-0.0008	0.003	-0.0053	64.3
0.0097	-0.0023	0.0007	-0.003	64.3
0.0052	-0.0015	-0.0008	-0.0068	64.3
0.0067	-0.003	0.0007	-0.0015	64.3
0.0037	-0.003	0.0015	0.0007	64.3
0.0007	-0.0015	0.003	0.0037	64.3
0.0022	-0.0008	0.0037	0.0067	64.3
-0.0015	0	0.0045	0.0037	64.3
0.0015	0.0007	0.003	0.0007	64.3
0.0045	0.0022	0.0022	0.0007	64.3
0.0022	0.0015	0	0.0037	64.3
0.0052	-0.0008	-0.0015	0.003	64.3
0.0045	-0.0023	-0.0046	0.0022	64.3
0.0052	-0.0015	-0.0053	0.0015	64.3
0.0067	0.0007	-0.0046	0.0015	64.3
0.003	0.0015	-0.0053	-0.0008	64.3
0.0052	0.0037	-0.0023	-0.0008	64.3
0.0082	0.0022	-0.003	-0.0008	64.3
0.0052	0.0007	-0.003	-0.0015	64.3
0.0075	0	-0.0015	-0.0015	64.3
0.006	0	-0.003	-0.0023	64.3
0.0015	0.0015	-0.0015	-0.0008	64.3
0.0007	0.0022	-0.0008	-0.0046	64.3
-0.0038	0.0007	-0.0015	-0.0068	64.3
-0.0046	0.0007	0.0007	-0.0068	64.3
-0.0046	0.0007	0.0022	-0.0068	64.3
-0.0046	-0.0023	0.0022	-0.0046	64.3
-0.0008	-0.0015	0.0007	-0.006	64.3
0.0015	-0.0008	0.003	-0.0023	64.3
0.006	-0.0015	0.003	-0.0008	64.3
0.0082	-0.003	0.003	-0.0008	64.3
0.006	-0.003	0.0037	0.003	64.3
0.0082	-0.0008	0.0045	0.0052	64.3
0.0067	0	0.0037	0.009	64.3
0.0082	0.0015	0.0037	0.009	64.3
0.0022	0.003	0.0022	0.0105	64.3
-0.0075	0.0015	0.006	0.0082	64.3
-0.0091	-0.0008	0.0045	0.0067	64.3
-0.0165	-0.0023	0.0007	0.0037	64.3
-0.0128	-0.0053	0.0015	-0.0008	64.3
-0.0105	-0.0068	-0.0038	-0.0038	64.3
-0.0098	-0.0053	-0.0046	-0.0046	64.3
-0.0015	-0.0046	-0.0046	-0.0038	64.3
-0.0008	-0.003	-0.0053	-0.003	64.3
0.0052	-0.0015	-0.0038	-0.0008	64.3
0.0082	-0.0008	-0.0038	-0.0015	64.3
0.0105	0.0007	-0.0046	-0.0015	64.4
0.0127	-0.0008	-0.0075	-0.0015	64.4
0.003	-0.003	-0.006	-0.003	64.4
-0.0023	-0.003	-0.0046	-0.0008	64.4
-0.012	-0.0038	-0.0075	-0.003	64.4
-0.0203	-0.003	-0.0091	-0.0015	64.4
-0.0218	-0.0015	-0.0091	-0.0023	64.4
-0.0278	-0.0015	-0.0091	-0.0046	64.5
-0.0195	-0.0015	-0.0068	-0.003	64.5
-0.0165	-0.003	-0.0075	-0.0038	64.5
-0.0158	-0.0015	-0.0091	-0.0053	64.5
-0.0046	0.0007	-0.0105	-0.0046	64.5
0.003	0	-0.0068	-0.003	64.5
0.0172	0.0007	0.0015	-0.0046	64.5
0.024	0.0007	0.0052	-0.003	64.6
0.027	0.003	0.0052	-0.003	64.6
0.033	0.003	0.0037	-0.0023	64.6
0.0277	0.0015	0.0015	-0.0015	64.6
0.0345	0.0022	0.009	-0.003	64.6
0.0375	-0.0008	0.0202	-0.006	64.6
0.0397	-0.0015	0.0285	-0.0083	64.7
0.0465	0.0015	0.036	-0.0075	64.7
0.0397	0.0007	0.0345	-0.0083	64.7
0.0382	0.0007	0.03	-0.0083	64.7
0.0277	0.003	0.0232	-0.0091	64.7
0.015	0.0015	0.012	-0.0098	64.8
0.0075	0.0022	0.0045	-0.0068	64.8
-0.0008	0.0022	0	-0.0053	64.8
-0.0008	0.003	-0.0015	-0.0046	64.8
-0.006	0.0037	-0.0023	-0.0038	64.8
-0.0105	0.0052	-0.0046	-0.0038	64.8
-0.0098	0.006	-0.0083	-0.0038	64.8
-0.0128	0.0052	-0.0083	-0.003	64.8
-0.0105	0.0045	-0.0091	0.0007	64.8
-0.0143	0.0022	-0.012	-0.0008	64.9
-0.0173	0.0037	-0.0143	-0.0008	64.9
-0.0158	0.0037	-0.0143	-0.003	64.9
-0.0173	0.0037	-0.015	-0.0053	64.9
-0.012	0.0045	-0.0135	-0.003	64.9
-0.0165	0.003	-0.0105	-0.0038	64.9
-0.0158	0.0007	-0.012	-0.0008	65
-0.0113	0	-0.0068	0.0015	65
-0.0128	0	0.0007	0.0007	65
-0.012	-0.0008	0.0037	0.0015	65
-0.0181	0.0022	0.0037	0.003	65
-0.0233	0.0007	0	0.0067	65.1
-0.0233	0.0015	-0.0008	0.0067	65.1
-0.0195	0.0007	-0.0046	0.0075	65.1
-0.0128	-0.0008	-0.0038	0.0067	65.1
-0.0015	-0.0008	-0.0015	0.0075	65.1
0.0052	-0.003	-0.0008	0.009	65.1
0.0127	-0.0015	0.0022	0.0075	65.2
0.0187	-0.0015	0.003	0.0082	65.2
0.0187	-0.0023	0.0082	0.0082	65.2
0.024	-0.0046	0.0075	0.0067	65.2
0.027	-0.0015	0.0045	0.0067	65.2
0.0322	-0.0015	0.0052	0.003	65.2
0.0322	-0.0053	0.0037	-0.0015	65.2
0.0202	-0.0038	0.0052	-0.003	65.2
0.0127	-0.0038	0.0015	-0.003	65.2
0.0015	-0.0046	-0.003	0.0007	65.2
-0.0038	-0.0046	-0.003	0.003	65.2
-0.0068	-0.0053	-0.0015	0.0052	65.3
-0.0158	-0.0046	0.0052	0.0052	65.3
-0.0195	-0.0046	0.0082	0.006	65.3
-0.0256	-0.0015	0.009	0.0082	65.3
-0.0233	-0.0015	0.0015	0.0067	65.3
-0.0158	-0.0015	-0.0053	0.0082	65.3
-0.0038	-0.0008	-0.0091	0.0082	65.3
0.0082	-0.0023	-0.0091	0.009	65.4
0.0105	-0.0038	-0.0015	0.0075	65.4
0.0202	-0.0046	0.0015	0.006	65.4
0.0232	-0.003	0.009	0.0052	65.4
0.0157	-0.0046	0.012	0.0037	65.4
0.009	-0.006	0.012	0.0022	65.4
0.0052	-0.003	0.0105	0.003	65.4
0.0022	-0.0023	0.009	0.0045	65.4
-0.006	-0.0008	0.009	0.0037	65.4
-0.0143	-0.0008	0.009	0.0037	65.4
-0.0165	-0.0008	0.009	0.0037	65.5
-0.015	-0.0015	0.0082	-0.0008	65.5
-0.0143	-0.0038	0.0075	-0.006	65.5
-0.0075	-0.0038	0.0052	-0.0046	65.5
0	-0.0046	0.0052	0.0127	65.5
0.006	-0.003	0.0007	0.009	65.5
0.0097	-0.0015	0.0007	0	65.5
0.0082	0	0.0015	-0.0046	65.5
0.012	0.0007	-0.0023	-0.0135	65.5
0.009	0.0015	-0.0038	-0.0105	65.5
0.0075	0.003	-0.0091	-0.0165	65.5
-0.0008	0.0045	-0.012	-0.0158	65.5
-0.0113	0.0045	-0.0158	-0.0158	65.5
-0.0165	0.0045	-0.0181	-0.0158	65.6
-0.0218	0.0052	-0.0173	-0.0143	65.6
-0.021	0.0045	-0.0195	-0.0158	65.6
-0.0233	0.0015	-0.0188	-0.012	65.6
-0.0195	0.0022	-0.0165	-0.012	65.6
-0.0143	0	-0.0158	-0.0098	65.6
-0.0008	-0.0015	-0.0091	-0.0091	65.6
0.0127	-0.0015	-0.0046	-0.0083	65.6
0.0255	-0.0023	-0.0015	-0.0068	65.6
0.0367	-0.003	0.0037	-0.003	65.6
0.039	-0.0023	0.0097	-0.0015	65.6
0.0457	-0.0008	0.018	-0.003	65.5
0.0427	-0.0015	0.018	-0.0023	65.5
0.0345	-0.0038	0.0157	-0.0046	65.5
0.0285	-0.0008	0.0195	-0.003	65.5
0.0112	-0.0008	0.0195	-0.003	65.5
0.0037	-0.0023	0.0195	0	65.5
-0.0038	-0.003	0.0157	0.0045	65.5
-0.0075	-0.0046	0.009	0.0015	65.5
-0.0075	-0.0015	0.0037	-0.0015	65.5
-0.012	-0.0008	-0.003	-0.0053	65.5
-0.0091	-0.0008	-0.0053	-0.0083	65.4
-0.012	-0.0008	-0.0113	-0.0098	65.4
-0.0135	-0.003	-0.0143	-0.0091	65.4
-0.0143	-0.0046	-0.012	-0.0091	65.4
-0.0188	-0.0046	-0.0143	-0.0068	65.4
-0.0165	-0.0053	-0.012	-0.003	65.3
-0.024	-0.0075	-0.0091	-0.006	65.3
-0.0323	-0.0083	-0.0075	-0.003	65.2
-0.0308	-0.0083	-0.0038	0.0015	65.2
-0.0293	-0.006	0	0.0037	65.2
-0.0203	-0.0038	0.003	0.0052	65.2
-0.012	-0.0053	0.0022	0.003	65.2
-0.0068	-0.006	-0.0015	0.0015	65.1
-0.0008	-0.0046	-0.0046	0.0015	65.1
-0.0023	-0.0046	-0.0053	0.0037	65.1
0.0067	-0.0053	-0.0091	0.0037	65
0.0105	-0.006	-0.0083	0.0052	65
0.0082	-0.0046	-0.0046	0.0045	64.9
0.0075	-0.0046	0.0045	0.003	64.9
0.0022	-0.0053	0.0142	0.0022	64.9
0.0165	-0.0053	0.0142	0.0045	64.8
0.024	-0.0053	0.018	0.0075	64.8
0.0277	-0.006	0.0187	0.0052	64.8
0.0285	-0.0046	0.0165	0.0052	64.8
0.0202	-0.0015	0.0142	0.0037	64.7
0.024	-0.0046	0.0075	0.0015	64.7
0.015	-0.003	0.0022	0.0007	64.6
0.0105	-0.003	0.0015	-0.0008	64.6
0.0067	-0.003	0	0.0007	64.5
0.0022	0.003	-0.0046	-0.0015	64.5
0.0022	0.003	-0.0091	-0.0023	64.4
-0.0053	0.003	-0.015	-0.0023	64.4
-0.0098	0.0045	-0.0225	-0.0015	64.3
-0.0075	0.0052	-0.0308	-0.0015	64.3
-0.0046	0.0067	-0.0346	-0.0015	64.3
0	0.0067	-0.0346	0.0015	64.3
0.0007	0.0082	-0.0315	0.0007	64.2
-0.0046	0.0097	-0.0293	0.0015	64.2
0.0022	0.0112	-0.0225	0.003	64.1
0.0097	0.0105	-0.0015	0.0015	64.1
0.0127	0.0105	0.0187	-0.0015	64
0.018	0.0105	0.033	-0.0038	64
0.0157	0.0105	0.0375	-0.0023	63.9
0.0157	0.0135	0.0367	0.0007	63.9
0.0217	0.0127	0.0502	0.0015	63.8
0.024	0.0082	0.0555	0.0015	63.8
0.0217	0.0082	0.054	0.0045	63.7
0.0127	0.0067	0.045	0.0067	63.6
0.003	0.0067	0.0307	0.0082	63.6
0.0007	0.006	0.0232	0.009	63.5
-0.0015	0.003	0.0105	0.009	63.4
-0.0083	0.0045	-0.0008	0.0075	63.4
-0.0091	0.0052	-0.0158	0.006	63.3
-0.0091	0.006	-0.0248	0.0045	63.3
-0.0068	0.0052	-0.027	0.0015	63.2
-0.0105	0.0022	-0.0278	0.0015	63.1
-0.0128	0.0045	-0.0256	0.0067	63.1
-0.0068	0.0045	-0.021	0.012	63
-0.006	0.0067	-0.012	0.018	63
0.0022	0.009	-0.006	0.024	62.9
0.0015	0.009	-0.0008	0.0225	62.9
0.009	0.0105	0.0045	0.018	62.8
0.0172	0.009	0.0052	0.009	62.7
0.0142	0.009	0.0067	0.0022	62.7
0.015	0.0082	0.003	-0.0015	62.6
0.0067	0.0105	-0.0008	-0.0046	62.5
0.003	0.012	-0.0068	-0.0046	62.5
-0.003	0.012	-0.0091	-0.0068	62.4
-0.0075	0.0112	-0.0091	-0.006	62.3
-0.0053	0.0082	-0.0083	-0.0053	62.3
-0.0053	0.0075	-0.0053	-0.0053	62.2
0.0022	0.009	-0.0053	-0.0046	62.1
0.0015	0.0097	-0.0008	-0.0053	62.1
0.0045	0.0097	0.0015	-0.0083	62
0.0052	0.009	0.0007	-0.0083	62
0	0.0082	0.0015	-0.006	61.9
0.003	0.0067	-0.0008	-0.0053	61.8
-0.0046	0.009	-0.0038	-0.0015	61.7
-0.0098	0.0112	-0.0023	0.0007	61.7
-0.0218	0.009	-0.0008	0.0007	61.6
-0.0353	0.0082	-0.0008	0.0007	61.6
-0.033	0.0067	-0.0046	0.003	61.5
-0.0278	0.0082	-0.006	0.0045	61.4
-0.0143	0.0097	-0.0068	0.0045	61.3
0.0037	0.0105	-0.0091	0.0045	61.2
0.0202	0.0097	-0.006	0.0022	61.2
0.0345	0.0075	-0.0008	0.0015	61.1
0.0352	0.006	0.0052	-0.0008	61
0.0277	0.0067	0.009	-0.0015	60.9
0.0232	0.006	0.0067	-0.0015	60.8
0.0202	0.0075	0.0045	-0.0046	60.8
0.0142	0.0082	0.003	-0.0046	60.7
0.0105	0.0067	0.0037	-0.0046	60.6
0.0067	0.0067	0.006	-0.0015	60.5
0.0097	0.0045	0.0067	-0.0008	60.4
0.0157	0.0045	0.0052	-0.003	60.4
0.0105	0.0007	0.009	-0.003	60.3
0.0067	-0.0038	0.0112	-0.0053	60.2
0	-0.0038	0.0067	-0.0046	60.1
-0.0091	-0.0053	0.003	-0.0015	60
-0.0143	-0.0046	-0.0008	0.0015	60
-0.027	-0.0015	-0.003	0	59.9
-0.0278	-0.0023	-0.0091	-0.0015	59.8
-0.0233	-0.0015	-0.0128	0	59.7
-0.0143	-0.003	-0.0165	0	59.6
0.003	-0.006	-0.0143	0.0015	59.5
0.009	-0.0083	-0.003	0.0007	59.4
0.0165	-0.0083	0.0075	-0.0023	59.3
0.0217	-0.0068	0.012	-0.003	59.2
0.0127	-0.0068	0.009	-0.0038	59.1
0.0082	-0.0068	0.006	-0.0008	59
0	-0.0053	0.0007	-0.0008	58.9
0.0015	-0.0046	0.0015	0	58.9
0.0067	-0.0038	0.0045	-0.0008	58.8
0.0075	-0.0046	0.0045	0	58.7
0.0165	-0.006	0.0105	0	58.6
0.0165	-0.0105	0.0112	-0.0008	58.5
0.0217	-0.0128	0.0127	-0.0023	58.4
0.0202	-0.0113	0.0112	-0.0053	58.3
0.0165	-0.0098	0.0105	-0.0046	58.2
0.0172	-0.0105	0.009	-0.0046	58.1
0.009	-0.0098	0.0045	-0.0038	58
0.0082	-0.0083	0.0007	-0.0015	57.9
0.003	-0.0053	-0.006	-0.0023	57.8
0.0015	-0.0068	-0.0091	-0.0008	57.7
0.0015	-0.0091	-0.0091	-0.003	57.6
-0.0008	-0.0083	-0.0091	-0.003	57.5
-0.0023	-0.0091	-0.0091	-0.0053	57.3
-0.003	-0.0105	-0.012	-0.0068	57.2
-0.0083	-0.012	-0.0143	-0.0046	57.1
-0.0158	-0.012	-0.0158	-0.0053	57
-0.0218	-0.0105	-0.0105	-0.0015	56.9
-0.0263	-0.0091	-0.0091	-0.003	56.8
-0.0188	-0.0068	-0.012	-0.0023	56.7
-0.0143	-0.0068	-0.0135	-0.0008	56.6
-0.0105	-0.0053	-0.0158	-0.0023	56.5
-0.0083	-0.006	-0.0188	-0.0008	56.3
-0.006	-0.0053	-0.0203	0.0007	56.2
0.003	-0.0053	-0.0165	0.003	56.1
0.0105	-0.0053	-0.0046	0.0015	56
0.0142	-0.0068	0.0135	0.0007	55.9
0.0082	-0.0068	0.0307	-0.0008	55.8
0.0037	-0.003	0.0352	-0.0008	55.6
0.0067	-0.0023	0.033	0.003	55.5
0.0105	-0.003	0.0255	0.0045	55.4
0.0142	-0.003	0.018	0.003	55.3
0.009	-0.0046	0.0195	0.0015	55.2
0.0097	-0.0008	0.0225	0.0007	55.1
0.0172	0.0007	0.018	0.0007	54.9
0.0217	0.0045	0.0187	0.0007	54.9
0.0217	0.0007	0.018	0.0015	54.7
0.0172	-0.0038	0.0105	0.0045	54.6
0.009	-0.0023	0.0037	0.0022	54.5
0.009	-0.0046	-0.0053	0.0037	54.4
0.0022	-0.0053	-0.0128	0.0015	54.3
-0.0068	-0.0091	-0.0143	-0.0008	54.1
-0.0091	-0.0105	-0.0091	-0.0053	54
-0.0143	-0.0075	-0.0083	-0.0053	53.9
-0.0113	-0.0075	-0.0083	-0.0008	53.8
-0.0091	-0.006	-0.0075	0.0015	53.7
-0.0046	-0.006	-0.0113	0.0045	53.5
0.0022	-0.0068	-0.0105	0.0045	53.5
0.0015	-0.003	-0.0113	0.0052	53.3
0.0052	-0.0023	-0.0143	0.0052	53.2
0	-0.0008	-0.0113	0.0045	53.1
-0.0068	0	-0.0128	0.0082	53
-0.0053	0.0007	-0.0143	0.0105	52.8
-0.0053	0.0037	-0.0143	0.0097	52.7
0.003	0.0045	-0.0128	0.009	52.6
0.003	0.0045	-0.0053	0.0082	52.5
0.0037	0.0045	0.0015	0.006	52.3
0.0082	0.0067	0.0067	0.0052	52.2
0.0097	0.009	0.0082	0.0045	52.1
0.0195	0.009	0.0067	0.006	52
0.0142	0.012	0.0082	0.0045	51.9
0.0142	0.0127	0.009	0.0015	51.7
0.0157	0.0142	0.0097	0.0045	51.6
0.006	0.0157	0.0075	0.0015	51.5
0.003	0.012	0.0082	-0.0015	51.4
-0.0053	0.0105	0.012	-0.0015	51.3
-0.0068	0.0067	0.0142	-0.0046	51.1
-0.0091	0.0082	0.0105	-0.0046	51
-0.0158	0.0142	0.0007	-0.0015	50.8
-0.0128	0.0142	-0.0008	0.0007	50.8
-0.0113	0.0112	0.0007	-0.0008	50.6
-0.003	0.0105	-0.006	-0.0008	50.5
0.0037	0.009	-0.0105	0.0015	50.4
-0.0046	0.0082	-0.0105	0.0052	50.2
-0.0023	0.0067	-0.0135	0.0052	50.1
-0.0008	0.0067	-0.0233	0.0037	49.9
0.003	0.0052	-0.033	0.003	49.8
0.009	0.0045	-0.0315	0.003	49.7
0.0135	0.003	-0.0135	0.0015	49.5
0.0232	-0.0046	0.0082	0.0007	49.4
0.0307	-0.0068	0.0157	0	49.3
0.0337	-0.0053	0.0277	-0.0008	49.1
0.0232	-0.0038	0.0382	-0.0046	49
0.0052	-0.0008	0.0337	-0.0053	48.9
-0.0075	0.0007	0.0307	-0.0053	48.7
-0.0113	-0.0015	0.027	-0.0046	48.6
-0.012	-0.0053	0.0225	-0.0038	48.5
-0.012	-0.0083	0.0165	-0.0083	48.3
-0.0091	-0.0158	0.0202	-0.0105	48.1
-0.0143	-0.0218	0.0247	-0.012	48.1
-0.0181	-0.0256	0.0202	-0.015	48
-0.0165	-0.0293	0.0127	-0.0128	47.9
-0.0158	-0.03	0.0022	-0.0083	47.7
-0.0091	-0.0293	-0.0008	-0.0068	47.6
-0.0098	-0.0346	-0.0053	-0.0046	47.6
-0.0091	-0.042	-0.0091	-0.0053	47.4
-0.0068	-0.0413	-0.0098	-0.0053	47.3
-0.0105	-0.0315	-0.0135	-0.003	47.2
-0.015	-0.0233	-0.0181	-0.0023	47.1
-0.024	-0.0181	-0.0256	0.0007	47
-0.033	-0.0165	-0.0315	-0.0015	46.9
-0.0346	-0.0165	-0.042	-0.0015	46.8
-0.0285	-0.0158	-0.045	-0.003	46.7
-0.021	-0.0113	-0.042	-0.0015	46.6
-0.0083	-0.0046	-0.033	0.0007	46.5
0.0067	-0.0038	-0.0091	0.0007	46.3
0.0172	-0.003	0.009	-0.003	46.3
0.0202	-0.0023	0.0165	-0.0046	46.1
0.0142	-0.0008	0.0165	-0.003	46
0.018	0.0045	0.0195	-0.0023	45.9
0.0217	0.0075	0.0187	0.0015	45.8
0.0345	0.0082	0.015	0.0007	45.7
0.051	0.0052	0.0135	-0.0008	45.6
0.0435	0.0015	0.0045	-0.0008	45.4
0.0367	0.0015	0.0045	-0.0015	45.3
0.0255	-0.0015	0.006	-0.0008	45.2
0.0127	-0.0038	0.0052	-0.0015	45.1
0.012	-0.0023	0.0075	-0.003	45
0.0075	0	0.0075	-0.0038	44.9
0.0075	-0.0015	0.0052	-0.006	44.7
0.0052	-0.0053	0.0015	-0.0083	44.6
-0.0015	-0.0068	0.0015	-0.0091	44.5
-0.0008	-0.0068	-0.0023	-0.0091	44.4
-0.0038	-0.0046	-0.0068	-0.0075	44.3
-0.0046	-0.0038	-0.0105	-0.0046	44.1
0.0007	-0.0023	-0.0181	-0.0015	44.1
0.0007	0	-0.0195	-0.0015	43.9
-0.0015	-0.0008	-0.0218	-0.0046	43.8
-0.0091	-0.0015	-0.0218	-0.0015	43.6
-0.0143	-0.0023	-0.0195	-0.003	43.6
-0.015	-0.0023	-0.0203	-0.0008	43.4
-0.0158	0	-0.0165	-0.0008	43.3
-0.0053	-0.0023	-0.0195	-0.0023	43.2
0.003	-0.0046	-0.0233	-0.0023	43.1
0.0082	-0.0046	-0.024	-0.0038	42.9
0.015	-0.0068	-0.0091	-0.0008	42.8
0.0142	-0.0068	0.0157	-0.0008	42.7
0.0202	-0.0068	0.0315	-0.003	42.6
0.0232	-0.0091	0.048	-0.0038	42.4
0.0225	-0.0053	0.0555	-0.0046	42.3
0.0247	-0.0046	0.057	-0.003	42.2
0.0172	-0.0105	0.0517	-0.003	42.1
0.024	-0.012	0.036	-0.0046	41.9
0.0247	-0.0083	0.024	-0.0083	41.8
0.0157	-0.012	0.015	-0.0105	41.7
0.012	-0.0053	0.0172	-0.0113	41.5
-0.0008	0.003	0.0202	-0.0098	41.4
-0.003	-0.0083	0.012	-0.006	41.3
-0.003	-0.0053	-0.0046	-0.0038	41.1
-0.0091	0.0015	-0.0128	-0.0008	41
-0.0098	0.0052	-0.0128	0.0007	40.9
-0.0143	0.0112	-0.012	0.006	40.8
-0.0128	0.0112	-0.012	0.0067	40.7
-0.0135	0.0127	-0.012	0.006	40.5
-0.0195	0.0105	-0.012	0.009	40.5
-0.0195	0.0082	-0.012	0.0105	40.3
-0.0218	0.0067	-0.0083	0.0105	40.2
-0.0165	0.0045	-0.0068	0.0112	40.1
-0.0083	0.0045	-0.0105	0.0082	40
-0.0083	0.0015	-0.0195	0.0082	39.8
-0.0046	0.003	-0.0256	0.0082	39.7
-0.0046	0.0015	-0.0256	0.0052	39.6
-0.003	0.0015	-0.0256	0.0082	39.5
0.0015	0.0022	-0.0203	0.0067	39.3
-0.0015	0.003	-0.0195	0.0075	39.2
0.0007	0.006	-0.0128	0.0097	39.1
0.009	0.0052	0.0007	0.0082	39
0.009	0.0052	0.0112	0.0067	38.9
0.0097	0.0015	0.0165	0.0037	38.7
0.0082	-0.0023	0.0142	0.0045	38.6
0.0052	-0.0046	0.0127	0.0022	38.5
-0.003	-0.0075	0.0127	0	38.4
-0.0143	-0.003	0.015	0.0007	38.3
-0.0158	0	0.0142	0.0022	38.2
-0.0173	0.0037	0.0105	0.0052	38.1
-0.0083	0.0082	0.0142	0.003	38
0.0007	0.006	0.0232	0.0045	37.9
0.0052	0.0045	0.033	0.0045	37.8
0.0127	0.0045	0.0307	0.0015	37.7
0.006	0.003	0.0262	0.003	37.6
0	0.0015	0.0195	0.0007	37.5
-0.0008	-0.003	0.0015	0.0007	37.3
-0.0015	-0.0091	-0.0075	0	37.3
0.0082	-0.0083	-0.0173	0	37.2
0.0195	-0.003	-0.021	0.0015	37
0.0262	-0.0008	-0.0203	-0.0008	36.9
0.0345	-0.0038	-0.0158	0.0007	36.9
0.0367	-0.0053	-0.0053	-0.0023	36.7
0.033	-0.0038	-0.0008	-0.0008	36.6
0.0247	0.0007	0.0045	0.0007	36.5
0.0157	0.003	-0.0015	0.0007	36.4
0.0127	0.0067	-0.0068	0.0015	36.3
0.0067	0.009	-0.0008	-0.0008	36.1
0.0045	0.009	0	0.003	36
-0.0015	0.0105	0.0007	0.0015	35.9
-0.012	0.0082	-0.0008	-0.003	35.7
-0.0143	0.0052	-0.0113	-0.0038	35.6
-0.0218	0.0052	-0.024	-0.0038	35.5
-0.0285	0.0037	-0.0308	-0.0038	35.4
-0.0383	0.003	-0.0323	-0.0008	35.2
-0.042	0.0045	-0.0285	0.0015	35.1
-0.0293	0.0045	-0.0158	0.0015	35
-0.012	0.0067	-0.0023	0.0015	34.9
0.0157	0.0067	0.009	-0.0008	34.7
0.0517	0.0067	0.0105	-0.0008	34.6
0.0765	0.003	0.0015	-0.003	34.5
0.0825	-0.0015	-0.0015	-0.0046	34.4
0.0705	-0.0068	-0.0046	-0.0068	34.2
0.054	-0.012	-0.0068	-0.0046	34.1
0.0367	-0.012	0.0007	-0.0053	34
0.0135	-0.0203	0.0067	-0.006	33.9
-0.0015	-0.039	0.0135	-0.0023	33.7
-0.0128	-0.0578	0.015	-0.003	33.6
-0.0158	-0.0593	0.012	-0.0008	33.5
-0.0158	-0.0511	0.0105	-0.0008	33.4
-0.0203	-0.0503	0.0082	-0.0015	33.3
-0.021	-0.042	0.0127	-0.0023	33.1
-0.0158	-0.0308	0.018	-0.003	33
-0.0113	-0.0188	0.009	0.0015	32.9
-0.0053	-0.0105	-0.0008	0.0015	32.8
-0.0008	-0.0023	-0.0046	0.0015	32.7
-0.0008	0.0082	-0.0113	0.0022	32.5
-0.0015	0.012	-0.0083	-0.0008	32.4
-0.0053	0.018	0.0007	-0.003	32.3
-0.012	0.0217	0.0082	-0.003	32.2
-0.0143	0.024	0.0157	-0.003	32
-0.0143	0.0277	0.0135	-0.003	31.9
-0.0098	0.03	0.0127	-0.0046	31.8
-0.003	0.0322	0.012	-0.0053	31.6
0	0.0322	0.0165	-0.0053	31.6
-0.003	0.03	0.0285	-0.0053	31.5
-0.0158	0.027	0.021	-0.006	31.4
-0.0203	0.027	0.0097	-0.0046	31.2
-0.0158	0.0277	0.0007	-0.0015	31.1
-0.0143	0.027	-0.0053	-0.0008	31
-0.0023	0.0262	-0.0128	-0.0015	30.9
-0.0008	0.0255	-0.0233	0.003	30.8
-0.0068	0.027	-0.0158	0.0067	30.7
-0.0075	0.0285	-0.0068	0.0067	30.6
-0.0091	0.0277	-0.0015	0.0075	30.5
-0.0053	0.0292	-0.003	0.003	30.4
-0.0075	0.0472	-0.0015	0.0022	30.3
-0.0046	0.1222	0.0015	0.0075	30.1
-0.0008	0.156	0.003	0.018	30.1
0.0007	-0.0788	0.0082	0.0127	30
-0.006	-0.273	0.0127	-0.0135	29.8
-0.0128	-0.2708	0.012	-0.0053	29.7
-0.012	-0.3068	0.003	0.006	29.6
-0.0128	-0.2378	-0.0083	0.009	29.5
-0.0083	-0.2806	-0.0158	0.0247	29.4
-0.0113	-0.2423	-0.0165	0.0195	29.3
-0.0165	-0.1155	-0.0203	0.0247	29.2
-0.012	-0.0856	-0.0218	0.0142	29.1
-0.0075	0.0307	-0.0165	-0.0023	29
0.0045	0.0532	-0.0135	-0.0068	28.9
0.015	0.117	-0.006	-0.0165	28.8
0.0232	0.1395	-0.0023	-0.0181	28.7
0.0292	0.1462	-0.0023	-0.024	28.5
0.033	0.1897	-0.0023	-0.0195	28.4
0.0307	0.1747	0.0037	-0.0135	28.3
0.027	0.201	0.015	-0.0105	28.2
0.0232	0.1935	0.0165	-0.0053	28.1
0.018	0.198	0.0142	-0.0046	28
0.0142	0.1957	0.0142	-0.0008	27.9
0.0067	0.1875	0.0067	-0.0053	27.8
0.003	0.1845	0.0007	-0.0053	27.7
-0.003	0.171	-0.0053	-0.0046	27.6
-0.0053	0.1665	-0.0143	0.0007	27.4
0.0015	0.1515	-0.0128	0.0052	27.3
0.0067	0.141	-0.0135	0.0015	27.3
0.0142	0.123	-0.0158	0.0045	27.1
0.0172	0.108	-0.0143	0.0022	27
0.0172	0.0922	-0.0143	0.0007	26.9
0.0157	0.0765	-0.0015	-0.0015	26.8
0.0105	0.0637	0.0105	-0.003	26.7
0.0045	0.0457	0.024	-0.0015	26.5
0.0015	0.0315	0.039	-0.0046	26.5
-0.0015	0.0195	0.0352	-0.0046	26.3
-0.0105	0.0045	0.027	-0.0075	26.2
-0.0143	-0.0091	0.0135	-0.0053	26.1
-0.0165	-0.0158	-0.0015	-0.006	26
-0.0158	-0.0225	-0.0128	-0.0046	25.9
-0.0068	-0.0285	-0.0248	-0.0008	25.8
0	-0.0361	-0.0338	-0.0008	25.6
0.0037	-0.039	-0.0308	0	25.6
0.0097	-0.0405	-0.021	0.0015	25.4
0.009	-0.045	-0.0143	0.003	25.3
0.003	-0.0511	-0.0083	0.0007	25.2
-0.0015	-0.0578	-0.0083	-0.0015	25.1
-0.012	-0.0585	0.0022	-0.0023	25
-0.0113	-0.0615	0.0112	0.0007	24.9
-0.0008	-0.0593	0.0052	0.0045	24.8
0.0202	-0.057	0.003	0.0015	24.7
0.042	-0.0593	0.0142	0.0007	24.6
0.0382	-0.063	0.0225	-0.003	24.5
0.0315	-0.0668	0.0172	-0.0098	24.3
0.021	-0.0615	0.0202	-0.012	24.3
-0.0015	-0.0533	0.024	-0.0128	24.1
-0.0165	-0.0495	0.0285	-0.0083	24
-0.033	-0.048	0.0255	-0.003	23.9
-0.0278	-0.0465	0.0195	-0.0008	23.8
-0.0225	-0.0465	0.0142	-0.0015	23.7
-0.0203	-0.0465	-0.0008	0	23.6
-0.0068	-0.0518	-0.0278	0.003	23.5
0.003	-0.0525	-0.048	0.0015	23.4
0.012	-0.0495	-0.0278	0.0015	23.3
0.0165	-0.0495	-0.0158	0	23.2
0.0157	-0.042	0.0037	-0.0015	23
0.012	-0.012	0.03	-0.0015	22.9
0.0097	0.0427	0.0412	-0.003	22.9
0.006	0.033	0.0532	-0.006	22.8
0.0015	-0.0046	0.0502	-0.0075	22.7
-0.0015	0.0015	0.033	-0.0046	22.6
-0.0023	-0.0098	0.0127	-0.0075	22.5
-0.0046	0.0037	-0.003	-0.0105	22.4
-0.0128	-0.0135	-0.0195	-0.0083	22.3
-0.0105	-0.027	-0.0263	-0.0053	22.2
-0.0173	-0.0053	-0.0285	-0.003	22.1
-0.0181	-0.0105	-0.03	-0.0053	22
-0.012	0.0045	-0.0315	-0.0038	22
-0.0143	-0.0008	-0.033	-0.0008	21.9
-0.0075	0.0007	-0.0263	0	21.8
-0.0068	-0.0023	-0.0143	0.0007	21.7
-0.0075	-0.0098	-0.0053	0.0015	21.6
-0.0075	-0.012	-0.003	0.0045	21.5
-0.015	-0.0225	-0.003	0.0045	21.4
-0.0143	-0.0165	-0.0083	0.0082	21.3
-0.0128	-0.0165	-0.0098	0.0127	21.2
-0.0128	-0.012	-0.0083	0.0105	21.1
-0.0053	-0.0105	-0.0083	0.0105	21.1
-0.003	-0.0113	-0.0046	0.0067	21
0.0007	-0.0135	-0.0053	0.0045	20.9
0.009	-0.0158	0.0007	0.0052	20.8
0.0135	-0.0143	0.012	0.003	20.7
0.0217	-0.0165	0.0217	0.006	20.7
0.0217	-0.0128	0.024	0.0052	20.6
0.0195	-0.0128	0.0127	0.0045	20.5
0.0217	-0.0143	0.0052	0.003	20.5
0.0217	-0.0203	0.0082	0.003	20.4
0.024	-0.0285	0.0082	0.0022	20.3
0.0202	-0.03	0.006	-0.0023	20.2
0.012	-0.0315	0.0052	-0.006	20.2
0.015	-0.0256	0.0105	-0.0083	20.1
0.0127	-0.0158	0.0142	-0.0091	20
0.006	-0.0128	0.0127	-0.0091	19.9
0.0015	-0.0053	0.0157	-0.0075	19.8
-0.0038	-0.0015	0.0082	-0.0091	19.8
-0.0098	-0.0015	-0.003	-0.0091	19.7
-0.0195	-0.003	-0.0143	-0.0068	19.6
-0.027	0.0007	-0.0285	-0.0068	19.5
-0.0323	0.0187	-0.03	-0.0046	19.4
-0.0353	0.0585	-0.024	0.0007	19.3
-0.0361	0.0742	-0.0203	0.003	19.3
-0.0368	0.0532	-0.0278	0.0052	19.1
-0.033	0.0547	-0.033	0.0052	19
-0.027	0.0405	-0.0315	0.006	18.9
-0.015	0.036	-0.0308	0.0082	18.9
0.0015	0.0322	-0.0233	0.0097	18.8
0.021	0.018	-0.0158	0.009	18.7
0.045	0.0255	0.0007	0.0067	18.6
0.0682	0.0187	0.0225	0.0045	18.5
0.0712	0.027	0.0435	-0.003	18.4
0.0645	0.0075	0.0622	-0.0083	18.3
0.054	-0.0248	0.0607	-0.0098	18.2
0.0457	-0.0293	0.0525	-0.0128	18.1
0.0405	-0.0323	0.0352	-0.0143	18
0.0277	-0.0188	0.033	-0.0165	17.9
0.015	-0.0053	0.033	-0.0165	17.8
0.0007	-0.003	0.018	-0.0091	17.7
-0.0046	0.0097	0.0127	-0.006	17.6
0.0067	0.015	-0.0015	-0.0008	17.5
0.0165	0.0187	-0.0046	0.0045	17.5
0.0232	0.0247	-0.006	0.006	17.4
0.0247	0.0142	-0.0015	0.0067	17.3
0.0127	0.0045	0.0007	0.006	17.2
0.0052	-0.0181	-0.0091	0.006	17.1
-0.0046	-0.0375	-0.0113	0.0082	17.1
-0.0105	-0.0465	-0.0323	0.006	17
-0.0091	-0.0638	-0.0593	0.0052	16.9
-0.0113	-0.0675	-0.0743	0.0082	16.8
-0.003	-0.0645	-0.057	0.0075	16.7
-0.0068	-0.0593	-0.0203	0.0082	16.7
-0.0135	-0.0503	0.0015	0.009	16.6
-0.0173	-0.045	0.0142	0.0105	16.5
-0.0165	-0.039	0.0112	0.0112	16.4
-0.0068	-0.0315	0.0052	0.009	16.3
-0.0008	-0.0285	0.0045	0.0067	16.3
0.0045	-0.0256	0.0082	0.0037	16.2
0.0082	-0.0233	0.0165	0.0015	16.1
0.0097	-0.0233	0.009	0.003	16
0.0105	-0.015	0.0045	0.0015	16
0.0112	-0.0143	0.024	-0.003	15.9
0.0082	-0.0225	0.0607	-0.0068	15.8
-0.0053	-0.0233	0.0847	-0.0083	15.7
-0.0158	-0.0256	0.0622	-0.006	15.7
-0.0203	-0.0353	0.0232	-0.003	15.6
-0.024	-0.0503	-0.0091	-0.0008	15.6
-0.0233	-0.0593	-0.0308	0.0007	15.5
-0.0225	-0.0675	-0.0353	0.0015	15.4
-0.0218	-0.0878	-0.0428	0	15.3
-0.024	-0.1643	-0.0495	0	15.3
-0.0181	-0.2325	-0.0488	0.0037	15.2
-0.0091	-0.207	-0.0413	0.0045	15.1
-0.0053	-0.1898	-0.0361	0.0045	15.1
-0.003	-0.1485	-0.024	0.003	15
-0.0105	-0.084	-0.0046	0.0075	14.9
-0.0091	-0.0413	0.0105	0.0075	14.8
-0.0046	0.0255	0.0127	0.003	14.8
-0.0046	0.0577	0.012	0.003	14.7
0.0045	0.1005	0.0045	0.0022	14.7
0.0157	0.1312	-0.0091	0.003	14.6
0.0315	0.1387	-0.0015	0.0015	14.5
0.0457	0.1515	-0.0008	-0.0008	14.4
0.0405	0.15	-0.0068	-0.0023	14.4
0.0405	0.159	0.003	-0.0053	14.3
0.0345	0.1522	0.0112	-0.0068	14.3
0.0157	0.1567	0.0352	-0.0068	14.2
-0.0023	0.1567	0.048	-0.0098	14.1
-0.0293	0.1387	0.0322	-0.012	14
-0.0383	0.1267	0.0187	-0.012	14
-0.0353	0.1177	0.0112	-0.0083	13.9
-0.0256	0.123	-0.0015	-0.003	13.8
-0.0068	0.1252	-0.021	-0.003	13.8
0.006	0.1297	-0.0218	0.003	13.7
0.0195	0.1365	-0.0015	0.003	13.6
0.024	0.1335	0.0105	0.003	13.6
0.024	0.1237	0.0157	0.003	13.5
0.0157	0.1102	0.018	0.0007	13.4
0.0007	0.0975	0.018	0.0037	13.3
-0.012	0.0825	0.0127	0.003	13.3
-0.0218	0.0667	0.0045	0.0015	13.2
-0.0233	0.0435	-0.0008	-0.0008	13.2
-0.0218	0.0255	-0.0098	-0.0015	13.1
-0.0158	0.0127	-0.0195	-0.0023	13
-0.012	0	-0.0263	-0.0008	13
0.0067	-0.006	-0.0293	-0.0008	13
0.0307	-0.0195	-0.039	-0.0046	12.9
0.0382	-0.0361	-0.039	-0.0053	12.8
0.051	-0.0465	-0.015	-0.0046	12.7
0.054	-0.0518	0.0157	-0.0023	12.7
0.0435	-0.057	0.0337	-0.0046	12.6
0.0225	-0.0615	0.0345	-0.0068	12.6
-0.006	-0.0645	0.0225	-0.0083	12.5
-0.0233	-0.063	-0.0083	-0.0091	12.5
-0.0361	-0.06	-0.0233	-0.0068	12.4
-0.0346	-0.057	-0.0128	-0.006	12.3
-0.0173	-0.0533	0.0045	-0.0053	12.3
-0.0068	-0.0473	0.0315	-0.0046	12.2
-0.0068	-0.0428	0.0495	-0.003	12.1
-0.0158	-0.0428	0.0517	0.0015	12.1
-0.0293	-0.0443	0.0352	0.0045	12
-0.0368	-0.0458	0.009	0.0075	12
-0.0398	-0.0533	-0.015	0.0082	11.9
-0.0315	-0.0593	-0.0278	0.009	11.8
-0.015	-0.0503	-0.0218	0.012	11.8
0.0052	-0.042	-0.0008	0.0105	11.7
0.0307	-0.0353	0.027	0.0112	11.7
0.0375	-0.0293	0.0307	0.0082	11.6
0.0307	-0.0323	0.024	0.0007	11.6
0.0292	-0.0398	0.0105	-0.006	11.5
0.0082	-0.0585	-0.0173	-0.0128	11.4
-0.0075	-0.0653	-0.0278	-0.0091	11.4
-0.0008	-0.0706	-0.0346	-0.0091	11.3
0.0067	-0.0863	-0.0375	-0.012	11.2
0.0172	-0.0691	-0.0383	-0.0075	11.2
0.0082	-0.048	-0.0361	-0.0023	11.2
-0.0015	-0.027	-0.027	0.003	11.1
-0.0053	-0.0068	-0.0143	0.0052	11
-0.0105	-0.0008	0.0142	0.006	10.9
-0.0113	-0.0008	0.039	0.0067	10.9
-0.0083	-0.0233	0.0457	0.009	10.8
0.0075	-0.0263	0.0232	0.0082	10.8
0.0142	-0.0181	-0.0165	0.0015	10.7
0.0157	-0.0128	-0.0346	0.0007	10.7
0.0052	0.0052	-0.0256	0	10.6
0.0052	0.0142	-0.0203	-0.0015	10.5
0.0105	0.033	-0.0091	-0.0008	10.4
0.0045	0.0435	-0.0038	-0.0008	10.4
0.0157	0.042	-0.0113	0.0015	10.3
0.0105	0.042	0.0007	0.0007	10.3
0.0067	0.0337	0.012	-0.0008	10.2
-0.0015	0.0352	0.0045	0.0007	10.1
-0.0113	0.0382	-0.0165	0.003	10.1
-0.0038	0.042	-0.0383	0.006	10
0	0.0502	-0.042	0.009	9.9
0.0202	0.0555	-0.0293	0.009	9.9
0.0292	0.06	-0.0046	0.0082	9.8
0.0307	0.0555	0.0262	0.0045	9.7
0.018	0.0442	0.0465	-0.0023	9.6
-0.0113	0.0352	0.054	-0.0053	9.6
-0.027	0.0315	0.0607	-0.0046	9.5
-0.042	0.027	0.0645	-0.0015	9.4
-0.0346	0.0247	0.0532	0.0037	9.4
-0.027	0.0217	0.018	0.006	9.3
-0.0278	0.009	-0.0165	0.0045	9.3
-0.0218	-0.0173	-0.0383	0.003	9.2
0.0082	-0.0383	-0.0488	0.003	9.1
0.0525	-0.024	-0.0473	0.0007	9
0.0787	-0.012	-0.0278	-0.0023	9
0.0877	-0.0068	-0.0128	-0.0046	8.9
0.063	-0.0038	-0.0218	-0.0075	8.8
0.0397	-0.0098	-0.0143	-0.0053	8.8
0.018	0	-0.003	0.0007	8.7
0.0037	0.0045	-0.0053	0.003	8.6
0.0052	0.012	-0.006	0.0052	8.5
-0.0075	0.0165	-0.0181	0.0052	8.5
-0.003	0.009	-0.003	0.0015	8.4
-0.0188	-0.0068	0.0502	-0.0068	8.4
-0.0405	-0.0308	0.084	-0.0105	8.2
-0.0405	-0.024	0.0817	-0.0083	8.2
-0.0323	-0.0203	0.0622	-0.0083	8.1
-0.0046	-0.0165	0.048	-0.0046	8.1
0.0052	-0.0046	0.054	-0.0023	8.1
0.0142	0.006	0.0525	-0.0046	8
0.006	0.0195	0.0202	-0.0046	7.9
-0.0068	0.0247	-0.0285	-0.0046	7.9
-0.0068	0.0315	-0.0585	-0.006	7.8
-0.0143	0.03	-0.0563	-0.003	7.7
-0.0165	0.0105	-0.0436	0.0007	7.7
-0.0225	-0.0203	-0.033	0.0045	7.6
-0.0181	-0.0143	-0.0256	0.0067	7.6
-0.012	0.0015	-0.027	0.0075	7.5
-0.0053	-0.0068	-0.0165	0.0075	7.5
0.0112	0.003	0.0015	0.0045	7.4
0.024	-0.021	-0.0075	0.0007	7.3
0.0277	-0.0518	-0.0256	-0.003	7.3
0.0277	-0.066	-0.0608	-0.0053	7.2
0.0397	-0.0578	-0.0788	-0.0075	7.2
0.0465	-0.0383	-0.0645	-0.0158	7.1
0.0322	-0.039	-0.0315	-0.0225	7.1
0.0127	-0.0278	0.0315	-0.0195	7
-0.0038	-0.0203	0.063	-0.0075	7
-0.0158	-0.0015	0.0435	0.0015	6.9
-0.0143	0.0165	0.0232	0.0052	6.9
-0.0105	0.0315	0.0195	0.0075	6.8
-0.0128	0.039	0.0022	0.0082	6.8
-0.0293	0.0285	-0.0098	0.0015	6.7
-0.0511	0.009	-0.0091	-0.003	6.7
-0.0683	-0.0068	0.0097	-0.006	6.6
-0.0856	-0.0068	0.0465	-0.0075	6.6
-0.0683	-0.0023	0.0727	-0.003	6.5
-0.0503	0.0015	0.0825	-0.0046	6.5
-0.0361	-0.006	0.0517	-0.0053	6.4
-0.0068	-0.0105	0.0082	-0.0046	6.4
0.0127	-0.0083	-0.03	-0.0008	6.3
0.0397	-0.003	-0.045	0.0067	6.3
0.0667	0.0127	-0.039	0.0112	6.3
0.093	0.018	-0.0203	0.0105	6.2
0.105	0.009	0.0255	0.0052	6.1
0.078	-0.0361	0.0607	-0.0008	6.1
0.0397	-0.081	0.0645	-0.0038	6.1
0.0052	-0.063	0.0495	-0.0038	6
-0.0315	-0.039	0.0142	-0.003	5.9
-0.0495	-0.0256	-0.0555	0.0015	5.9
-0.0495	-0.003	-0.1163	0.0067	5.8
-0.0405	0.0082	-0.1388	0.0112	5.8
-0.0368	0.0202	-0.123	0.0075	5.7
-0.0375	0.0157	-0.0578	0	5.7
-0.021	0.0127	-0.003	-0.0038	5.6
0.003	0.0157	0.0262	-0.0046	5.6
0.027	0.0075	0.0517	-0.006	5.5
0.0277	0.0075	0.0937	-0.0053	5.4
0.0262	0.021	0.114	0	5.4
0.0345	0.0427	0.0757	0.003	5.3
0.0345	0.0502	0.039	0.0067	5.3
0.0255	0.045	0.0165	0.0067	5.3
0.0202	0.0367	0.0127	0.0037	5.2
0.027	0.0195	0.0082	0.0007	5.1
0.0255	0	0.0157	0	5
0.0045	-0.0405	0.0165	0.0022	5
-0.006	-0.0668	-0.0068	0.003	5
-0.003	-0.0256	-0.006	0.0045	4.9
0.003	0.0052	-0.0315	0.003	4.9
0.0067	-0.0008	-0.0263	0	4.8
0.0195	-0.0278	-0.0053	-0.0008	4.8
0.0232	-0.09	-0.0218	-0.0046	4.7
0.018	-0.0998	-0.021	-0.003	4.6
0.0142	-0.06	-0.0436	-0.0015	4.6
-0.0015	-0.0218	-0.0728	0.0015	4.5
-0.027	0.0045	-0.0728	0.009	4.5
-0.039	0.0337	-0.0495	0.012	4.4
-0.0278	0.0742	-0.0353	0.0165	4.4
-0.0053	0.1012	-0.0165	0.0157	4.3
0.0307	0.129	-0.0015	0.0142	4.2
0.0817	0.141	0.0232	0.0052	4.2
0.1155	0.1087	0.0637	-0.0181	4.1
0.0735	0.069	0.0645	-0.0293	4
0.0292	0.054	0.051	-0.0248	4
0.0157	0.0622	0.0165	-0.0165	3.9
0.012	0.0712	0.0097	-0.0068	3.9
0.0217	0.0615	0.0307	-0.0046	3.9
0.003	0.042	0.0487	-0.0068	3.8
0.0045	0.015	0.045	-0.0046	3.8
-0.0023	-0.042	0.0007	-0.0046	3.7
-0.0075	-0.0968	-0.0308	-0.0015	3.7
-0.0068	-0.063	-0.0608	0.0037	3.6
-0.0091	-0.0173	-0.0683	0.009	3.6
0.0217	0.003	-0.0578	0.0157	3.6
0.018	0.0277	-0.0548	0.0165	3.5
0.0007	0.0052	-0.0143	0.0127	3.4
-0.012	-0.03	0.0517	0.009	3.4
-0.0248	-0.0668	0.0915	0.0082	3.3
-0.0308	-0.0413	0.1065	0.0045	3.3
-0.0383	-0.0135	0.0892	-0.003	3.2
-0.0443	-0.0023	0.0105	-0.0113	3.2
-0.0585	0.039	-0.0593	-0.0143	3.1
-0.0683	0.0412	-0.105	-0.0143	3.1
-0.0706	0.0607	-0.1193	-0.0083	3.1
-0.0525	0.0652	-0.132	-0.0008	3
-0.0353	0.0442	-0.1411	0.0082	3
-0.0143	-0.0188	-0.1065	0.012	2.9
0.0217	-0.0473	-0.075	0.0112	2.9
0.0487	0.0202	-0.0105	0.0105	2.9
0.0405	0.0487	0.0495	0.0052	2.8
0.0255	0.0765	0.1147	0.003	2.8
0.024	0.0825	0.1477	-0.0091	2.7
-0.0015	0.0592	0.1027	-0.0203	2.7
-0.0263	0.0712	0.0825	-0.0233	2.6
-0.0165	0.0577	0.081	-0.0248	2.6
0.0075	0.048	0.093	-0.0158	2.6
0.027	0.0352	0.0652	-0.0128	2.6
0.0337	0.0202	0.0442	-0.0113	2.5
0.0195	0.0112	0.0615	-0.012	2.5
-0.0105	-0.0383	0.0697	-0.0128	2.4
-0.024	-0.0833	0.0352	-0.0098	2.4
-0.0338	-0.1373	-0.0195	-0.0015	2.4
-0.0368	-0.1485	-0.0353	0.0082	2.3
-0.0181	-0.1388	-0.057	0.0105	2.3
-0.0158	-0.1785	-0.042	0.0165	2.2
-0.0203	-0.0878	-0.0203	0.0165	2.2
-0.0143	0.003	-0.0383	0.0217	2.2
0.003	0.0457	-0.057	0.024	2.2
0.0412	0.111	-0.0788	0.024	2.1
0.0577	0.0465	-0.1013	0.0142	2.1
0.0427	-0.1335	-0.1148	-0.0008	2.1
0.021	-0.3638	-0.084	-0.0023	2
0.0315	-0.3825	-0.0721	-0.0046	2
0.0682	-0.222	-0.042	0.0015	2
0.072	-0.159	0.024	0.0075	1.9
0.0682	-0.0315	0.072	0.0052	1.9
0.0307	0.0855	0.0967	0.006	1.9
-0.027	0.1027	0.0727	0.0007	1.9
-0.0323	0.165	0.078	0	1.8
-0.057	0.153	0.1035	-0.0046	1.8
-0.0683	0.171	0.1425	-0.0165	1.8
-0.0518	0.1822	0.1582	-0.0181	1.8
-0.0285	0.18	0.1267	-0.0233	1.7
0.015	0.1875	0.0967	-0.027	1.7
-0.0105	0.1485	0.0405	-0.0278	1.6
-0.066	0.1575	-0.027	-0.0278	1.6
-0.0983	0.1395	-0.0818	-0.0128	1.6
-0.0938	0.1372	-0.0923	-0.0046	1.6
-0.0675	0.12	-0.0856	0.0007	1.6
-0.0518	0.1005	-0.0713	0.0067	1.6
-0.0346	0.0855	-0.0728	0.0105	1.6
-0.0285	0.0435	-0.06	0.015	1.6
-0.0105	0.0187	-0.0525	0.018	1.6
0.0045	-0.0181	-0.0458	0.0165	1.5
0.0405	-0.0233	-0.0046	0.0127	1.5
0.075	-0.0308	-0.0075	0.009	1.5
0.0705	-0.0383	0.0082	0.0075	1.5
0.066	-0.0405	-0.0165	0.0052	1.5
0.042	-0.0608	-0.0803	-0.0015	1.5
0.0217	-0.0683	-0.093	-0.006	1.4
0.006	-0.1006	-0.1185	-0.0113	1.4
-0.0233	-0.1118	-0.126	-0.0105	1.4
-0.0263	-0.1065	-0.0885	-0.003	1.4
-0.0046	-0.1013	-0.0668	0.0082	1.4
0.0195	-0.0788	-0.0518	0.0112	1.3
0.0517	-0.078	-0.0256	0.0097	1.3
0.093	-0.0555	0.0202	0.009	1.3
0.1177	-0.0353	0.1155	0.0045	1.3
0.1125	-0.024	0.1477	0.003	1.3
0.084	-0.0008	0.1365	0.0007	1.3
0.0502	0.003	0.15	0.003	1.3
0.0337	-0.0008	0.1372	-0.003	1.3
0.0375	-0.0165	0.1042	-0.0143	1.3
0.024	-0.0263	0.0615	-0.021	1.3
0.0157	-0.0383	-0.0293	-0.0248	1.3
0.0127	-0.0878	-0.1193	-0.0165	1.3
-0.0015	-0.1418	-0.1268	-0.012	1.2
-0.033	-0.1545	-0.1208	-0.0068	1.2
-0.0683	-0.1373	-0.0458	0.006	1.2
-0.0518	-0.117	0.1425	0.012	1.2
-0.0511	-0.0878	0.3232	0.0097	1.2
-0.0578	-0.0788	0.3015	0.0045	1.2
-0.057	-0.0698	0.1215	-0.0046	1.2
-0.063	-0.0315	-0.0158	-0.0068	1.1
-0.0225	-0.0046	-0.1298	-0.0068	1.1
-0.021	0.0037	-0.1568	-0.0068	1.1
-0.039	-0.0128	-0.135	-0.0008	1.1
-0.0308	-0.0308	-0.1463	0.003	1.1
-0.0181	-0.0353	-0.1373	0.009	1.1
0.0075	-0.0495	-0.1021	0.0127	1.1
-0.0015	-0.0683	-0.0548	0.0142	1.1
-0.0068	-0.09	-0.0225	0.015	1.1
0.0195	-0.0915	-0.0233	0.0105	1.1
0.072	-0.0818	-0.0083	0.0067	1.1
0.0975	-0.075	0.0592	-0.0008	1
0.0795	-0.078	0.1365	-0.003	1
0.0772	-0.075	0.1635	0.0045	1
0.081	-0.0645	0.0982	0.0105	1
0.078	-0.0713	0.0712	0.0082	1
0.0097	-0.0698	0.0585	0.0007	1
-0.0728	-0.057	0.0675	-0.0015	1
-0.0848	-0.0503	0.1102	0.0007	1
-0.0818	-0.0428	0.006	-0.0015	1
-0.0908	-0.0443	-0.1118	-0.003	1
-0.0818	-0.0533	-0.1673	-0.0046	0.9
-0.0563	-0.06	-0.2011	-0.003	0.9
-0.0383	-0.0721	-0.2011	-0.0053	0.9
-0.0623	-0.0818	-0.1741	-0.0053	0.9
-0.093	-0.0953	-0.1155	-0.0008	0.9
-0.0713	-0.1095	-0.0083	0.0015	0.9
-0.0383	-0.1208	0.033	0.0052	0.9
0.0045	-0.1178	-0.0743	0.0127	0.9
0.042	-0.0983	-0.0975	0.0157	0.9
0.0667	-0.0893	-0.0293	0.006	0.9
0.0915	-0.075	0.0937	-0.0046	0.9
0.0952	-0.0728	0.2175	-0.0143	0.9
0.129	-0.0758	0.1972	-0.024	0.9
0.1275	-0.075	0.117	-0.0256	0.9
0.0877	-0.0706	0.0592	-0.0173	0.9
0.0615	-0.0405	0.0517	-0.0105	0.9
0.0225	-0.0195	0.054	-0.012	0.9
0.0037	-0.003	0.0517	-0.0143	0.9
-0.0256	-0.0008	0.0345	-0.0083	0.9
-0.0706	0.0007	0.0112	0.0022	0.9
-0.105	0.0127	-0.0068	0.0082	0.9
-0.1088	0.0127	-0.039	0.0142	0.9
-0.0825	0.0105	-0.0361	0.0202	0.9
-0.0308	0.0015	-0.0225	0.018	0.9
0.0112	0.0112	-0.0225	0.0172	0.9
0.0345	0.0315	-0.003	0.0165	0.9
0.0652	0.0592	0.0247	0.0157	0.9
0.0525	0.084	0.0975	0.0045	0.9
0.0135	0.0675	0.1987	-0.0068	0.9
-0.0256	0.0592	0.2062	-0.006	0.9
-0.0465	0.0727	0.1117	-0.003	0.9
-0.0368	0.0967	-0.0181	0.003	0.9
0.0315	0.126	-0.147	0.0082	0.9
0.1027	0.1335	-0.2115	0.0015	0.9
0.0645	0.1365	-0.213	-0.0105	0.9
0.003	0.111	-0.159	-0.0158	0.9
-0.0315	0.105	-0.0968	-0.0083	0.9
-0.0375	0.1252	-0.0383	-0.0091	0.9
0.0255	0.12	-0.003	-0.0128	0.9
0.0472	0.117	0.0225	-0.0158	0.9
0.0157	0.1095	0.0082	-0.0143	0.9
-0.0023	0.1095	-0.0518	-0.0038	0.9
-0.027	0.1012	-0.0691	-0.0008	0.9
-0.0361	0.0885	-0.0668	0.0045	0.9
-0.0473	0.0892	-0.0075	0.003	0.9
-0.0511	0.0802	0.0675	-0.0023	0.9
-0.0165	0.0892	0.105	0.003	0.9
0.0052	0.1065	0.1275	0.0037	0.9
-0.0015	0.1072	0.0885	0.003	0.9
-0.0046	0.1065	0.0067	0.0015	0.9
-0.0233	0.1132	-0.0706	0.0015	0.9
-0.033	0.1155	-0.1411	0.0007	0.9
-0.0413	0.1087	-0.1485	-0.0046	0.9
-0.063	0.1027	-0.1035	0.0045	0.9
-0.0615	0.1072	-0.084	0.0142	0.9
-0.0645	0.1057	-0.0653	0.0187	0.9
-0.0256	0.1057	-0.081	0.018	0.9
0.0067	0.1155	-0.066	0.0157	0.9
0.0037	0.1162	0.0255	0.018	0.9
0.0405	0.1065	0.1447	0.0067	0.9
0.081	0.075	0.195	-0.0046	0.9
0.0847	0.0555	0.1822	-0.0068	0.9
0.0952	0.0577	0.1965	-0.0083	0.9
0.099	0.0442	0.135	-0.0158	0.9
0.063	0.0412	0.1042	-0.0218	0.9
0.066	0.0517	0.0277	-0.0181	0.9
0.0615	0.0615	-0.0338	-0.0195	0.9
0.0345	0.0645	0.045	-0.0143	0.9
0.0127	0.057	0.027	-0.0046	0.9
0.0255	0.0607	-0.039	0.0045	0.9
0.0592	0.066	-0.0593	0.0127	1
0.0367	0.0682	0.024	0.0217	1
0.0465	0.0787	0.0765	0.0247	1
0.0607	0.0765	0.018	0.018	1
0.033	0.0712	-0.048	0.0082	1
-0.0233	0.0375	-0.0758	-0.0181	1
-0.096	-0.0098	0.0367	-0.0285	1
-0.0983	0.0112	0.0667	-0.0195	1
-0.0728	0.0262	-0.0105	-0.0233	1
-0.0668	0.0307	-0.0203	-0.0158	1
-0.096	0.0457	-0.0555	-0.021	1
-0.1006	0.021	-0.0675	-0.0248	1
-0.0315	0.0225	-0.0361	-0.0113	1
-0.0075	0.033	-0.0728	-0.0046	1
-0.0015	0.0405	-0.1028	0.0045	1
-0.0181	0.042	-0.0773	0.0105	1
-0.0465	0.0382	-0.0713	0.0247	1
-0.0473	0.0427	-0.078	0.0345	1
-0.033	0.0397	-0.1035	0.0412	1.1
0.039	0.048	-0.0878	0.0532	1.1
0.1275	0.0555	0.0015	0.054	1.1
0.1927	0.0592	0.0802	0.0465	1.1
0.2362	0.0615	0.1252	0.0255	1.1
0.2242	0.0502	0.132	-0.0053	1.1
0.159	0.018	0.1432	-0.0278	1.1
0.0427	-0.0143	0.1507	-0.0473	1.1
-0.1088	-0.0315	0.093	-0.0548	1.1
-0.1988	-0.0383	0.033	-0.0428	1.1
-0.2108	-0.0315	-0.003	-0.0368	1.2
-0.189	-0.0293	-0.0353	-0.033	1.2
-0.1718	-0.0293	-0.042	-0.0256	1.2
-0.156	-0.0233	-0.0548	-0.0143	1.2
-0.126	-0.0181	-0.0585	-0.0053	1.2
-0.0885	-0.0158	-0.0398	0.0052	1.2
-0.0135	-0.0128	-0.0165	0.0142	1.2
0.0472	-0.0135	-0.0293	0.015	1.2
0.0592	-0.0105	-0.0915	0.018	1.2
0.042	-0.012	-0.1313	0.018	1.2
0.0367	-0.0158	-0.1388	0.0195	1.2
0.0532	-0.0203	-0.1253	0.0202	1.2
0.0742	-0.0233	-0.0706	0.021	1.2
0.1087	-0.0225	0.0165	0.0142	1.2
0.1035	-0.027	0.1282	0.0015	1.2
0.0652	-0.027	0.2482	-0.0046	1.2
0.0307	-0.024	0.2797	-0.0113	1.2
-0.012	-0.0278	0.2017	-0.0203	1.3
-0.0465	-0.042	0.0622	-0.0203	1.3
-0.0533	-0.0383	-0.0046	-0.0083	1.3
-0.0135	-0.0233	-0.0323	0.0045	1.3
0.0352	-0.0218	-0.0615	0.009	1.3
0.0697	-0.0218	-0.015	0.0135	1.3
0.0615	-0.0256	-0.021	0.0067	1.3
0	-0.0256	-0.0473	0.0007	1.3
-0.0361	-0.021	-0.0765	0.003	1.3
-0.0075	-0.0308	-0.0713	-0.0008	1.3
0.0735	-0.0443	0.0285	-0.0046	1.3
0.1267	-0.054	0.1192	-0.0091	1.3
0.159	-0.0518	0.1027	-0.0053	1.3
0.2062	-0.0368	0.027	0.0015	1.3
0.1627	-0.0293	0.012	0.0037	1.3
0.0472	-0.0346	-0.054	0.003	1.3
-0.0721	-0.0495	-0.099	-0.0023	1.3
-0.1433	-0.0465	-0.0721	0	1.3
-0.1433	-0.0405	-0.0368	-0.0083	1.3
-0.1275	-0.0488	-0.0046	-0.0143	1.3
-0.06	-0.0368	-0.0188	-0.015	1.3
-0.024	-0.0308	-0.012	-0.021	1.3
-0.057	-0.03	-0.012	-0.0173	1.3
-0.0945	-0.024	-0.033	-0.006	1.3
-0.108	-0.0195	-0.0683	0.0052	1.3
-0.0915	-0.0158	-0.0908	0.0142	1.3
-0.0691	-0.0218	-0.033	0.018	1.3
-0.0181	-0.024	-0.024	0.0135	1.3
0.0202	-0.0128	-0.0195	0.0015	1.3
0.069	-0.0053	-0.057	-0.0083	1.3
0.108	-0.0105	-0.1711	-0.0083	1.3
0.1087	-0.012	-0.1741	-0.0038	1.3
0.1387	-0.012	-0.1928	-0.0008	1.3
0.129	-0.012	-0.1125	-0.0075	1.3
0.0825	-0.0128	0.105	-0.0135	1.3
0.048	-0.0143	0.2887	-0.0233	1.3
-0.0361	-0.0181	0.3645	-0.0315	1.3
-0.1455	-0.0181	0.2422	-0.0256	1.3
-0.1875	-0.0165	0.0945	-0.0203	1.3
-0.1703	-0.0218	-0.0691	-0.0083	1.3
-0.1155	-0.006	-0.1838	0.0037	1.3
-0.0495	0.0082	-0.1508	0.0172	1.3
0.0067	0.0247	-0.0788	0.033	1.3
0.063	0.039	0.0187	0.0315	1.3
0.0855	0.0292	0.0915	0.024	1.3
0.0382	0.0232	0.1545	0.0112	1.3
-0.0233	0.0142	0.1762	0.0015	1.3
-0.0728	0.012	0.1215	-0.0015	1.3
-0.1021	0.003	0.0427	-0.0008	1.3
-0.0953	-0.0015	-0.027	0.0082	1.3
-0.0833	0.0045	-0.048	0.0127	1.4
-0.0428	-0.0038	-0.042	0.0195	1.4
-0.0256	-0.0015	0.003	0.0202	1.4
-0.003	-0.003	0.0367	0.0157	1.4
0.063	-0.0075	0.0105	0.0127	1.4
0.0705	-0.0068	0.0037	0.0112	1.4
0.042	-0.0053	0.0367	0.009	1.4
0.0277	-0.0023	0.0675	0.0127	1.4
0.0465	-0.0015	0.1102	0.024	1.4
0.1147	-0.0015	0.255	0.0232	1.4
0.129	-0.0248	0.3217	0.0082	1.4
0.0952	-0.045	0.159	-0.0023	1.4
0.1087	-0.0443	-0.0195	-0.0083	1.4
0.1402	-0.048	-0.2363	-0.024	1.4
0.15	-0.0473	-0.3585	-0.039	1.4
0.102	-0.0495	-0.3105	-0.0458	1.4
0.054	-0.0615	-0.2985	-0.0465	1.4
0.0217	-0.0691	-0.2108	-0.0375	1.4
-0.0165	-0.0608	-0.1538	-0.0203	1.4
-0.0608	-0.0473	-0.1575	-0.0053	1.4
-0.093	-0.0413	-0.0908	0.0067	1.4
-0.0368	-0.0405	0.0802	0.0195	1.4
0.0382	-0.0375	0.2677	0.027	1.4
0.0577	-0.0256	0.2932	0.033	1.4
0.0742	-0.0091	0.24	0.033	1.4
0.0435	0.0022	0.0922	0.0202	1.4
0.0105	-0.0075	-0.033	-0.0008	1.4
-0.0278	-0.0293	-0.123	-0.0256	1.4
-0.15	-0.0398	-0.2123	-0.033	1.4
-0.2085	-0.045	-0.1838	-0.0308	1.4
-0.1763	-0.0495	-0.15	-0.027	1.4
-0.1275	-0.0495	-0.096	-0.0203	1.4
-0.1125	-0.042	-0.021	-0.0068	1.4
-0.0968	-0.0285	0.0307	0.0052	1.4
-0.0871	-0.024	0.0352	0.0135	1.4
-0.081	-0.0278	-0.0173	0.021	1.4
-0.0188	-0.0233	-0.033	0.027	1.4
0.0442	-0.0105	-0.0375	0.027	1.4
0.1155	-0.012	-0.0488	0.0247	1.4
0.1485	-0.0091	0.0045	0.0255	1.4
0.1417	-0.0023	0.099	0.0217	1.4
0.1417	0.0045	0.1545	0.0165	1.4
0.1117	0.0075	0.1822	0.0015	1.4
0.06	-0.012	0.1785	-0.0195	1.4
-0.0353	-0.0346	0.1177	-0.0353	1.4
-0.1088	-0.0413	0.078	-0.0353	1.4
-0.111	-0.0285	0.0525	-0.0256	1.4
-0.0878	-0.0181	0.0652	-0.0181	1.4
-0.0458	-0.0128	0.1057	-0.006	1.4
-0.0315	-0.0143	0.1095	-0.0023	1.4
-0.0008	-0.0098	0.1192	0.0067	1.4
0.0195	0.0007	0.0502	0.009	1.4
0.018	-0.0046	-0.057	0.0015	1.4
0.024	-0.0105	-0.12	0.0007	1.4
0.0067	-0.0143	-0.159	-0.0008	1.4
0.0157	-0.0083	-0.1335	0.0082	1.3
0.0232	-0.0015	-0.1305	0.0187	1.3
0.0555	0.003	-0.1215	0.024	1.3
0.0967	0.0037	-0.042	0.027	1.3
0.099	-0.0053	0.0075	0.0195	1.3
0.0982	0.0007	0.018	0.0142	1.3
0.0652	0.0105	0.0142	0.012	1.3
0.0307	0.0135	0.0127	0.0022	1.3
-0.0015	-0.0105	0.1042	-0.015	1.3
-0.039	-0.0346	0.2392	-0.0256	1.3
-0.0293	-0.0263	0.2047	-0.0293	1.3
-0.0195	-0.0293	0.0135	-0.021	1.3
-0.0563	-0.0128	-0.1013	-0.0083	1.3
-0.0743	-0.0008	-0.0953	-0.0023	1.3
-0.0863	-0.0015	-0.0083	0.0052	1.3
-0.1245	0.0015	0.039	0.003	1.3
-0.1313	-0.0053	-0.006	0.0045	1.3
-0.0788	0.0007	-0.0428	0.0015	1.3
-0.0023	-0.0046	-0.0818	-0.0083	1.3
0.078	0.0015	-0.1283	-0.0135	1.3
0.129	0.0015	-0.1403	-0.0233	1.2
0.144	-0.0098	-0.0915	-0.0248	1.2
0.1447	-0.0083	-0.1155	-0.0218	1.2
0.1177	-0.0165	-0.1148	-0.0083	1.2
0.1177	-0.0053	-0.0578	0.0022	1.2
0.0607	0.0067	-0.0743	0.006	1.2
-0.0165	0.0052	-0.0458	0.0052	1.2
-0.0691	0	-0.0443	-0.0015	1.2
-0.0968	-0.0008	-0.0436	0.0037	1.2
-0.0915	-0.0046	-0.0533	0.0045	1.2
-0.078	-0.0046	-0.0675	0.003	1.3
-0.0188	0.0045	-0.0008	0.0082	1.3
-0.0113	0.0067	0.0742	0.0135	1.3
0.0352	0.0157	0.2062	0.018	1.3
0.072	0.0165	0.3022	0.012	1.3
0.033	0.0142	0.2692	0.0157	1.3
0.021	0.0195	0.2025	0.0195	1.3
0.0022	0.0187	0.1402	0.0142	1.3
0.006	0.018	0.0585	0.0045	1.3
0.0352	0.0127	-0.0428	-0.0008	1.3
0.0802	0.021	-0.0938	0.0007	1.3
0.1057	0.033	-0.0953	-0.0046	1.3
0.0765	0.0232	-0.042	-0.0105	1.3
0.0435	0.0105	0.0172	-0.0143	1.3
-0.0128	-0.006	0.0247	-0.0173	1.3
-0.0923	-0.0195	0.0277	-0.0203	1.3
-0.1515	-0.0038	0	-0.0143	1.3
-0.1635	0.0007	-0.0293	-0.0105	1.3
-0.1441	0.0037	-0.0128	-0.006	1.3
-0.1133	0.0165	-0.048	-0.0008	1.3
-0.078	0.0112	-0.081	0.0045	1.3
-0.0308	0.0165	-0.1043	0.012	1.3
-0.003	0.0135	-0.162	0.012	1.3
0.0405	0.0157	-0.1515	0.0165	1.3
0.0915	0.0217	-0.0893	0.018	1.3
0.09	0.0232	-0.006	0.0157	1.3
0.0892	0.0195	0.1162	0.0112	1.3
0.057	0.0067	0.186	0.0022	1.3
0.0495	0.0052	0.1485	-0.0053	1.3
0.0495	0.0022	0.1192	-0.0143	1.3
0.0195	0.0022	0.0465	-0.027	1.2
-0.0053	-0.0098	0.003	-0.0361	1.2
-0.0548	-0.0203	-0.0015	-0.0368	1.2
-0.0728	-0.0158	-0.0795	-0.0278	1.2
-0.0788	-0.0053	-0.0653	-0.0105	1.2
-0.0615	0.0105	-0.0578	0.003	1.3
-0.021	0.0157	-0.0518	0.0142	1.3
-0.0075	0.015	0.0232	0.0142	1.3
-0.0053	0.012	0.0172	0.0127	1.3
0.0067	0.015	0.0142	0.0187	1.3
0.009	0.0225	0.0495	0.0165	1.3
0.003	0.0247	0.0165	0.0112	1.3
-0.006	0.0142	-0.048	-0.003	1.3
-0.0143	-0.0008	-0.0645	-0.0038	1.3
0.0127	0.0045	-0.0773	-0.0053	1.3
0.0337	0.0007	-0.0743	-0.0053	1.3
0.0555	0.0082	-0.042	0.0082	1.3
0.0645	0.0202	0.0217	0.0045	1.3
0.0337	0.0202	0.0975	-0.0008	1.3
0.027	0.0232	0.12	-0.0046	1.3
0.0225	0.0165	0.0937	-0.006	1.3
0.006	0.0195	0.0675	-0.0053	1.3
-0.0068	0.0127	0.0255	-0.0053	1.3
-0.0158	0.0127	-0.0368	-0.0091	1.3
-0.0083	0.0142	-0.0503	-0.0091	1.3
0.0105	0.0067	-0.0683	-0.006	1.3
0.0187	0.0007	-0.0765	-0.0053	1.3
0.0525	-0.0105	-0.0488	0.0015	1.3
0.0907	-0.0023	-0.0218	0.0082	1.3
0.0795	0.0052	0.003	0.012	1.3
0.0727	0.0037	-0.0023	0.0105	1.3
0.0525	0.0045	0.0105	0.0052	1.3
0.0052	0.0007	0.0607	0.0022	1.3
-0.03	-0.0046	0.0772	0.0022	1.3
-0.0443	-0.0023	0.048	0.0037	1.3
-0.0465	-0.0046	0.0007	0.003	1.3
-0.0555	-0.003	-0.0518	0.006	1.3
-0.066	0.0015	-0.0548	0.0067	1.3
-0.081	0.0037	-0.0443	0.0082	1.3
-0.0803	0.003	-0.0698	0.006	1.3
-0.0856	-0.0068	-0.0578	-0.0008	1.3
-0.0818	-0.0105	0.0127	-0.003	1.3
-0.0375	-0.0135	0.048	-0.0046	1.3
-0.0083	-0.0158	0.006	-0.0053	1.3
0.0195	-0.0113	-0.0225	-0.0068	1.3
0.0367	-0.0143	-0.003	-0.015	1.3
0.0487	-0.0233	0.0195	-0.0173	1.3
0.0465	-0.0233	0.042	-0.0098	1.3
0.0217	-0.0091	0.0352	-0.0015	1.3
0.009	-0.0083	0.0127	0.003	1.3
-0.0008	-0.0068	0.0315	0.0052	1.3
0.0097	-0.003	0.0405	0.006	1.3
0.0045	0.0007	0.0225	0.0105	1.3
-0.0158	0.0067	-0.0353	0.012	1.3
-0.0195	0.0022	-0.084	0.0097	1.3
-0.012	0.006	-0.0825	0.009	1.3
0.006	0.0142	-0.042	0.0067	1.3
0.024	0.0187	0.0292	0.0052	1.3
0.0532	0.0135	0.0585	-0.006	1.3
0.036	0.0052	0.0967	-0.0113	1.3
0.0217	0.0007	0.1072	-0.0128	1.3
0.0382	-0.003	0.0735	-0.0158	1.3
0.0375	0.0007	0.0457	-0.0158	1.3
0.0367	0.0045	-0.0038	-0.0158	1.3
0.0165	0.0052	0.0007	-0.012	1.3
0.0015	0.0045	0.0292	-0.0068	1.3
-0.0165	0.003	0.018	-0.0046	1.3
-0.0195	0.0045	-0.015	-0.0015	1.3
-0.0008	0.0097	-0.0428	0.0015	1.3
-0.0091	0.0082	-0.0533	0.0037	1.3
-0.0091	0.0082	-0.057	0.0082	1.3
-0.0143	0.0112	-0.0713	0.012	1.3
-0.0165	0.0082	-0.078	0.0157	1.3
-0.0015	0.009	-0.054	0.015	1.3
0.0067	0.006	-0.0165	0.0165	1.3
0.0315	0.0082	0.018	0.0142	1.4
0.0405	0.006	0.0502	0.0052	1.4
0.0457	0.0015	0.066	-0.0008	1.4
0.0345	0.0007	0.036	-0.0098	1.4
0	-0.0083	0.0187	-0.012	1.4
-0.0105	-0.0098	-0.0173	-0.0105	1.4
-0.0143	-0.0068	-0.057	-0.006	1.4
-0.0181	-0.0023	-0.0668	0.0052	1.4
-0.021	0	-0.0465	0.0105	1.4
0.0067	-0.0015	0.0382	0.0165	1.4
0.0307	0.0067	0.1005	0.0142	1.4
0.012	0.0082	0.099	0.006	1.4
-0.0173	0.0052	0.0202	-0.003	1.4
-0.0361	0.0022	-0.0308	-0.0135	1.4
-0.027	-0.0008	-0.003	-0.0188	1.4
-0.0293	-0.0015	-0.0293	-0.0195	1.4
-0.0165	-0.003	-0.0488	-0.0091	1.4
0.0037	0.003	-0.0368	-0.006	1.4
0.0217	-0.003	-0.0203	-0.0098	1.4
-0.0068	-0.0233	0.0217	-0.015	1.4
-0.0765	-0.0248	0.0292	-0.0158	1.4
-0.0856	-0.0113	0.009	-0.006	1.4
-0.0765	-0.0046	0.0037	0.0015	1.4
-0.0308	-0.0015	0.0082	0.0067	1.4
0.0052	-0.0083	0.0322	0.006	1.4
0.0217	-0.0105	0.039	0.0097	1.4
0.0532	-0.0038	0.021	0.0127	1.4
0.0667	0	0.0045	0.0105	1.4
0.0592	0.0045	-0.0046	0.0112	1.4
0.0277	0.006	-0.0188	0.0045	1.4
0.0105	0.0097	-0.0315	0.0015	1.4
-0.0105	0.0157	-0.0015	0.0022	1.4
-0.0346	0.009	-0.0158	-0.0015	1.4
-0.027	0.0007	-0.0315	-0.0053	1.4
-0.0181	-0.003	-0.0188	-0.0046	1.4
-0.0083	-0.0008	-0.0256	-0.0023	1.4
0.0097	0.006	-0.0233	-0.0008	1.4
0.0232	0.0082	-0.027	0.0015	1.4
0.0202	0.0105	0.0015	0.003	1.4
0.015	0.0105	0.012	0.0022	1.4
0.0157	0.0045	0.012	-0.003	1.4
0.0165	-0.0015	0.033	-0.0068	1.4
0.0075	-0.0038	0.0202	-0.0023	1.4
0.003	-0.0008	-0.006	0.0052	1.4
0.0165	0.0015	-0.0158	0.0052	1.4
0.0307	0.0045	0.0075	0.003	1.3
0.0495	0.0082	0.0277	-0.0008	1.3
0.0622	0.0082	0.0157	-0.0091	1.3
0.039	0.0052	0.003	-0.0105	1.3
-0.003	0.0037	0.0217	-0.012	1.3
-0.0218	-0.0046	0.0645	-0.0075	1.3
-0.0218	-0.0015	0.0735	-0.0015	1.3
-0.0233	0.0052	0.0225	0.0007	1.3
-0.0105	0.003	-0.0068	0.0045	1.3
-0.0091	0.0045	-0.0383	0.0015	1.3
-0.012	0.003	-0.075	0.0045	1.4
-0.012	0.003	-0.0773	0.0097	1.4
-0.0173	0.0067	-0.0668	0.009	1.4
-0.0098	0.0075	-0.03	0.0082	1.4
-0.0098	0.009	-0.0091	0.0067	1.4
0.0045	0.0105	0.0037	0.003	1.4
0.012	0.012	0.0007	0.0007	1.4
0.018	0.0052	-0.0091	-0.0023	1.4
0.0187	-0.0053	-0.003	-0.003	1.4
-0.0015	-0.0046	-0.0008	-0.0046	1.4
0.009	-0.0046	0.0217	-0.0083	1.4
0.0112	-0.0105	0.0232	-0.012	1.4
-0.003	-0.0105	0.024	-0.0128	1.4
-0.0263	-0.0105	0.0345	-0.0113	1.4
-0.0593	-0.0091	0.0172	-0.0083	1.4
-0.054	-0.0083	-0.003	0.0007	1.4
-0.0263	-0.0083	-0.0233	0.0067	1.4
0.0217	-0.0068	-0.0346	0.0082	1.4
0.0682	-0.0046	-0.0346	0.009	1.4
0.084	0.0015	-0.0225	0.0082	1.4
0.0855	0.0045	0.0165	0.0097	1.4
0.069	0.0052	0.0727	0.0037	1.4
0.027	-0.0038	0.1222	-0.0075	1.4
-0.0256	-0.0203	0.093	-0.0143	1.4
-0.0518	-0.0233	0.0165	-0.0165	1.4
-0.0668	-0.0233	0.0045	-0.0143	1.4
-0.0578	-0.0248	-0.0158	-0.0068	1.4
-0.033	-0.0165	-0.039	0.0007	1.4
-0.021	-0.0165	-0.0293	0.0007	1.4
-0.0105	-0.0113	-0.0315	0.0015	1.4
-0.0158	-0.0105	-0.0091	0.003	1.3
-0.0135	-0.0105	0.0127	0.003	1.3
-0.0068	-0.0053	-0.0083	0.0052	1.3
0.0037	-0.0083	-0.0248	0.0067	1.4
0.0217	-0.0015	-0.0511	0.012	1.4
0.0232	0.0022	-0.0563	0.0105	1.4
0.0217	-0.0015	-0.0218	0.0075	1.4
0.0142	-0.0015	0.0052	0.0067	1.4
0.0292	0.0015	0.0495	0.009	1.4
0.048	0.012	0.0412	0.0105	1.4
0.0352	0.0067	0.027	0.0015	1.4
0.024	-0.0075	0.033	-0.0053	1.4
0.006	-0.0128	-0.0038	-0.0098	1.4
-0.0091	-0.0098	-0.0165	-0.0105	1.5
-0.0368	0.0007	-0.024	-0.0053	1.5
-0.0488	0.0015	-0.0128	-0.0053	1.5
-0.039	-0.0015	0.0187	-0.0083	1.5
-0.039	-0.0015	0.0172	-0.0083	1.5
-0.0015	-0.003	0.0067	-0.003	1.5
0.0262	0.0015	0.0157	-0.0023	1.5
0.0517	0.0052	0.003	-0.0023	1.5
0.069	0.003	-0.0165	-0.0038	1.5
0.0555	0.0015	-0.0278	-0.0015	1.6
0.0465	0.0067	-0.0398	0.0015	1.6
0.0232	0.0082	-0.0143	0.0015	1.6
0.0105	0.0082	0.0022	0.006	1.6
-0.0091	0.0112	0.009	0.0045	1.6
-0.0338	0.0112	0.0232	0.003	1.6
-0.0315	0.015	0.0165	0.0052	1.6
-0.0293	0.0157	-0.0046	0.0075	1.7
-0.0143	0.018	-0.027	0.012	1.7
0.0157	0.0217	-0.0383	0.009	1.7
0.0277	0.0247	-0.0458	0.0097	1.7
0.0187	0.0247	-0.045	0.0067	1.7
-0.0008	0.0232	-0.0405	0.0067	1.7
-0.0083	0.027	-0.0165	0.0067	1.8
-0.0143	0.0262	0.0187	0	1.8
-0.0248	0.0165	0.0607	-0.0015	1.8
-0.0375	0.0082	0.108	-0.0098	1.8
-0.0443	0.0067	0.1057	-0.0135	1.8
-0.0203	0.0067	0.0645	-0.0158	1.8
-0.0015	0.003	0.0405	-0.0173	1.8
0.0135	0.0082	0.0127	-0.0113	1.8
0.015	0.0127	-0.0143	-0.0091	1.8
0.0045	0.0097	-0.0218	-0.0083	1.8
-0.0083	0.0105	-0.0315	-0.0015	1.8
-0.0218	0.012	-0.0195	0.0037	1.8
-0.0315	0.0127	-0.0128	0.006	1.8
-0.0533	0.012	-0.012	0.0097	1.8
-0.0608	0.012	-0.0248	0.0127	1.8
-0.0428	0.0142	-0.0443	0.0172	1.8
0.0285	0.0172	-0.0436	0.0157	1.8
0.1057	0.0165	-0.0338	0.0082	1.8
0.156	0.012	-0.0203	-0.0015	1.8
0.1747	0.0067	-0.0346	-0.0143	1.8
0.093	-0.0053	-0.0195	-0.0173	1.8
-0.012	-0.0165	0.0105	-0.0188	1.8
-0.063	-0.0195	0.003	-0.0158	1.8
-0.078	-0.0165	0.021	-0.0053	1.8
-0.0436	-0.0113	0.0585	-0.0008	1.8
-0.0225	-0.0091	0.0825	-0.0008	1.7
-0.0038	-0.0105	0.0742	0.0007	1.7
0.0202	-0.0091	0.0517	0.0045	1.7
0.0195	-0.0053	0.0195	0.0052	1.7
0.0255	-0.0068	-0.0225	0.0052	1.7
0.018	-0.0105	-0.0458	0.0067	1.7
0.0127	-0.015	-0.042	0.0067	1.7
-0.0015	-0.015	-0.033	0.0082	1.7
-0.0135	-0.0135	-0.0308	0.0045	1.7
-0.0143	-0.0158	-0.033	-0.0015	1.7
-0.0203	-0.012	-0.024	-0.003	1.7
0.0007	-0.0113	0.0007	-0.0038	1.7
0.0202	-0.0091	0.0232	-0.0046	1.7
0.036	-0.0091	0.0127	-0.0053	1.7
0.0495	-0.0098	-0.0015	-0.003	1.7
0.0405	-0.0128	0.012	0.0015	1.7
0.033	-0.0158	0.0052	-0.0008	1.7
0.0165	-0.0135	-0.0225	-0.0015	1.7
-0.0008	-0.0181	-0.0428	-0.0015	1.7
0.0007	-0.0195	-0.0555	-0.0023	1.7
-0.0046	-0.0165	-0.0225	0.0015	1.6
0.0007	-0.0173	0.0427	0.0045	1.6
0.0052	-0.0203	0.0577	-0.003	1.6
-0.0098	-0.0256	0.0427	-0.0098	1.6
-0.021	-0.0278	0.0375	-0.0083	1.7
-0.0405	-0.03	0.0217	-0.0068	1.7
-0.0443	-0.027	0.0165	-0.003	1.7
-0.0465	-0.0218	0.0015	0	1.7
-0.042	-0.021	-0.0165	0.0007	1.7
-0.0248	-0.0181	-0.0075	0.0022	1.7
-0.0203	-0.0143	-0.0068	-0.0008	1.7
-0.0098	-0.015	-0.012	0.0022	1.7
-0.003	-0.012	-0.0143	0.0037	1.7
-0.0023	-0.0091	-0.0135	0.0052	1.7
0.0045	-0.0046	-0.0053	0.0082	1.7
-0.0015	-0.0008	0.0037	0.0067	1.7
-0.0068	-0.003	0.0075	0.0067	1.7
-0.006	-0.0068	-0.0023	0.0007	1.8
-0.0091	-0.0083	0.0015	-0.0008	1.8
-0.0098	-0.0053	0.0112	0.0007	1.8
-0.0181	-0.003	0.0082	0	1.8
-0.0128	0	-0.0015	0.0045	1.8
-0.003	0.0052	-0.0053	0.0052	1.8
-0.0083	0.0067	0.018	0.0052	1.8
0.0037	0.0082	0.03	0.0052	1.8
0.0067	0.009	0.0232	0.003	1.8
0.0007	0.0007	-0.0091	-0.0046	1.8
-0.0203	-0.0105	-0.042	-0.012	1.8
-0.0503	-0.0105	-0.0405	-0.012	1.8
-0.0458	-0.0128	-0.0465	-0.0068	1.8
-0.0233	-0.0015	-0.0368	0.0015	1.8
0.021	0.0172	-0.0165	0.0045	1.8
0.0727	0.0187	0.0015	0.003	1.8
0.1057	0.0082	0.027	-0.0053	1.8
0.1087	-0.0091	0.027	-0.0128	1.8
0.0705	-0.0128	0.0292	-0.0128	1.8
0.0345	-0.0105	0.027	-0.0083	1.8
0.0255	-0.003	-0.0068	0.0015	1.8
0.0262	0.0105	-0.0098	0	1.8
0.0277	0.012	0.0165	-0.0008	1.8
0.009	0.012	0.0352	-0.0083	1.8
-0.0293	-0.003	0.036	-0.0203	1.8
-0.0503	-0.0046	0.024	-0.0165	1.8
-0.048	0.009	0.0172	-0.0098	1.8
-0.0458	0.0082	-0.0015	-0.003	1.8
-0.0465	0.0142	-0.0361	0.003	1.8
-0.0503	0.0142	-0.0615	0.0067	1.8
-0.0405	0.0157	-0.0608	0.0105	1.8
-0.0195	0.0232	-0.0428	0.0135	1.8
0.0052	0.0255	-0.0278	0.0157	1.8
0.0502	0.0292	-0.0053	0.0157	1.8
0.0892	0.0255	0.0277	0.0142	1.8
0.1005	0.027	0.0592	0.009	1.8
0.0727	0.0285	0.0892	0.0052	1.8
0.0382	0.0255	0.0975	-0.0015	1.8
0.0015	0.0195	0.072	-0.0046	1.8
-0.0263	0.0172	0.0405	-0.0015	1.8
-0.0353	0.021	-0.003	0.0015	1.8
-0.0375	0.0202	-0.0511	0.0052	1.8
-0.0278	0.0187	-0.066	0.0037	1.8
-0.021	0.0142	-0.0721	0.003	1.8
-0.0091	0.0135	-0.06	0.003	1.8
-0.0053	0.0165	-0.0308	0.0007	1.8
0.003	0.0165	-0.0173	-0.0015	1.8
0.0045	0.0142	0.006	-0.0008	1.9
0.003	0.0142	0.0255	-0.0015	1.9
0.0075	0.0142	0.0255	-0.0068	1.9
-0.0053	0.0127	0.0097	-0.0075	1.9
-0.0135	0.0127	0	-0.0053	1.9
-0.0181	0.012	-0.003	-0.0008	1.9
-0.0128	0.0135	-0.0128	0.0007	1.9
-0.003	0.0127	-0.0128	0.003	1.9
0.006	0.0112	-0.0113	0.0045	1.9
0.0105	0.0105	-0.012	0.0007	1.9
-0.0008	0.006	-0.0135	-0.0023	1.9
0.0007	0.0045	-0.0165	-0.0015	1.9
0.0045	0.0015	-0.0068	0.0007	1.9
0.0157	0.0022	0.0067	0.0022	2
0.0345	0.0037	0.0082	0.006	2
0.039	0.0067	0.0157	0.006	2
0.027	0.0037	0.0135	0.0045	2
0.0067	0.0015	0.0045	0.003	2
-0.0083	0.0015	-0.003	0.0007	2
-0.0195	-0.003	-0.0015	-0.003	2
-0.0233	-0.0105	0.0135	-0.0068	2
-0.0023	-0.0075	0.0262	-0.006	2
0.0202	-0.0015	0.0547	-0.012	2
0.0052	-0.0143	0.0585	-0.0203	2
-0.0091	-0.0218	0.0277	-0.0203	2
-0.0158	-0.0173	0.0045	-0.0135	2
-0.0188	-0.0158	-0.0233	-0.006	2
-0.006	-0.012	-0.024	-0.0023	2
-0.006	-0.0143	-0.0263	0.0007	2
-0.0046	-0.0143	-0.0353	0.0007	2
0.0015	-0.0143	-0.027	0.0022	2
0.0082	-0.0143	-0.027	0.0052	2
0.024	-0.0105	-0.0143	0.0052	2
0.018	-0.0091	-0.003	0.0037	2
0.0195	-0.0053	0.0015	0.0067	2
0.03	0	0.0142	0.009	2
0.0367	-0.0008	0.0255	0.0007	1.9
0.0397	-0.0105	0.0307	-0.0068	1.9
0.0157	-0.0165	0.0262	-0.0068	1.9
-0.0068	-0.0173	0.009	-0.003	2
-0.0158	-0.012	-0.003	0.0015	2
-0.0203	-0.0105	-0.0075	0.0045	2
-0.0181	-0.0105	-0.0158	0.0105	2
-0.0158	-0.0105	-0.0248	0.0112	2
-0.0046	-0.0128	-0.0165	0.012	2
0.0045	-0.0135	0.0045	0.0097	2
-0.003	-0.0135	0.0007	0.0052	2
0.0195	-0.0128	-0.0105	0	2
0.0292	-0.0165	0.0015	-0.0105	2
0.0127	-0.0203	0.0142	-0.0158	2.1
0.009	-0.0233	0.0052	-0.0165	2.1
-0.0015	-0.0218	0.0052	-0.0091	2.1
0.0112	-0.0181	0.0142	-0.0046	2.1
0.0165	-0.0173	0.0105	-0.0008	2.1
-0.0091	-0.015	0.0135	0.003	2.1
-0.0128	-0.0143	0.0037	-0.0015	2.1
-0.0128	-0.0105	-0.0046	0.0007	2.1
-0.0098	-0.0068	-0.0105	-0.0015	2.1
-0.0128	-0.0053	-0.0278	0.0007	2.1
-0.0068	-0.0015	-0.03	0.0052	2.1
-0.0008	0.0007	-0.0218	0.0052	2.1
-0.0075	0.0052	0.0007	0.0082	2.2
0.0007	0.0105	0.0127	0.0067	2.2
-0.0046	0.0127	0.018	0.0052	2.2
0.0007	0.0135	0.027	0.0022	2.2
-0.0008	0.018	0.0187	0.0007	2.2
-0.0105	0.0187	0.0045	-0.0008	2.2
-0.0083	0.018	-0.003	0.0015	2.2
-0.0105	0.0187	-0.012	0.0007	2.2
-0.0068	0.018	-0.0105	0.0007	2.2
-0.0038	0.0202	-0.0015	0.0007	2.2
-0.0053	0.018	-0.0015	-0.0008	2.2
-0.0091	0.015	-0.0023	0.0015	2.2
-0.0105	0.018	-0.0023	0.0015	2.2
-0.0105	0.0195	-0.003	0.003	2.2
-0.0068	0.018	-0.0105	0.0037	2.2
0.0015	0.0195	-0.0256	0.003	2.2
0.0157	0.0172	-0.0346	0.003	2.2
0.0202	0.0165	-0.0278	0.0045	2.2
0.0157	0.0127	-0.0135	0.0007	2.2
0.0157	0.0075	0.0037	-0.0015	2.2
0.0135	0.003	0.0202	-0.0038	2.2
0.0067	0.003	0.0307	-0.0075	2.2
-0.0143	0.0045	0.0412	-0.0068	2.2
-0.0285	0.0022	0.0405	-0.0053	2.2
-0.033	0.0007	0.0367	-0.003	2.2
-0.0398	-0.0053	0.0232	-0.0008	2.2
-0.0225	-0.0015	0.0022	-0.0008	2.2
-0.0083	-0.0015	0.009	-0.0015	2.2
0.006	-0.0053	0.0225	-0.0015	2.2
0.0307	-0.0068	0.024	0.0007	2.2
0.0412	-0.0091	-0.0008	0.003	2.2
0.0555	-0.0046	-0.0383	0.0067	2.2
0.0532	-0.003	-0.0518	0.0082	2.2
0.051	-0.0046	-0.0465	0.0052	2.2
0.0345	-0.0083	-0.0195	0.0015	2.2
-0.0233	-0.012	0.006	-0.0046	2.2
-0.0548	-0.0128	0.0142	-0.003	2.2
-0.0593	-0.015	0.0112	-0.0046	2.2
-0.0315	-0.0105	0.0105	-0.003	2.2
0	-0.006	0.009	-0.0015	2.2
0.018	-0.0038	0.0045	-0.0008	2.2
0.042	-0.0046	0.0187	0	2.2
0.0315	-0.0098	0.0135	-0.0053	2.2
0.0082	-0.015	-0.0068	-0.0068	2.2
-0.015	-0.0181	-0.0158	-0.006	2.2
-0.0256	-0.0181	-0.0135	-0.0046	2.2
-0.003	-0.0143	-0.0008	-0.0015	2.2
0.0195	-0.0105	-0.0008	-0.0015	2.2
0.0427	-0.0098	0.0022	-0.0023	2.2
0.0427	-0.0098	0.0135	0.0007	2.2
0.0345	-0.0068	0.0202	0.0015	2.2
0.0352	-0.0038	0.021	0.0015	2.2
0.018	-0.0046	0.0052	0.0015	2.2
0.009	-0.0046	-0.0098	0.0007	2.2
0.0015	-0.0015	-0.0181	-0.0015	2.2
0.0022	0.0007	-0.0225	-0.003	2.2
0.0082	0.003	-0.0128	-0.0038	2.2
0.0037	0.0067	0.006	-0.0023	2.2
0.006	0.0082	0.0097	-0.003	2.2
-0.0128	0.003	0.012	-0.0046	2.2
-0.0233	-0.0008	0.0157	-0.0038	2.3
-0.0181	0.0022	0.0007	-0.003	2.3
-0.0173	0.0037	-0.0105	-0.0015	2.3
-0.0083	0.0082	-0.0105	0.0045	2.3
-0.0091	0.012	-0.0068	0.0045	2.3
-0.0075	0.009	-0.0008	0.0022	2.3
-0.0068	0.0127	0.0007	0.0037	2.3
-0.0105	0.0127	0.0015	0.0045	2.3
-0.0068	0.0135	0.0022	0.0067	2.3
-0.0091	0.0142	0.0045	0.0052	2.3
-0.0046	0.0165	0.0045	0.0067	2.3
-0.006	0.0187	0.0007	0.0045	2.3
-0.0091	0.0157	0.0007	0.0015	2.3
-0.0046	0.0142	0.0007	-0.0008	2.3
-0.0075	0.0127	-0.0008	-0.0008	2.3
-0.0046	0.012	-0.0015	-0.0008	2.3
-0.0038	0.0105	-0.0008	-0.0015	2.3
-0.0053	0.009	-0.0015	-0.0008	2.3
-0.003	0.0097	-0.0053	-0.0053	2.3
-0.0053	0.0082	-0.0053	-0.0023	2.3
-0.0046	0.0075	-0.0068	-0.003	2.4
-0.0083	0.0052	-0.0053	-0.0053	2.4
-0.0105	0.0052	-0.0008	-0.003	2.4
-0.0068	0.0052	0.0022	-0.0046	2.4
-0.0083	0.0052	0.0007	-0.003	2.4
-0.0015	0.0052	-0.003	-0.0038	2.4
0.003	0.003	-0.0068	-0.003	2.4
0.0082	0.0007	-0.0046	-0.0008	2.4
0.012	-0.003	-0.0046	-0.003	2.4
0.006	-0.0038	-0.0046	-0.0015	2.4
0.0067	-0.0053	-0.0046	0.0007	2.4
0.0045	-0.0046	-0.0091	0.0007	2.4
0.0052	-0.003	-0.0091	0.0015	2.4
0.0052	-0.003	-0.0053	0.0015	2.4
0.003	-0.003	0	0.0007	2.4
0.0067	-0.0068	0.0075	0.003	2.4
0.003	-0.0105	0.0082	-0.0015	2.4
-0.0008	-0.015	0.006	-0.0023	2.4
-0.0046	-0.015	0.009	-0.0023	2.4
-0.0068	-0.012	0.0052	-0.0015	2.4
0.0022	-0.0135	0.009	0.003	2.4
0.0045	-0.0128	0.0142	0.0007	2.4
0.009	-0.015	0.0075	-0.0008	2.4
0.0127	-0.0165	0.009	-0.0015	2.4
0.0165	-0.0203	0.0142	-0.0068	2.4
0.0345	-0.0218	0.018	-0.0023	2.4
0.0375	-0.0195	0.0105	0	2.4
0.0352	-0.0188	0.0022	0	2.4
0.0277	-0.0181	0.0007	0.0015	2.4
0.009	-0.021	-0.0128	-0.0015	2.4
-0.0105	-0.0233	-0.0225	-0.0015	2.4
-0.027	-0.0248	-0.0293	-0.0008	2.4
-0.0293	-0.0248	-0.0143	0	2.4
-0.0293	-0.0203	0.0082	-0.0015	2.4
-0.0173	-0.0203	0.0157	-0.0046	2.4
-0.0075	-0.0225	0.0202	-0.003	2.4
-0.0023	-0.0195	0.0217	-0.003	2.4
0.0135	-0.0173	0.024	-0.0015	2.4
0.0157	-0.0195	0.0232	-0.0008	2.4
0.0165	-0.0165	0.0142	0	2.5
0.0232	-0.0128	-0.0091	0.0007	2.5
0.0217	-0.0105	-0.0203	0.0015	2.5
0.0217	-0.0128	-0.0181	0.0045	2.5
0.0142	-0.0135	-0.0128	0.0045	2.5
0.0082	-0.0113	-0.0075	0.0045	2.5
0	-0.0091	-0.0068	0.003	2.5
-0.0143	-0.003	-0.0015	0	2.5
-0.0135	0	-0.0023	0.0015	2.5
-0.0083	0.003	-0.0008	0.003	2.5
-0.0075	0.0052	-0.003	0.003	2.5
0.003	0.0067	-0.0068	0.0052	2.5
0.0067	0.0067	0	0.0015	2.5
0.0157	0.0067	-0.0015	0.0022	2.6
0.0232	0.0067	0.0015	-0.0008	2.6
0.0255	0.006	-0.0008	-0.0046	2.6
0.0345	0.006	-0.0053	-0.0038	2.6
0.0277	0.0052	0	-0.0083	2.6
0.0232	0.0045	0.0015	-0.0023	2.6
0.0217	0.0052	-0.0053	0.003	2.6
0.012	0.0052	-0.0083	-0.0008	2.6
0.0052	0.0007	-0.0128	0	2.6
-0.0053	-0.0015	-0.0233	0.003	2.7
-0.0053	0	-0.0248	0.0045	2.7
-0.0046	0.0007	-0.021	0.0052	2.7
-0.0068	0.0007	-0.0008	0.006	2.7
0	0	0.024	0.003	2.8
0.0015	-0.0038	0.0345	-0.0008	2.8
0.0022	-0.0046	0.0352	-0.0015	2.8
0.0067	-0.003	0.045	-0.0053	2.8
0.003	0.0007	0.039	-0.006	2.8
0.0015	0.0045	0.021	-0.0046	2.9
0.0037	0.006	0.0097	-0.0023	2.9
0.0082	0.009	-0.012	0.0007	2.9
0.015	0.012	-0.0158	0.0015	2.9
0.0112	0.0157	-0.0083	0.0037	3
0.006	0.0217	-0.0068	0.0022	3
0.0015	0.0217	0.0007	0.0007	3
-0.006	0.024	-0.0068	-0.0023	3.1
-0.0083	0.0262	-0.0128	-0.0068	3.1
-0.012	0.0285	-0.0135	-0.0083	3.1
-0.0105	0.0315	-0.012	-0.006	3.2
-0.0083	0.0345	-0.0015	-0.003	3.2
-0.0068	0.0397	0.006	0	3.3
-0.003	0.0405	0.0172	0.0015	3.3
-0.0008	0.0405	0.0232	0.0022	3.4
0.0007	0.039	0.0232	0.003	3.5
-0.0068	0.039	0.0217	0.003	3.5
-0.0083	0.0412	0.0097	0.0007	3.6
-0.0038	0.0405	-0.003	0.003	3.6
-0.006	0.039	-0.0105	0.0052	3.6
-0.0038	0.0397	-0.0173	0.0045	3.7
-0.0068	0.0345	-0.0278	0.0015	3.7
-0.0091	0.03	-0.0443	0.0015	3.8
-0.0015	0.0277	-0.0465	0.0015	3.8
0.003	0.0277	-0.0293	0.0045	3.9
0.0075	0.0277	-0.0181	0.0045	3.9
0.0037	0.0255	-0.0068	0.0007	4
0.0022	0.0232	0.0075	-0.0015	4
0.009	0.0225	0.0195	-0.0023	4.1
0.0082	0.0195	0.0285	-0.003	4.1
0.0112	0.0105	0.0277	-0.0046	4.2
0.009	0.0082	0.0277	-0.0068	4.2
0.0045	0.0045	0.0202	-0.0068	4.3
0.0075	0.003	0.0202	-0.0075	4.4
-0.0091	0.006	0.0217	-0.0068	4.4
-0.015	0.0105	0.0157	0.0007	4.5
-0.0098	0.018	0.0097	0	4.5
-0.0068	0.0195	-0.0023	0.0007	4.5
0.003	0.0232	-0.0015	0	4.6
-0.0015	0.0262	-0.0053	0	4.7
0	0.0232	-0.006	0.0007	4.7
0.0022	0.0225	-0.0091	-0.0038	4.8
-0.0015	0.021	-0.012	-0.0015	4.8
0.0037	0.021	-0.0068	0.0007	4.9
-0.0008	0.0225	-0.0098	0.0007	4.9
0.0007	0.0217	-0.0083	0.003	5
0.0045	0.0217	-0.0158	0.0015	5.1
0.0052	0.0232	-0.0143	0.0015	5.2
0.012	0.018	-0.0068	0.0015	5.3
0.0097	0.0157	-0.0046	0.0015	5.3
0.0097	0.0135	0.003	0.003	5.4
0.0037	0.0067	0.0015	0.0015	5.5
0.003	0.0052	0.0067	-0.0008	5.6
0.0015	0.0045	0.0067	0	5.7
-0.0068	-0.0046	0.006	-0.003	5.8
-0.0046	-0.0091	0.009	-0.0046	5.9
-0.0098	-0.0091	0.0015	-0.003	5.9
-0.0053	-0.0113	0.003	-0.0015	6
-0.006	-0.0173	0.0015	-0.0008	6.1
-0.0046	-0.0218	-0.0015	-0.0023	6.2
0.0007	-0.0248	0.0022	0	6.3
-0.003	-0.027	0	0.0015	6.4
0.0007	-0.027	0.0007	0.0015	6.5
-0.003	-0.0308	-0.0015	0.0022	6.6
0.0022	-0.0346	-0.0008	0.0007	6.7
0.0045	-0.0368	0.0045	0.0015	6.7
0.0045	-0.039	0.0045	-0.0008	6.8
0.0082	-0.0368	0.0045	-0.0015	6.9
0.0052	-0.0368	0.0022	0.0022	6.9
0.006	-0.0353	0.0007	0.0037	7
0.0075	-0.033	-0.0046	0.0082	7.1
0.0052	-0.0338	-0.0098	0.009	7.1
-0.0038	-0.0315	-0.0075	0.0067	7.2
-0.0158	-0.0308	-0.0015	0.0082	7.2
-0.0256	-0.0315	0	0.0067	7.3
-0.024	-0.0323	-0.0068	0.0015	7.4
-0.0181	-0.0308	-0.0075	-0.0008	7.4
-0.0075	-0.0293	-0.0023	-0.003	7.5
0.0105	-0.03	-0.0008	-0.0053	7.6
0.0225	-0.0256	0.0015	-0.0083	7.6
0.0285	-0.027	0.0067	-0.0075	7.7
0.021	-0.0293	0.0157	-0.0083	7.7
0.0142	-0.027	0.0195	-0.0083	7.8
0.0195	-0.0263	0.0142	-0.0075	7.9
0.0165	-0.024	0.0082	-0.0091	8
0.0157	-0.0233	0.0067	-0.0068	8
0.0142	-0.0233	0.0052	-0.0046	8.1
0.012	-0.0218	-0.003	-0.0015	8.1
0.0142	-0.0218	-0.0068	-0.0008	8.2
0.009	-0.0218	-0.0023	0.0007	8.2
0.0097	-0.0195	-0.0008	0	8.3
0.006	-0.0181	0.0015	-0.0008	8.4
0.0052	-0.0181	-0.0008	-0.0008	8.4
0.006	-0.0181	-0.012	0.0015	8.5
0.0045	-0.0173	-0.024	0.0037	8.5
0.0172	-0.0195	-0.0361	0.0045	8.6
0.0202	-0.0218	-0.0173	0.0067	8.7
0.0255	-0.0248	0.0067	0.0082	8.7
0.0292	-0.0293	0.0157	0.0045	8.8
0.0232	-0.0308	0.0232	0.0007	8.9
0.027	-0.03	0.0232	0.0007	8.9
0.0172	-0.0323	0.0315	-0.0023	9
0.0067	-0.0338	0.0375	-0.0023	9
-0.0068	-0.0353	0.024	-0.0053	9.1
-0.0233	-0.0353	-0.0008	-0.003	9.2
-0.024	-0.0353	-0.0135	-0.0008	9.2
-0.027	-0.0315	-0.0143	-0.0015	9.3
-0.024	-0.0248	-0.012	-0.0015	9.4
-0.0233	-0.024	-0.003	-0.0038	9.4
-0.0256	-0.0218	0.0045	-0.0008	9.5
-0.0218	-0.0188	0	0.0015	9.6
-0.0173	-0.0158	-0.0188	0.0045	9.7
-0.0068	-0.0105	-0.0353	0.0067	9.8
-0.0038	-0.0083	-0.0323	0.0045	9.9
-0.0053	-0.0046	-0.0158	0.0045	9.9
-0.0053	-0.0008	0.0007	0.0067	10
-0.0083	0.0022	0.0112	0.003	10.1
-0.0091	0.006	0.0157	0.0045	10.2
0.0015	0.0045	0.0217	0.0007	10.3
0.0037	-0.0008	0.0277	-0.0068	10.3
0.0075	-0.0008	0.0292	-0.0046	10.4
0.0022	0.0007	0.0225	-0.0083	10.5
-0.0091	0.0015	0.0045	-0.0105	10.6
-0.0128	0.0015	-0.0015	-0.006	10.7
-0.0233	0.0052	-0.006	-0.0015	10.7
-0.0195	0.009	-0.0091	0.0015	10.8
-0.0203	0.0097	-0.0053	0.003	10.9
-0.0158	0.012	-0.0023	0.0052	11.1
-0.0053	0.0135	0.0045	0.006	11.2
-0.0046	0.0157	0	0.0052	11.2
-0.003	0.018	-0.0008	0.0052	11.4
-0.0128	0.0187	-0.006	0.0037	11.5
-0.0173	0.0187	-0.0158	0.0007	11.6
-0.0195	0.0195	-0.0173	0	11.7
-0.0278	0.018	-0.0203	-0.0038	11.8
-0.033	0.018	-0.0158	-0.0046	11.9
-0.0353	0.0202	-0.0068	-0.0053	12
-0.0346	0.0187	0	-0.006	12.1
-0.0361	0.0202	0.0015	-0.0053	12.2
-0.0368	0.0202	-0.0015	-0.0015	12.3
-0.0361	0.0165	0.0007	0.003	12.4
-0.0346	0.0165	0.0007	0.003	12.6
-0.0293	0.0172	-0.0008	0.006	12.6
-0.0173	0.0157	0.003	0.0045	12.7
-0.0015	0.0157	0.0007	0.0015	12.9
0.012	0.015	0.0015	0.0007	13
0.0202	0.0142	0.003	-0.0046	13
0.018	0.0142	0.0007	-0.003	13.1
0.018	0.0127	-0.0046	-0.0046	13.2
0.0157	0.0142	-0.0128	-0.0038	13.3
0.0157	0.0142	-0.0135	0	13.4
0.018	0.0142	-0.0098	0.0007	13.5
0.0165	0.0165	-0.0046	0.003	13.6
0.024	0.015	0.0052	0.003	13.7
0.0255	0.0157	0.0112	0.0022	13.8
0.027	0.018	0.012	0.003	13.9
0.027	0.0195	0.0142	0.0022	13.9
0.027	0.0172	0.0082	-0.0008	14
0.033	0.0195	0.0015	-0.0023	14.1
0.0292	0.018	0.0105	-0.0046	14.2
0.0352	0.0172	0.0165	-0.0015	14.3
0.033	0.0172	0.0097	-0.0046	14.4
0.0225	0.015	0.006	-0.0053	14.4
0.0202	0.0165	0.012	-0.0015	14.5
0.0112	0.0202	0.0067	-0.003	14.6
0.015	0.024	0.0022	-0.003	14.7
0.0142	0.0277	0.0052	0.0007	14.8
0.0127	0.0292	0.003	0.0007	14.8
0.0172	0.0307	0.009	0.0015	14.9
0.0165	0.0307	0.0045	-0.0008	15
0.0232	0.03	-0.0008	-0.0015	15
0.0232	0.0292	0.0015	-0.0038	15.1
0.021	0.0315	-0.0008	-0.0083	15.2
0.0232	0.0292	-0.0015	-0.0068	15.2
0.0157	0.0255	-0.0053	-0.003	15.3
0.0157	0.0217	-0.0068	-0.0008	15.3
0.0165	0.0195	-0.0113	-0.0008	15.4
0.018	0.0165	-0.0158	-0.0008	15.5
0.0262	0.0105	-0.0128	-0.0008	15.5
0.0217	0.0067	-0.0098	-0.0008	15.6
0.0277	0.0022	-0.0023	-0.0008	15.7
0.0322	0.0007	0.0052	0	15.7
0.0382	-0.0015	0.0142	0.0015	15.8
0.0397	-0.0083	0.0225	-0.0023	15.8
0.027	-0.0135	0.0232	-0.003	15.9
0.0202	-0.0203	0.0202	-0.003	16
0.006	-0.0233	0.0075	-0.0053	16.1
0.0052	-0.0233	0.0007	-0.003	16.1
0.0045	-0.0263	-0.0015	-0.003	16.2
0.0007	-0.0278	-0.0105	-0.0015	16.2
0.003	-0.0293	-0.0075	-0.0015	16.3
-0.0046	-0.027	-0.0083	0.0015	16.4
0.0015	-0.0293	-0.0075	0.003	16.5
-0.0015	-0.0278	-0.0046	0.0022	16.6
0.0037	-0.0256	-0.006	0.0045	16.6
0.018	-0.0263	-0.0091	0.0037	16.7
0.027	-0.0256	-0.0225	0.0037	16.8
0.0345	-0.0248	-0.0368	0.0037	16.8
0.0255	-0.0233	-0.033	0.0015	16.9
0.0217	-0.024	-0.0256	0.003	17
0.015	-0.0233	-0.0195	0.0045	17
0.0075	-0.0285	-0.0015	0.0045	17.1
0.0045	-0.0353	0.009	0.003	17.2
0.0015	-0.0413	0.0232	0.0015	17.3
0.0007	-0.0436	0.039	0	17.3
-0.0046	-0.0405	0.0465	-0.0015	17.4
-0.0091	-0.0436	0.0487	0.0007	17.5
-0.0143	-0.0443	0.0352	0.0045	17.6
-0.0181	-0.0443	0.0202	0.0052	17.7
-0.0203	-0.042	0.0127	0.0045	17.8
-0.0203	-0.0375	0.0105	0.003	17.9
-0.0188	-0.033	0.0075	0.0007	18
-0.0195	-0.03	0.0007	-0.0008	18.1
-0.0233	-0.0315	-0.0075	-0.003	18.2
-0.0293	-0.0308	-0.0158	-0.0008	18.3
-0.0353	-0.0278	-0.0173	-0.0008	18.4
-0.0436	-0.024	-0.015	-0.0008	18.4
-0.048	-0.0188	-0.0098	0.0007	18.5
-0.0495	-0.012	-0.0075	-0.0015	18.6
-0.0473	-0.0053	-0.0105	0	18.7
-0.0533	-0.003	-0.0091	0.0007	18.9
-0.06	-0.0008	-0.0053	-0.0008	18.9
-0.0495	0.0052	-0.0038	0.0007	19
-0.0465	0.0067	-0.0038	0.0015	19.1
-0.0405	0.0067	-0.0015	0.0022	19.2
-0.0375	0.0067	-0.0038	-0.0008	19.3
-0.0368	0.009	-0.0038	0.0015	19.4
-0.0293	0.015	-0.0015	0.0015	19.5
-0.0293	0.0142	-0.0038	0.0007	19.6
-0.0188	0.0142	-0.006	0.0007	19.7
-0.0143	0.0157	-0.0038	0	19.8
-0.0083	0.0135	-0.0046	0.0015	19.9
-0.0023	0.0142	-0.003	0.003	20
-0.0015	0.015	-0.0008	0.0015	20.2
0.0105	0.0195	-0.0023	-0.0015	20.2
0.0202	0.0202	0.0022	-0.0015	20.4
0.033	0.0195	0.0082	-0.003	20.5
0.0382	0.018	0.0135	-0.0046	20.6
0.0315	0.0187	0.0082	-0.0038	20.7
0.0262	0.0195	0.0007	-0.0038	20.8
0.0127	0.018	-0.0015	-0.003	20.9
0.0075	0.018	-0.0015	0	21
0.0037	0.018	0.0015	0.0022	21.1
-0.0015	0.0217	-0.0008	0.0037	21.2
0.0022	0.0225	0.0007	0.0037	21.3
0.003	0.0217	0.0007	0.0007	21.4
0.0052	0.0217	0.0015	0	21.5
0.0105	0.0225	0.0045	0	21.6
0.0097	0.024	0.0015	-0.0015	21.7
0.0135	0.0232	0.0037	-0.003	21.8
0.012	0.021	0.0045	-0.003	21.9
0.0142	0.021	0.0045	-0.0046	22
0.018	0.021	0.0045	-0.0053	22.1
0.0157	0.0195	-0.0023	-0.0053	22.2
0.0232	0.0187	-0.0046	-0.0046	22.3
0.0217	0.0172	-0.003	-0.0023	22.4
0.0225	0.018	0	0	22.5
0.0292	0.018	0.003	-0.0008	22.6
0.024	0.0157	0.0015	0	22.7
0.0262	0.018	0	-0.0008	22.8
0.0202	0.0142	-0.0015	-0.0008	22.9
0.0135	0.0105	-0.0008	0.0007	23
0.0172	0.012	0.0007	0.003	23.1
0.0105	0.0105	-0.0038	0.0022	23.2
0.0045	0.012	-0.006	0	23.3
-0.0008	0.0127	-0.0038	-0.0015	23.4
-0.0075	0.0127	-0.0083	-0.0046	23.5
-0.0008	0.0127	-0.0068	-0.006	23.6
0.0037	0.009	-0.003	-0.006	23.6
0.0127	0.0082	0	-0.006	23.7
0.0232	0.0067	0.0045	-0.0046	23.8
0.0255	0.0045	0.0075	-0.0038	23.9
0.0292	0.0045	0.0105	-0.0015	24
0.033	0.0015	0.0127	0.003	24
0.03	0.0007	0.012	0.0022	24.1
0.0337	-0.0008	0.0075	0.0015	24.2
0.0337	-0.0023	0.0052	-0.0008	24.3
0.0322	0.0007	0.003	-0.0008	24.4
0.033	0.0015	0.0037	-0.0008	24.4
0.0277	0.0015	0.0045	-0.0015	24.5
0.0315	0.003	-0.0008	0.003	24.6
0.0292	0.0007	-0.0015	0.0007	24.7
0.0247	0.0007	-0.0128	0	24.8
0.021	-0.0008	-0.0165	-0.0015	24.8
0.012	0	-0.0113	0.0022	24.9
0.0142	0.0015	-0.0075	0.0052	25
0.0082	0.003	0.0007	0.0015	25.1
0.0015	0.0045	0.0037	0.0015	25.2
0.0067	0.0037	0.0135	0.0015	25.3
0.003	0.0015	0.0217	0.003	25.5
0.009	-0.003	0.021	0.0015	25.6
0.0165	-0.0105	0.0135	-0.0015	25.6
0.021	-0.0158	0.0045	-0.0015	25.8
0.036	-0.0165	0.0105	-0.003	25.9
0.0277	-0.0165	0.0112	-0.0038	26
0.012	-0.0158	0.0045	-0.003	26.1
-0.0008	-0.0143	0.0015	-0.0038	26.2
-0.012	-0.0181	-0.0053	-0.0046	26.3
-0.0158	-0.0165	-0.012	-0.0015	26.4
-0.024	-0.0143	-0.015	-0.0008	26.5
-0.0278	-0.0105	-0.0128	0.0007	26.6
-0.0248	-0.0038	-0.0098	0.0022	26.7
-0.0263	0.0007	-0.0053	0.003	26.9
-0.0256	0.003	0.003	0.003	27
-0.0256	0.0082	0.0067	0.0007	27.1
-0.0293	0.0112	-0.003	0.0007	27.2
-0.0285	0.0142	-0.0218	-0.0015	27.3
-0.0315	0.0157	-0.0405	-0.0053	27.4
-0.0315	0.0157	-0.0458	-0.0091	27.5
-0.033	0.0195	-0.0263	-0.012	27.7
-0.0368	0.0202	-0.0046	-0.0075	27.8
-0.033	0.0217	0.0172	-0.0053	27.9
-0.0368	0.0202	0.0292	0.0022	28.1
-0.0353	0.0187	0.0255	0.006	28.2
-0.0346	0.0187	0.0225	0.0052	28.3
-0.039	0.0157	0.0165	0.009	28.4
-0.0383	0.018	0.0142	0.0052	28.6
-0.0443	0.0135	0.009	0.0075	28.7
-0.039	0.009	0.0015	0.0075	28.8
-0.0315	0.0067	-0.0038	0.0037	28.9
-0.0278	0.003	-0.0046	0.0022	29.1
-0.0188	0.0007	0.0007	0.0015	29.2
-0.0135	-0.0046	-0.0008	0.0022	29.3
-0.0023	-0.0091	0.0015	0.0007	29.4
0.0112	-0.012	0.0052	0	29.6
0.0067	-0.0128	0.0105	-0.0015	29.7
0.009	-0.0143	0.012	-0.0008	29.8
0.0112	-0.0173	0.0105	0.003	30
0.0067	-0.0181	0.0082	0.0015	30.1
0.009	-0.0158	0	0.0015	30.2
0.0052	-0.0113	-0.006	-0.0008	30.4
0.009	-0.0098	-0.0053	-0.0023	30.5
0.0105	-0.0091	-0.0008	-0.0053	30.6
0.0075	-0.0068	0.0037	-0.0053	30.7
0.0112	-0.0068	-0.0053	-0.003	30.9
0.0105	-0.0046	-0.0091	-0.0015	31
0.015	-0.0046	-0.0098	0.0007	31.1
0.0165	-0.003	-0.012	0.0015	31.3
0.012	-0.0008	-0.0098	-0.0008	31.4
0.0127	0.0007	-0.0083	-0.0023	31.5
0.0112	0.0007	-0.0068	-0.003	31.7
0.012	0.0007	-0.0038	-0.0038	31.8
0.0187	-0.0008	-0.0008	-0.003	31.9
0.0202	-0.0008	0.003	-0.0046	32
0.0255	0	0.0052	-0.006	32.2
0.0285	0.0007	0.0045	-0.0083	32.3
0.03	-0.0008	0.0067	-0.0135	32.4
0.0367	-0.0015	0.0082	-0.0188	32.5
0.0382	-0.0015	0.003	-0.0188	32.6
0.0352	-0.0053	0	-0.012	32.7
0.03	-0.0053	0.0007	-0.006	32.8
0.0247	-0.0046	0.003	0.0015	32.8
0.0232	-0.0083	0.003	0.0067	32.9
0.015	-0.0068	0.0037	0.0105	33
0.0142	-0.0083	0.0045	0.0165	33.1
0.0067	-0.0113	0.0045	0.0217	33.3
0.0007	-0.0128	0.0045	0.024	33.3
-0.0008	-0.0143	0.0037	0.0232	33.4
-0.0053	-0.0143	0.003	0.0195	33.5
0	-0.0165	0.0045	0.0112	33.6
-0.0008	-0.0195	0.0037	0.0037	33.7
0.003	-0.0195	0.0015	-0.0038	33.8
0.0097	-0.0195	0.0015	-0.0068	33.9
0.0082	-0.0165	-0.0008	-0.0075	34
0.0082	-0.0143	-0.0015	-0.0075	34.1
0.003	-0.0143	-0.0023	-0.006	34.1
-0.0008	-0.0128	-0.0015	-0.0046	34.2
-0.0015	-0.0135	-0.0038	-0.0023	34.3
-0.0091	-0.0128	-0.006	-0.003	34.4
-0.0091	-0.0143	-0.0046	-0.0008	34.5
-0.0083	-0.0143	-0.0053	0.0045	34.6
-0.0068	-0.0098	-0.003	0.0037	34.6
0	-0.0083	-0.0023	0.003	34.7
0	-0.0046	-0.0015	0.0015	34.8
0.0097	-0.0038	0.0015	0.003	34.8
0.024	-0.0015	-0.0015	0.0045	34.9
0.0247	0.0022	0.003	0.003	35
0.0247	0.0045	0.0037	0.003	35.1
0.0232	0.003	0.0037	0.0022	35.1
0.0277	0.0007	0.0067	0.0007	35.2
0.0292	-0.0008	0.0067	-0.0046	35.3
0.0255	-0.003	0.009	-0.0068	35.4
0.0232	-0.0008	0.0052	-0.0091	35.5
0.0157	0.0015	0.0007	-0.0128	35.5
0.015	0.006	0	-0.0091	35.6
0.0097	0.012	-0.0015	-0.0053	35.7
0.0007	0.0165	0	-0.0046	35.8
-0.0008	0.0195	-0.0038	-0.0015	35.9
0.0015	0.0195	-0.006	0.0015	36
0.0105	0.0202	-0.0068	0.0022	36
0.0142	0.0202	-0.0098	0.003	36.1
0.009	0.0202	-0.012	0.0045	36.2
0.0045	0.0202	-0.0195	0.0015	36.3
0.0015	0.018	-0.0158	-0.0015	36.4
-0.0068	0.0142	-0.0068	-0.0038	36.5
-0.015	0.009	0.0015	-0.0053	36.6
-0.0188	0.0082	0.0142	-0.0023	36.7
-0.0203	0.012	0.0195	-0.0008	36.8
-0.0143	0.012	0.0232	-0.0046	36.9
-0.0158	0.0075	0.018	-0.0038	36.9
-0.012	0.009	0.0165	-0.0046	37
-0.0143	0.0112	0.0165	-0.003	37.1
-0.0173	0.0127	0.0135	-0.0008	37.2
-0.012	0.0105	0.012	-0.0008	37.3
-0.0188	0.0097	0.0052	0.0015	37.4
-0.0128	0.0075	0	0.0037	37.5
-0.015	0.0067	-0.0053	0.003	37.6
-0.0195	0.009	-0.0083	0.003	37.7
-0.0181	0.0075	-0.0083	0.0037	37.8
-0.0256	0.0082	-0.0083	0.0022	37.9
-0.024	0.0075	-0.0083	-0.0008	38.1
-0.0256	0.009	-0.0105	-0.003	38.2
-0.0293	0.0082	-0.0143	-0.0015	38.2
-0.0293	0.0075	-0.0181	0	38.4
-0.0308	0.0067	-0.0195	-0.0015	38.5
-0.03	0.0015	-0.033	0.0007	38.6
-0.0308	0.0022	-0.039	0.0015	38.7
-0.03	-0.0015	-0.024	0.0022	38.8
-0.0233	-0.0053	-0.0128	0.0007	39
-0.0195	-0.0075	0.0037	-0.0053	39.1
-0.0181	-0.012	0.0142	-0.0038	39.2
-0.012	-0.012	0.0195	-0.0046	39.3
-0.0053	-0.0165	0.027	-0.0015	39.4
0.0015	-0.0181	0.0255	0.0007	39.5
0.0015	-0.0188	0.0255	0.0015	39.6
0	-0.0195	0.0322	0.003	39.7
0.0075	-0.024	0.0345	-0.0015	39.9
0.009	-0.0278	0.0232	-0.0015	40
0.0127	-0.0285	0.012	-0.0046	40.1
0.0135	-0.0278	0.0007	-0.0053	40.2
0.0052	-0.027	-0.0053	-0.006	40.4
0.0067	-0.0256	-0.0083	-0.0075	40.5
0.0022	-0.0203	-0.0091	-0.0053	40.6
0.003	-0.0195	-0.0046	-0.003	40.7
0.0082	-0.0143	-0.0015	0.0015	40.8
0.009	-0.0105	-0.0023	0.003	40.9
0.015	-0.012	-0.003	0.0075	41.1
0.012	-0.0105	-0.0015	0.0127	41.2
0.012	-0.0083	0.0007	0.0172	41.3
0.0135	-0.0068	-0.0008	0.0157	41.4
0.0127	-0.0083	-0.0015	0.015	41.6
0.0165	-0.0075	0.0007	0.0165	41.7
0.0127	-0.0068	0.0007	0.0142	41.8
0.012	-0.0075	0	0.012	41.9
0.0105	-0.0091	-0.0015	0.0067	42
0.0067	-0.0105	-0.003	0.0007	42.2
0.009	-0.0113	0.0007	-0.003	42.3
0.006	-0.0105	0.0015	-0.0053	42.3
0.0067	-0.0105	-0.0008	-0.0105	42.4
0.0045	-0.0091	-0.0015	-0.0083	42.5
0.003	-0.0091	-0.0023	-0.0091	42.7
0.0067	-0.0128	-0.0023	-0.006	42.7
0.0015	-0.015	-0.0046	-0.0023	42.8
0.0067	-0.0158	-0.0053	-0.0046	42.9
0.0052	-0.0165	-0.0046	-0.0023	43
0.0067	-0.0181	-0.0038	-0.003	43.1
0.009	-0.0203	-0.0008	-0.003	43.2
0.0007	-0.0218	-0.0023	-0.003	43.3
0.0075	-0.0218	-0.003	-0.0053	43.4
0.0052	-0.0173	-0.003	-0.0068	43.5
0.009	-0.0143	-0.0046	-0.0068	43.6
0.0112	-0.0098	-0.0015	-0.0053	43.7
0.0045	-0.0053	-0.0015	-0.003	43.8
0.009	-0.003	-0.0008	-0.003	43.9
0.0075	-0.0015	0.0015	-0.003	44
0.0105	0	0.0022	-0.0008	44.1
0.0142	0.0037	0.0015	-0.0015	44.1
0.009	0.0075	0.0007	-0.0008	44.2
0.0075	0.0075	0.0015	0.0015	44.3
0.0067	0.0045	0.0045	0.0007	44.3
0.003	0.006	0.0037	0.003	44.4
0.0037	0.0082	0.003	0.003	44.5
0.0052	0.012	0.0007	0.0022	44.5
0.0105	0.0135	-0.0083	0.0007	44.6
0.0195	0.0157	-0.0143	0.0007	44.7
0.0255	0.0195	-0.0165	0	44.8
0.0255	0.0217	-0.012	-0.0015	44.8
0.0202	0.027	-0.006	0.0007	44.9
0.0202	0.0292	0.0045	0.0007	45
0.0217	0.0315	0.012	0.0007	45
0.009	0.0352	0.0127	0.0015	45.1
0.0075	0.0345	0.018	0.0015	45.2
0.0067	0.0315	0.0165	0.0015	45.2
0.0037	0.0262	0.0202	-0.0015	45.3
0.0045	0.0232	0.0225	-0.0046	45.4
-0.0023	0.024	0.0225	-0.0075	45.4
-0.0008	0.024	0.0195	-0.0113	45.5
-0.0083	0.024	0.0105	-0.0105	45.6
-0.0195	0.0232	0.0045	-0.0098	45.7
-0.0218	0.024	-0.0105	-0.006	45.7
-0.0293	0.0277	-0.0188	-0.0038	45.8
-0.0256	0.0255	-0.0158	-0.0046	45.9
-0.0218	0.0262	-0.0128	-0.003	45.9
-0.0181	0.0225	-0.0046	-0.0023	46
-0.0091	0.0202	-0.0008	0.0015	46.1
-0.012	0.0187	0.0007	0.003	46.2
-0.0105	0.0105	0.0045	0.003	46.2
-0.0083	0.0082	0.0052	0.0015	46.3
-0.0075	0.0037	0.0045	0.0052	46.3
-0.003	-0.0015	0.0037	0.0067	46.4
-0.003	-0.0053	0.0045	0.0045	46.5
-0.0046	-0.0091	0.0045	0.0037	46.6
-0.0046	-0.0105	0.003	0.0022	46.6
-0.0068	-0.0135	-0.0023	0.0007	46.7
-0.0046	-0.0128	-0.003	-0.0023	46.8
-0.0053	-0.0135	-0.003	-0.003	46.8
-0.0091	-0.0135	-0.0046	0	46.9
-0.0068	-0.0105	-0.003	0.0022	47
-0.0068	-0.0098	-0.0046	0.0022	47.1
-0.006	-0.0083	-0.0083	0.0007	47.2
-0.0046	-0.0083	-0.0083	-0.0008	47.2
-0.0046	-0.0068	-0.0053	-0.003	47.3
0.0015	-0.0015	-0.0046	-0.003	47.4
0.0037	0.0007	-0.0008	-0.0023	47.5
0.009	0.0037	0.0007	-0.0023	47.6
0.0105	0.0075	0.0015	-0.0008	47.6
0.0097	0.0112	0.0007	0.0037	47.7
0.0127	0.015	0.0007	0.0045	47.8
0.0105	0.0195	0.0052	0.003	47.9
0.0135	0.0232	0.0015	0.0015	47.9
0.0105	0.0247	-0.0038	0.0007	48
0.009	0.0255	-0.006	-0.003	48.1
0.0127	0.0247	-0.006	-0.003	48.2
0.0127	0.0262	-0.0046	-0.0015	48.3
0.018	0.024	-0.0015	-0.0015	48.3
0.0172	0.0232	-0.0015	0.0015	48.4
0.0195	0.0202	0.0007	0	48.5
0.021	0.0157	0.0045	-0.0023	48.6
0.018	0.0157	0.0022	-0.0023	48.6
0.0217	0.012	0.003	0.0007	48.7
0.0195	0.0067	0.0007	0.0007	48.8
0.021	0.0015	0	-0.006	48.9
0.0202	-0.0015	0.0007	-0.012	49
0.0127	-0.006	0.0015	-0.0158	49
0.0165	-0.0098	0.0007	-0.0135	49.1
0.012	-0.012	0.003	-0.0098	49.2
0.0097	-0.0158	0.0052	-0.0046	49.3
0.0082	-0.0165	0.0052	0.0045	49.3
0	-0.0181	0.009	0.009	49.4
-0.0015	-0.0218	0.0082	0.0142	49.5
-0.0068	-0.0256	0.0067	0.0187	49.6
-0.006	-0.0263	0.0067	0.0195	49.6
0	-0.027	0.003	0.0172	49.7
0.0007	-0.0285	0.003	0.0142	49.8
0.006	-0.0308	0.0015	0.012	49.9
0.0045	-0.0323	0	0.0135	49.9
0.006	-0.0293	0.0022	0.012	50
0.0052	-0.0308	0.0015	0.009	50
0.0015	-0.033	0.0007	0.0052	50.1
0.0067	-0.033	0.0007	-0.0008	50.2
0.0022	-0.0346	-0.003	-0.0023	50.2
0.0045	-0.033	-0.0015	-0.0046	50.3
0.003	-0.0338	-0.0008	-0.0053	50.4
-0.003	-0.033	-0.0023	-0.0053	50.4
-0.0008	-0.0308	-0.0008	-0.006	50.4
-0.0075	-0.0285	-0.0038	-0.0038	50.5
-0.0075	-0.027	-0.0023	-0.0008	50.6
-0.0068	-0.0248	-0.0046	-0.0008	50.6
-0.0068	-0.024	-0.0038	-0.003	50.7
-0.003	-0.0233	0.0007	-0.003	50.7
-0.0068	-0.0181	-0.003	-0.0008	50.8
-0.0015	-0.0143	-0.0015	-0.003	50.8
0	-0.0098	-0.0015	-0.003	50.9
-0.0015	-0.0053	-0.0038	-0.003	51
0.0015	-0.0008	-0.0023	-0.0046	51
-0.006	0.0015	-0.0015	-0.003	51.1
-0.006	0.0052	0	-0.0023	51.1
-0.0098	0.012	-0.0008	-0.0046	51.2
-0.012	0.0165	-0.003	-0.0038	51.3
-0.0038	0.0202	-0.003	-0.003	51.3
-0.0015	0.024	-0.0038	-0.0023	51.3
0.0052	0.0277	-0.003	-0.0023	51.4
0.0097	0.0307	-0.0015	-0.0015	51.4
0.0105	0.0337	-0.0015	-0.0023	51.5
0.0082	0.036	0.0007	-0.0046	51.6
0.0007	0.0352	0	-0.0023	51.6
-0.0023	0.0367	-0.0008	0.0007	51.7
-0.0053	0.0367	0.0007	-0.0023	51.7
-0.0068	0.036	-0.0015	-0.003	51.8
-0.0038	0.0382	-0.0008	0	51.8
-0.0075	0.0352	0.0007	-0.0015	51.9
-0.0046	0.0352	0.0052	-0.0015	51.9
-0.0015	0.0337	0.0067	0.0007	52
-0.0008	0.0322	0.0045	0	52.1
0.0067	0.0307	0.0022	0.0007	52.1
0.0015	0.027	0.0022	-0.0008	52.2
0.0037	0.0217	0.0045	-0.0015	52.2
0.0015	0.0172	0.0007	0	52.3
-0.003	0.015	-0.0046	-0.0023	52.3
0.0015	0.0112	-0.0053	-0.0046	52.4
-0.0046	0.009	-0.0046	-0.003	52.5
-0.0008	0.0067	-0.0046	-0.0015	52.5
-0.0008	0.003	-0.0008	0.0007	52.6
0.0007	-0.0008	0.0015	0.0015	52.6
0.0067	-0.0023	0.0045	-0.0008	52.7
0.003	-0.0015	0.0082	0.0015	52.7
0.009	-0.0046	0.0112	0.003	52.8
0.0075	-0.0046	0.0135	0.006	52.9
0.0105	-0.006	0.0112	0.0082	52.9
0.0157	-0.0091	0.0082	0.006	53
0.0157	-0.0091	0.0052	0.0067	53.1
0.018	-0.0083	0.0022	0.0045	53.1
0.0142	-0.0075	0.0015	0.0015	53.1
0.009	-0.0091	0.0007	0.0007	53.2
0.0067	-0.0083	-0.0008	0.0007	53.3
0.0007	-0.0068	-0.0038	-0.0008	53.3
0.0015	-0.0083	-0.0053	0.0007	53.4
-0.0008	-0.0083	-0.0046	0.003	53.4
-0.0053	-0.0091	-0.0038	0.0022	53.5
-0.0008	-0.0083	-0.0038	0	53.5
-0.0038	-0.0075	-0.003	-0.0023	53.6
-0.0046	-0.0068	-0.0038	-0.0015	53.6
-0.0046	-0.0053	-0.0053	-0.0008	53.7
-0.006	-0.0046	-0.0053	-0.0008	53.8
0	-0.0015	-0.0038	-0.0008	53.8
-0.0008	-0.0008	-0.0008	-0.0008	53.9
0.003	-0.0008	0	-0.0015	53.9
0.006	-0.0015	0.003	0.0007	54
0.012	-0.0008	0.0045	-0.003	54
0.0165	-0.003	0.0037	-0.0053	54.1
0.0097	-0.0068	0.0067	-0.0068	54.1
0.009	-0.0091	0.0097	-0.0068	54.2
0.0015	-0.012	0.0127	-0.003	54.2
-0.003	-0.012	0.0172	-0.003	54.3
-0.0053	-0.0135	0.0187	0.0007	54.4
-0.0098	-0.0143	0.015	-0.0008	54.4
-0.0105	-0.0143	0.0075	-0.003	54.4
-0.0143	-0.015	0.0015	-0.0008	54.5
-0.0173	-0.0143	0.0015	-0.0008	54.6
-0.0165	-0.0135	0.0007	-0.0008	54.6
-0.0143	-0.012	-0.0038	-0.0023	54.7
-0.0113	-0.0105	-0.0046	-0.0015	54.8
-0.0068	-0.0098	-0.0046	-0.0023	54.8
-0.0046	-0.0091	-0.0038	-0.0046	54.9
-0.0015	-0.0098	-0.006	-0.0008	54.9
-0.0015	-0.0098	-0.0068	-0.0046	55
-0.0068	-0.0098	-0.0075	-0.003	55.1
-0.0068	-0.0105	-0.0098	-0.0008	55.1
-0.012	-0.0113	-0.0083	-0.003	55.2
-0.0135	-0.0105	-0.0083	-0.0008	55.3
-0.012	-0.0105	-0.0068	0.0007	55.3
-0.0105	-0.0098	-0.0023	0.0045	55.4
-0.0053	-0.0083	-0.0023	0.0075	55.4
-0.006	-0.0053	0.0007	0.009	55.5
-0.0046	-0.0038	0.0015	0.0082	55.6
-0.0023	-0.0046	0.0015	0.0067	55.6
-0.0053	-0.0038	0.0045	0.006	55.7
-0.0008	-0.0023	0.0037	0.0052	55.7
-0.0015	0	0.0045	0.003	55.8
-0.0046	0.0015	0.0052	0.003	55.8
0.0007	0.0022	0.0045	0.0007	55.9
0.0037	0.0067	0.003	-0.0008	56
0.0097	0.0082	0.003	-0.0015	56
0.0127	0.009	0.0022	-0.0015	56.1
0.0082	0.0082	-0.0008	-0.0008	56.1
0.0067	0.0045	-0.0008	-0.0008	56.2
0.0007	0.0045	-0.0015	-0.003	56.2
-0.0008	0.003	-0.0015	-0.0015	56.3
0.0045	0.003	-0.0023	-0.0053	56.3
0.0037	0.0045	-0.0015	-0.0083	56.4
0.009	0.0045	-0.0015	-0.0053	56.5
0.009	0.0015	-0.0046	-0.0053	56.5
0.0067	0.0015	-0.003	-0.0038	56.6
0.0082	0.0022	-0.0023	-0.003	56.7
0.0052	0.0007	-0.0046	-0.003	56.7
0.0052	-0.0008	-0.0038	-0.0023	56.7
0.003	-0.0023	-0.0038	-0.003	56.8
0.0045	-0.003	-0.0046	-0.003	56.8
0.0105	-0.0038	-0.0023	-0.0015	56.9
0.0082	-0.0038	0	-0.003	56.9
0.0097	-0.0053	0.003	-0.0008	57
0.0105	-0.0098	0.0015	0	57
0.0052	-0.0113	0.0007	0	57.1
0.0082	-0.0158	0.0015	0.0007	57.1
0.003	-0.0188	0.0007	0.0015	57.1
0.0082	-0.0158	0.0022	0.0067	57.2
0.0075	-0.015	0.0045	0.0105	57.2
0.009	-0.0143	0.006	0.0112	57.2
0.0127	-0.0135	0.0045	0.0097	57.3
0.0082	-0.0128	0.0052	0.0067	57.3
0.0127	-0.012	0.0045	0.0052	57.4
0.0112	-0.012	0.0022	0.0037	57.4
0.0105	-0.0113	0.0015	0.0007	57.5
0.012	-0.0128	0.0007	-0.0015	57.5
0.012	-0.012	0.0015	-0.003	57.6
0.0127	-0.0113	-0.0008	-0.003	57.6
0.0052	-0.0105	-0.0008	-0.0046	57.6
0	-0.0105	-0.0015	-0.0053	57.6
-0.0053	-0.0083	-0.0015	-0.0046	57.7
-0.0083	-0.0068	0.0007	-0.0053	57.7
-0.0053	-0.0075	-0.0015	-0.003	57.8
-0.0053	-0.006	0.0015	-0.0038	57.8
-0.0046	-0.0053	0.0015	-0.003	57.8
0.003	-0.0015	0.0007	-0.0015	57.9
0.0045	-0.0023	0.0007	-0.0015	57.9
0.006	-0.0015	-0.0023	0.0015	57.9
0.0037	-0.0008	-0.0015	0.0007	58
-0.003	0	-0.0038	0.0007	58
-0.0008	0.003	-0.003	0.0007	58
-0.0046	0.0007	0.0015	-0.0008	58
-0.0008	0.0037	0	-0.0008	58.1
0.0007	0.0052	0.0007	-0.003	58.1
0.0022	0.0075	0.0007	-0.0023	58.1
0.0082	0.009	0.0007	-0.0015	58.2
0.0052	0.0105	0.0037	-0.0015	58.2
0.012	0.0127	0.0007	-0.0008	58.2
0.0097	0.012	0.0007	-0.0008	58.2
0.0082	0.0142	0	0.0007	58.3
0.009	0.0157	-0.0015	0.0007	58.3
0.0037	0.018	0.0007	0	58.3
0.009	0.0232	0.0015	0	58.3
0.0052	0.024	0.0015	-0.0008	58.3
0.0067	0.0232	0.0007	-0.003	58.3
0.0067	0.0217	-0.0008	-0.003	58.3
0.003	0.021	-0.0038	-0.0038	58.4
0.009	0.0202	-0.0046	-0.0046	58.4
0.003	0.0202	-0.0038	-0.0015	58.4
0.0067	0.018	-0.0023	-0.003	58.4
0.0067	0.015	-0.0008	-0.0015	58.4
0.0045	0.0142	-0.0008	-0.0008	58.4
0.0082	0.0142	0.0007	-0.0008	58.5
0.0037	0.015	0.0015	-0.0023	58.5
0.0067	0.015	0.0022	-0.003	58.5
0.0052	0.0135	0.0015	-0.0008	58.5
0.0045	0.015	0.0015	-0.0015	58.5
0.0067	0.0142	0.0015	0.0007	58.5
0.006	0.0142	0.0007	0.0015	58.5
0.009	0.0112	0.0045	-0.0015	58.5
0.0097	0.0097	0.0037	0.0015	58.5
0.0075	0.009	0.003	0.0015	58.5
0.0105	0.0082	0.0022	0.0007	58.5
0.009	0.0097	-0.0008	0.0007	58.6
0.0105	0.0082	0.0015	0	58.6
0.0105	0.0082	0.0015	0.0015	58.6
0.0082	0.0045	0.0037	0	58.6
0.0067	0.0022	0.0022	0	58.6
0.0022	0.0022	0.0007	-0.0008	58.6
0.003	-0.0008	0.0015	-0.0008	58.6
0	-0.0015	0.0015	0.0022	58.6
0.0015	-0.0015	0.0045	0.0022	58.6
-0.0008	-0.0008	0.0022	0.0015	58.7
-0.0068	-0.003	0.003	-0.0008	58.7
-0.003	-0.0008	0.0022	0.0022	58.7
-0.006	-0.0008	0.0015	0.0015	58.7
-0.0038	-0.0046	0	0	58.7
-0.0046	-0.0046	0.0015	0.0007	58.7
-0.0038	-0.0068	0.0045	-0.0008	58.7
0	-0.0068	0.0007	0.003	58.7
-0.0046	-0.0075	0.0007	0.0015	58.7
-0.003	-0.0105	-0.0015	0.0015	58.7
-0.003	-0.0098	-0.0015	-0.003	58.7
-0.0038	-0.0083	0	-0.003	58.7
-0.0008	-0.006	-0.0015	-0.0008	58.7
-0.003	-0.0091	0.0007	-0.0015	58.7
-0.0053	-0.0091	0	0.0007	58.7
-0.0038	-0.0083	-0.0008	0.0007	58.7
-0.0046	-0.0098	0	-0.0008	58.7
-0.0015	-0.0091	-0.0015	0.0007	58.7
-0.0046	-0.0091	-0.0015	0.0015	58.7
-0.003	-0.0053	0	0.0015	58.7
-0.0008	-0.0053	0	0.0007	58.7
-0.0023	-0.006	-0.0015	-0.0008	58.7
0.0052	-0.0053	-0.0008	0.0007	58.6
0.0045	-0.0075	0.0015	0.0015	58.6
0.0015	-0.0083	0.0007	-0.0015	58.6
0.0037	-0.0091	0.0022	0.0015	58.6
0.0015	-0.0091	0.0007	-0.0008	58.6
0.0052	-0.0083	0.0007	0.0007	58.6
0.0045	-0.0068	0.0045	0.0007	58.6
0.0015	-0.0068	0.0045	-0.0015	58.6
0.0045	-0.0053	0.0052	-0.0023	58.6
-0.0015	-0.0053	0.0037	-0.003	58.6
-0.0015	-0.0046	0.0015	-0.0015	58.6
0	-0.0038	0.0015	-0.0038	58.6
-0.0023	-0.0053	-0.0008	-0.003	58.6
0.0007	-0.0023	-0.0015	-0.0046	58.6
-0.0038	-0.0015	-0.0023	-0.0023	58.6
-0.0023	0.0022	-0.0023	-0.0008	58.6
0.0015	0.003	-0.0008	-0.003	58.6
0.0007	0.003	-0.0015	-0.0015	58.6
0.006	0.0052	-0.003	-0.0015	58.5
0.0037	0.006	-0.0008	-0.0023	58.5
0.0037	0.0067	0.0015	0	58.5
0.0067	0.0075	0.0007	0.0022	58.5
0.0022	0.009	0.0007	0	58.5
0.0037	0.009	0.0015	-0.0015	58.5
0.0022	0.009	-0.0015	-0.0008	58.5
0.0015	0.0082	-0.0015	0	58.5
0.0015	0.0067	-0.003	0.0007	58.5
-0.0053	0.0067	-0.0015	0	58.5
-0.0046	0.0075	-0.0015	0.0022	58.5
-0.0068	0.006	0	0.0022	58.5
-0.0046	0.0045	0.0045	0.0007	58.5
0.003	0.0052	0.0015	0.0037	58.5
0	0.0067	0.003	0.0007	58.5
0.0037	0.006	0.0037	0.0015	58.4
0.0052	0.003	0.0022	0.0007	58.4
0.006	0.0015	0.003	0	58.4
0.0082	0.0007	0.003	-0.0008	58.4
0.0052	0.0007	0.003	0.0007	58.4
0.003	0.0007	0.0007	0.0015	58.4
0.0075	-0.0023	0.0015	-0.0015	58.4
0.0045	-0.0053	0.0007	-0.0023	58.4
0.0015	-0.0068	-0.0008	-0.0008	58.3
0.0007	-0.0083	0.0007	-0.0015	58.3
-0.0053	-0.0075	-0.003	-0.0015	58.3
-0.0046	-0.0075	-0.0015	-0.0008	58.3
-0.0075	-0.0083	-0.0015	-0.0015	58.3
-0.0053	-0.0091	-0.0008	-0.0015	58.3
-0.003	-0.0091	0	0.0015	58.2
-0.0038	-0.0068	-0.0015	0.0045	58.2
0.0037	-0.0068	0.0007	0.0037	58.2
0.0067	-0.0075	-0.0008	0.0045	58.2
0.006	-0.0068	0.0015	0.003	58.2
0.0082	-0.0083	0	0.0015	58.1
0.0052	-0.0083	-0.0008	0.0007	58.1
0.0045	-0.0068	0	0.0007	58.1
0.0067	-0.0083	-0.0008	-0.0015	58.1
0.0037	-0.0068	-0.0008	0.0015	58.1
0.003	-0.0053	-0.003	0.0015	58
0.0015	-0.0068	-0.0015	0.0007	58
-0.0008	-0.0075	-0.0015	-0.0008	58
-0.0008	-0.0046	0	-0.0015	58
-0.0053	-0.0023	0.0007	-0.0023	58
-0.0046	-0.0008	-0.0015	-0.006	58
-0.0053	-0.0015	0.0007	-0.0046	57.9
-0.0068	0.0007	-0.0023	-0.0046	57.9
0	0.003	-0.003	-0.0015	57.9
-0.0008	0.0067	-0.0046	-0.0008	57.9
0.0045	0.009	-0.0038	0.0007	57.9
0.0052	0.0105	-0.0008	0.0007	57.9
0.0052	0.0142	0.003	-0.0023	57.9
0.0105	0.0142	0.0045	0.0022	57.9
0.0082	0.0165	0.0022	0	57.8
0.009	0.0165	0.0022	0	57.8
0.0067	0.018	0.0015	0.0007	57.8
0.0037	0.018	-0.0008	0	57.8
0.003	0.0135	0	0.0007	57.8
0.0007	0.0082	0.0022	-0.0008	57.7
0.0015	0.0045	0.003	0.0022	57.7
0	0.0052	0.0045	0.0022	57.7
0	0.003	0.0015	0.0037	57.7
0.003	-0.0008	0.0007	0.0045	57.7
0.0015	-0.0015	0.0007	0.0015	57.7
0.003	-0.003	0.0022	0	57.6
0.003	-0.0015	0.0037	-0.0015	57.6
0.0022	0	0.0037	-0.0023	57.6
0.0045	-0.0015	0.0015	-0.0008	57.6
0.003	0.0015	0.0015	0.0007	57.6
0.0052	0.006	0.0015	0.0015	57.5
0.0067	0.012	-0.0008	0.0015	57.5
0.0037	0.0157	0.0007	-0.0015	57.4
0.0045	0.0172	0.0007	-0.0046	57.4
-0.003	0.0217	0.003	-0.0068	57.4
-0.0015	0.0225	0.0052	-0.0053	57.3
-0.0008	0.024	0.003	-0.0023	57.3
-0.0008	0.0247	0.003	-0.003	57.3
0.0007	0.0232	0	-0.0008	57.2
-0.003	0.027	0	-0.003	57.2
0.0045	0.0285	0.0007	-0.003	57.2
0.0015	0.03	-0.0008	-0.0023	57.1
0.0052	0.0315	0.0007	-0.003	57.1
0.0052	0.033	0.0022	0.0007	57.1
-0.0008	0.0345	0.003	0.0007	57
0.0045	0.0307	0.0022	0.0007	57
0	0.0292	0.0007	0.0007	56.9
0.0015	0.0292	0.0007	0	56.9
0.003	0.0307	0.0007	0.003	56.9
0.0022	0.0322	0.0015	0.003	56.9
0.006	0.0292	0.0015	0.0007	56.8
-0.003	0.027	0.0007	-0.003	56.8
-0.0046	0.024	-0.0008	-0.0038	56.8
-0.0091	0.024	0	-0.003	56.7
-0.0128	0.0217	0.0007	-0.0038	56.7
-0.0075	0.0217	-0.0015	-0.0023	56.7
-0.0091	0.0217	-0.0008	-0.0023	56.7
-0.003	0.018	-0.0008	-0.0015	56.6
-0.0038	0.0165	-0.0008	-0.003	56.6
-0.0023	0.0157	0	-0.0015	56.6
0.0007	0.0135	0	-0.0015	56.5
-0.0046	0.0097	-0.0008	-0.0015	56.5
0.0007	0.006	-0.0015	0.0015	56.5
-0.0046	0.0022	-0.0008	0.0007	56.4
-0.0083	-0.0008	0.0007	0.0015	56.4
-0.0068	-0.0015	0.003	0.0007	56.4
-0.0165	-0.0068	0.003	0	56.3
-0.015	-0.0105	0.0007	0	56.3
-0.0143	-0.0128	0.0015	-0.0046	56.3
-0.0128	-0.0173	-0.0008	-0.0015	56.3
-0.0091	-0.0218	-0.0008	0.0007	56.3
-0.0113	-0.0278	-0.0015	0.0007	56.4
-0.0068	-0.0315	-0.003	-0.0008	56.4
-0.0053	-0.0338	-0.0046	0	56.4
-0.0038	-0.0375	-0.003	0.0015	56.4
-0.0008	-0.042	0	0.0022	56.4
-0.0015	-0.0465	-0.0008	0.0022	56.5
0.0015	-0.0473	0.0007	0.0015	56.5
0.0007	-0.0488	-0.0023	0.0007	56.5
0	-0.0495	-0.0023	0.0007	56.5
0.0067	-0.0503	0	0.0007	56.5
0.0082	-0.0511	-0.0015	0.0007	56.5
0.0105	-0.0518	-0.003	-0.0008	56.6
0.0112	-0.054	-0.003	0.0015	56.6
0.0067	-0.057	-0.003	0.0015	56.6
0.0067	-0.0578	-0.0015	0.0022	56.6
0.0022	-0.0555	-0.0008	0.0067	56.6
0.0037	-0.0533	-0.0023	0.0067	56.6
0.0052	-0.0511	-0.0015	0.009	56.6
0.0045	-0.0495	0.0015	0.0105	56.7
0.0097	-0.0495	0.003	0.009	56.7
0.0082	-0.0488	0.003	0.0082	56.7
0.0105	-0.048	0.003	0.0082	56.7
0.0105	-0.0473	0.0022	0.0082	56.7
0.009	-0.0465	0.003	0.0045	56.7
0.0105	-0.0458	0.0015	0.006	56.7
0.0052	-0.0436	-0.0008	0.006	56.7
0.009	-0.0428	-0.0008	0.0045	56.7
0.0082	-0.0413	-0.0015	0.003	56.7
0.0052	-0.0413	0	0	56.7
0.0067	-0.0413	0.0007	0.0007	56.7
0.0007	-0.042	-0.0015	-0.0008	56.7
-0.0008	-0.039	-0.0008	-0.0008	56.7
-0.0038	-0.0361	-0.0023	0.0015	56.7
-0.0083	-0.033	-0.0015	0.0037	56.8
-0.0038	-0.0285	0	0.0052	56.8
-0.003	-0.03	0.0015	0.003	56.8
0.003	-0.0256	0.0037	0.0052	56.8
0.0015	-0.0233	0.003	0.003	56.8
0.003	-0.021	0.0037	0.003	56.8
0.0067	-0.0165	0.0015	0	56.7
0.0052	-0.0165	-0.0008	-0.0023	56.7
0.009	-0.012	-0.0015	-0.0015	56.7
0.003	-0.012	-0.0015	-0.0046	56.7
0.0052	-0.0091	0.0007	-0.0023	56.7
0.0022	-0.0046	0	-0.0053	56.7
0.0007	-0.0046	0	-0.0046	56.7
0.0037	-0.0008	-0.0008	-0.003	56.7
-0.003	0.0007	0.0007	-0.0038	56.6
0.003	0.0045	0.0007	-0.0023	56.6
0.0007	0.0067	0	-0.0046	56.6
0	0.0082	0.0015	-0.0046	56.6
0.0022	0.012	0.0045	-0.0068	56.6
0.0015	0.0142	0.0045	-0.0053	56.5
0.0082	0.018	0.003	-0.0053	56.5
0.0075	0.0202	0.0045	-0.0053	56.5
0.009	0.0217	0.0015	-0.0046	56.4
0.0105	0.0232	0.0007	-0.0068	56.4
0.0067	0.0255	0	-0.0046	56.4
0.009	0.027	-0.0008	-0.0015	56.4
0.0127	0.0285	-0.0008	0	56.4
0.0135	0.0307	0.0007	-0.0015	56.4
0.0165	0.0307	0.0037	-0.0023	56.4
0.015	0.033	0.0022	-0.003	56.3
0.0157	0.033	0.003	-0.0053	56.3
0.018	0.0345	0.0052	-0.0068	56.3
0.0127	0.0345	0.0037	-0.0083	56.3
0.012	0.033	0.003	-0.0068	56.3
0.0105	0.0315	0	-0.0046	56.2
0.0082	0.0307	-0.0008	-0.0008	56.2
0.0105	0.0315	0	0	56.2
0.0067	0.0292	-0.0008	-0.0015	56.2
0.0097	0.0285	0.0015	-0.0053	56.2
0.0067	0.027	0.0037	-0.0053	56.2
0.0052	0.0262	0.0045	-0.003	56.2
0.0105	0.027	0.0007	-0.0015	56.1
0.0082	0.0262	0.0007	-0.0015	56.1
0.0127	0.0255	0.0007	-0.0023	56.1
0.0135	0.0232	0.0007	-0.0038	56.1
0.0142	0.0217	0.0015	-0.0075	56.1
0.0142	0.0202	0.0007	-0.0053	56.1
0.009	0.018	0.003	-0.003	56.1
0.012	0.0157	0	-0.003	56.1
0.009	0.0127	-0.0008	-0.0008	56.1
0.0045	0.0127	0.0015	-0.0008	56
0.0067	0.0135	0.0007	0	56
0.0052	0.012	0.003	-0.0008	56
0.0097	0.0112	-0.0008	-0.003	56
0.0082	0.0127	-0.0015	-0.0015	56
0.0045	0.012	-0.0023	-0.003	56
0.0052	0.012	-0.0015	-0.0023	56
-0.0008	0.012	0.0007	-0.0023	56
0.0007	0.012	-0.0015	-0.0015	56
0.0007	0.012	0.0007	0.0015	56
0.0007	0.012	-0.0015	-0.0008	55.9
0.0037	0.012	-0.003	0.0007	55.9
-0.0015	0.012	-0.003	0.003	55.9
0.0015	0.0105	-0.0008	0.0015	55.9
0.0022	0.009	0.0015	0.0015	55.9
-0.0008	0.0105	0.0007	-0.0008	55.9
0.0015	0.012	0.0022	-0.0008	55.9
-0.0015	0.0135	-0.0008	-0.0038	55.9
-0.0053	0.0127	-0.0023	-0.0053	55.9
-0.0015	0.0105	0	-0.0046	55.9
-0.003	0.0097	-0.0015	-0.003	55.9
0.0015	0.009	0	-0.0015	55.9
0.003	0.0127	-0.003	-0.0015	55.9
0.0015	0.0112	-0.0015	-0.0038	55.9
0.0045	0.0097	0.0007	-0.0046	55.9
-0.0015	0.0105	-0.0015	-0.0015	55.9
0.003	0.0105	-0.0008	-0.0008	55.9
0.003	0.0142	-0.0008	-0.0015	55.9
0.0015	0.0142	0	0.0007	55.9
0.0045	0.015	0	0.0015	55.9
-0.0015	0.0142	-0.0008	0	55.9
-0.003	0.012	0.0007	-0.0015	55.9
-0.0098	0.012	0.0015	-0.0038	55.9
-0.0128	0.012	0.0022	-0.003	55.9
-0.0105	0.0097	0.0022	0.0007	55.9
-0.0128	0.0105	0.0015	0.0037	55.9
-0.0091	0.009	0.0007	0.0037	55.9
-0.0068	0.009	0.0007	0.003	55.9
-0.0075	0.009	0	0.0045	55.9
-0.0046	0.0097	-0.0015	0.0052	55.9
-0.0053	0.0105	-0.003	0.0052	55.9
-0.0008	0.012	-0.003	0.0067	55.9
0.0015	0.0105	0.0007	0.0045	55.9
0.0007	0.0082	0	0.0022	55.9
0.0045	0.0082	0.0015	0.003	55.9
-0.0015	0.0067	0.0015	-0.0008	55.9
-0.0008	0.0067	0.0007	0	55.9
-0.003	0.0082	0.0007	0.0015	55.9
-0.0068	0.0045	-0.0008	0.003	55.9
-0.0053	0.0045	0	0.0075	55.9
-0.0105	0.003	-0.003	0.0037	55.9
-0.0053	0.0015	-0.0008	0.003	55.9
-0.0098	0.0015	-0.0008	0.0045	55.9
-0.0083	-0.0008	-0.0015	0.003	55.9
-0.0046	-0.0015	0	0.0015	55.9
-0.0083	-0.003	0.0007	0.003	55.9
-0.0053	-0.003	0.0015	0.003	55.9
-0.0091	-0.003	0	0.0022	55.9
-0.0083	-0.0068	0.0015	0.0007	55.9
-0.006	-0.0083	0.003	-0.0008	55.9
-0.0046	-0.0105	0.0015	-0.0015	55.9
0.0007	-0.0128	0.003	0	55.9
-0.0053	-0.0128	0.0015	0.0007	56
-0.006	-0.0135	0.003	0.0015	56
-0.0068	-0.0173	0.0007	0.0045	56
-0.012	-0.0181	-0.0008	-0.0008	56
-0.0105	-0.0188	-0.0008	0	56
-0.0128	-0.0203	-0.0008	0.0045	56
-0.0105	-0.021	-0.0008	0.0007	56
-0.0083	-0.0218	-0.0008	0.0015	56
-0.0083	-0.0203	-0.0015	0.0022	56
-0.0046	-0.0218	-0.0008	0.003	56
-0.0068	-0.0203	0.003	0	56
-0.0068	-0.0203	0.0022	-0.0008	56
-0.003	-0.0195	0.0007	-0.0008	56
-0.0038	-0.021	0.003	-0.0008	56
-0.0008	-0.0233	0.0015	0.0007	56
0.0022	-0.0225	-0.0008	-0.0008	56
0	-0.024	0.0007	0.0022	56
0.0007	-0.0233	-0.0008	0.0015	56
-0.003	-0.024	-0.0008	0.0015	56
-0.0008	-0.0218	-0.0015	0.003	56
0.0007	-0.0218	-0.0053	0.0015	56
-0.0038	-0.0233	-0.003	0.0015	56
-0.0015	-0.0225	0.0007	0.0007	56
-0.003	-0.0203	0.0045	0.0052	56
0.0007	-0.0165	0.0045	0.0037	56
0.003	-0.0158	0.0015	-0.0008	56
0.003	-0.0158	0.0022	-0.0008	56
0.009	-0.0158	0.0015	-0.0008	56
0.0052	-0.0158	0.0007	0.0022	56
0.009	-0.0158	-0.0008	0.003	56
0.0105	-0.0158	0.0007	0.003	55.9
0.0112	-0.0128	0.0007	0.0007	55.9
0.0142	-0.0091	0.003	-0.003	55.9
0.0082	-0.0098	0.0045	-0.0038	55.9
0.0067	-0.0083	0.0022	-0.003	55.9
0.0052	-0.006	0.003	-0.0038	55.9
0.0022	-0.0083	0.0015	-0.0053	55.9
0.0045	-0.0068	0.003	-0.0053	55.9
0.0045	-0.0046	-0.0015	-0.0046	55.9
0.009	-0.006	-0.0038	-0.003	55.9
0.0135	-0.0038	-0.0015	0.0007	55.9
0.0127	-0.003	-0.0015	0.0015	55.9
0.0157	0.0007	0.0015	0.003	55.9
0.0165	0.0052	0.0022	0.0037	55.8
0.0195	0.0052	0.003	-0.0008	55.8
0.0195	0.009	0.003	0.0022	55.8
0.015	0.0105	0.003	0.003	55.8
0.0165	0.0112	0.0052	-0.0008	55.8
0.0165	0.009	0.003	-0.0015	55.8
0.0195	0.0082	0.0045	-0.003	55.8
0.0187	0.0082	0.0015	-0.0046	55.8
0.0142	0.0052	0.0007	-0.0053	55.8
0.0157	0.006	0.0015	-0.0046	55.8
0.0105	0.0052	0.0022	-0.003	55.8
0.0135	0.0052	0.0045	-0.003	55.8
0.0142	0.0052	0.0022	-0.0046	55.8
0.0105	0.0045	0.0015	-0.0038	55.8
0.015	0.0052	0.0007	-0.0023	55.8
0.0105	0.0052	-0.0008	-0.0023	55.7
0.009	0.003	-0.0015	-0.0015	55.7
0.012	0.0045	-0.0023	0	55.7
0.006	0.0067	-0.003	-0.0008	55.7
0.0105	0.0067	-0.003	-0.0008	55.7
0.009	0.0067	-0.0053	-0.0023	55.7
0.009	0.006	-0.003	0	55.7
0.0127	0.003	0.0007	-0.0008	55.7
0.0082	0.0015	-0.0008	0	55.7
0.009	0.0007	-0.0008	0.003	55.7
0.0052	0	0.0007	0	55.6
0.0052	0.003	0.0007	-0.0008	55.6
0.006	0.0037	0.0007	-0.0023	55.6
0.0007	0.0067	0.0007	-0.003	55.6
0.006	0.0082	-0.0008	-0.0015	55.6
0.0045	0.0082	0	-0.0015	55.6
0.0045	0.0082	0.0007	-0.0015	55.6
0.0052	0.0052	-0.0008	-0.003	55.6
0.0007	0.0045	0.0007	-0.0046	55.6
0.0007	0.0052	0.0022	-0.003	55.6
-0.0015	0.0075	0.0015	-0.003	55.6
-0.0015	0.0082	0.0007	-0.0038	55.6
0.0022	0.0112	-0.0008	-0.0046	55.5
0.003	0.012	-0.0023	-0.0053	55.5
0.0045	0.0105	-0.0008	-0.0046	55.5
0.0037	0.012	-0.0015	-0.003	55.5
0.0007	0.0082	-0.0015	-0.003	55.5
0.003	0.009	-0.0015	-0.0015	55.5
-0.0008	0.0082	-0.0023	-0.0008	55.5
-0.003	0.0067	-0.0015	-0.0008	55.5
-0.0038	0.009	-0.0015	0.003	55.5
-0.0083	0.0075	0	0.0015	55.5
-0.0046	0.0075	-0.0008	0.0015	55.4
-0.006	0.0052	-0.0008	0.0015	55.4
-0.006	0.0015	0.0007	-0.0015	55.4
-0.0046	0.003	0.0007	0.0007	55.4
-0.0046	0.003	0.0037	-0.0015	55.4
-0.0015	0.003	0.0015	0.0007	55.4
-0.0046	0.003	0.003	0.0037	55.4
-0.0038	0.0037	0.0045	0.003	55.4
0.0007	0.0045	0.003	0.0022	55.4
