File Name: 6Nmar.log
Channel 1: 'RF', 7300 values, engineering units: mV, no filters.
Channel 2: 'BF', 7300 values, engineering units: mV, no filters.
Channel 3: 'VM', 7300 values, engineering units: mV, no filters.
Channel 4: 'ST', 7300 values, engineering units: mV, no filters.
Channel 5: 'FX', 366 values, engineering units: deg, no filters, extrapolated from 50 to 1000 samples per second.

-0.0008	-0.0046	0.003	-0.0098	-59.1
0.0007	-0.0053	0.0015	-0.006	-59.2
0	-0.0046	0.003	-0.0015	-59.3
0.0007	-0.0015	0.0067	0.003	-59.4
-0.0008	-0.0023	0.0052	0.012	-59.4
-0.0008	-0.0015	0.006	0.0165	-59.5
-0.0015	0.0007	0.0052	0.018	-59.6
-0.0008	0.0022	0.0045	0.0202	-59.7
0.0015	0.003	0.0067	0.0165	-59.8
0.0015	0.0022	0.0045	0.0127	-59.9
0.0007	0.0015	0.0045	0.0105	-60
-0.0015	0.0007	0.0037	0.009	-60.1
0.0007	0.0015	0.0045	0.0045	-60.2
0	-0.0008	0.003	0	-60.3
0.0007	-0.0015	0.0007	-0.0015	-60.4
0.0045	-0.003	0.0007	-0.006	-60.5
0.0007	-0.0046	0.0007	-0.0091	-60.6
0.0007	-0.003	0.0015	-0.0091	-60.7
0.0007	-0.0046	0.0015	-0.0091	-60.8
0.0007	-0.003	-0.0008	-0.0068	-60.8
0.0007	-0.003	-0.0008	-0.0053	-61
-0.0008	-0.0015	-0.003	-0.0053	-61
0	0	-0.0008	-0.006	-61
-0.0023	0	0.0022	-0.0053	-61.1
-0.003	0	0.003	-0.0068	-61.2
-0.003	0.0007	0.0052	-0.0083	-61.2
-0.0023	0.0015	0.0052	-0.0053	-61.2
-0.0008	-0.0015	0.0045	-0.0053	-61.3
-0.0008	-0.0015	0.0052	-0.0038	-61.4
0.0007	-0.003	0.0067	-0.003	-61.4
-0.0008	-0.0015	0.0067	-0.0008	-61.5
0.0007	0.0007	0.0052	0.0045	-61.5
0	0.0007	0.0067	0.006	-61.6
-0.0015	0.003	0.0052	0.0105	-61.7
-0.0023	0.0007	0.0045	0.012	-61.7
-0.0023	0.0007	0.003	0.0112	-61.7
-0.0008	0.0015	0.0022	0.0067	-61.8
-0.003	0.0007	0.003	0.0015	-61.8
-0.0023	0.0007	0.0022	-0.0015	-61.9
-0.0023	0.0007	0.0015	-0.0046	-62
-0.0015	-0.0015	0.0007	-0.0053	-62.1
0	-0.0015	0	-0.0053	-62.1
-0.0015	-0.0015	-0.0008	-0.0046	-62.1
-0.0015	-0.003	-0.0015	-0.0038	-62.1
0.0007	-0.003	-0.0015	-0.0053	-62.1
0	-0.0023	0.0007	-0.0068	-62.1
-0.0008	-0.0023	0	-0.0046	-62.1
-0.0008	-0.003	-0.003	-0.0038	-62.1
-0.0015	-0.0038	-0.0038	-0.0053	-62.2
-0.0008	-0.003	-0.0015	-0.0023	-62.2
0	-0.0015	-0.0008	-0.0008	-62.2
-0.0008	-0.003	0	0.0007	-62.2
0	-0.0023	-0.0015	-0.0008	-62.2
-0.0008	-0.0015	-0.0008	-0.003	-62.3
0.0007	-0.0046	0.0015	-0.0008	-62.3
0.003	-0.0038	0.003	-0.0015	-62.3
0.0037	-0.003	0.0022	-0.0038	-62.3
0.003	-0.0015	0.0015	-0.0038	-62.4
0.003	0.0007	0	-0.0008	-62.4
0.003	-0.0008	-0.0015	0.0015	-62.4
0.0015	-0.0015	-0.0015	0.0045	-62.5
0.003	-0.0023	-0.0015	0.0045	-62.5
0.003	-0.0023	0	0.0052	-62.4
0.0022	-0.0015	0.0007	0.006	-62.4
0.0022	-0.003	0.0015	0.0067	-62.4
0.003	-0.0038	0.0015	0.0082	-62.4
0.003	-0.003	0.003	0.0052	-62.3
0.003	-0.0023	0.003	0.0052	-62.3
0.003	-0.0015	0.003	0.003	-62.3
0.0015	-0.0015	0.0022	0	-62.3
0.0007	-0.0008	0.0015	0.0015	-62.2
0.0022	-0.0015	0.003	-0.0008	-62.2
0.003	-0.0008	0	-0.0046	-62.2
0.0015	0.0007	-0.0008	-0.0046	-62.2
0.0007	0	-0.0008	-0.003	-62.2
0.0015	-0.0015	-0.0015	-0.0008	-62.1
0.0007	-0.003	0.0007	0.0015	-62.1
0.0007	-0.003	0.0007	0.003	-62.1
0.0022	-0.0023	0.0015	0.0067	-62.1
0.0015	-0.0015	0.003	0.0075	-62.1
0.0007	-0.003	0.0022	0.0052	-62.1
0	-0.003	0.003	0.0052	-62
-0.0015	-0.003	0.0015	0.0052	-62
-0.0023	-0.0008	-0.0015	0.006	-61.9
-0.0008	-0.0008	-0.0008	0.0045	-61.8
0	-0.0015	-0.0008	0	-61.8
-0.0015	-0.0015	-0.0008	-0.0015	-61.7
-0.0015	-0.0008	-0.0008	-0.0046	-61.7
0	-0.0008	-0.0008	-0.0053	-61.6
0.0007	-0.0008	0.0007	-0.003	-61.6
0.0007	-0.0008	0.0007	-0.0008	-61.5
-0.0008	-0.0008	0.0015	0	-61.4
-0.0015	-0.0008	0.0007	-0.003	-61.4
-0.0008	-0.0008	0.0022	-0.0046	-61.3
-0.0015	-0.0015	0.0052	-0.0053	-61.2
-0.0023	-0.0015	0.003	-0.0053	-61.2
0.0007	-0.0008	0.0022	-0.0038	-61.2
0.0007	0.0007	0.003	-0.0046	-61.1
-0.0008	0.0022	0.0022	-0.003	-61
0.0022	0.0007	0.0015	-0.0038	-61
0.0015	-0.0008	0.0007	-0.0023	-60.9
0.0015	-0.0008	0	-0.0008	-60.8
0.0007	0	-0.0008	-0.0015	-60.8
-0.0023	-0.0008	0.0007	0	-60.7
-0.0015	-0.0015	0.0007	0.0007	-60.6
-0.0008	-0.0015	0.0007	-0.0008	-60.4
0.0007	0	0.0015	-0.0008	-60.3
0.0015	-0.0008	0.0015	0.0007	-60.3
0	-0.0015	0.0015	-0.0008	-60.2
-0.0015	-0.0008	0.0015	-0.0015	-60.1
-0.0015	-0.0015	0.0015	0.0007	-60
-0.0023	-0.0015	0.0015	0	-59.9
-0.003	-0.003	0.0015	0.0007	-59.8
-0.0008	-0.0015	0.003	0	-59.7
-0.0008	-0.0015	0.0045	0.0015	-59.6
-0.0008	-0.003	0.003	0.0015	-59.5
0.0007	-0.0023	0.0045	0.0007	-59.4
0.0007	-0.0023	0.0052	0.0015	-59.3
-0.0015	-0.0008	0.003	0.0015	-59.2
0	-0.0008	0.0015	0.0045	-59.1
0	-0.0008	0.0007	0.0037	-59
-0.0023	0.0007	0.0015	0.0015	-58.9
-0.0015	0.0015	0.0015	0.0015	-58.8
-0.003	0.0015	0.0015	0.0007	-58.6
-0.0008	0.0007	0	-0.0015	-58.5
0.0007	-0.0008	-0.0008	-0.0015	-58.4
-0.0008	0.0015	0.0015	-0.0015	-58.3
0.0007	0.0015	0.0015	0	-58.1
0	0.0007	0.0007	0.0015	-58
-0.0008	0.0015	0.0007	0.0022	-57.9
0.0007	-0.0008	0.0007	0.0015	-57.7
0.0015	-0.0023	0.0022	0.0015	-57.6
0.0022	-0.0015	0.0022	0.0015	-57.5
0.003	-0.0015	0.0045	0.0015	-57.3
0.003	-0.0015	0.0037	0.0007	-57.2
0.003	-0.003	0.0022	-0.0008	-57.1
0.0022	-0.0046	0.0015	-0.0008	-57
0.003	-0.0046	0.0015	0.0007	-56.8
0.0037	-0.0023	0.003	0.0007	-56.7
0.0015	-0.003	0.0007	0	-56.6
-0.0008	-0.0015	0	0.0022	-56.4
0	-0.003	-0.0015	0.0022	-56.3
0.0007	-0.0046	-0.0015	0.0007	-56.1
0.0015	-0.0008	-0.0008	0	-56
0	0	0.0015	0.0007	-55.8
-0.0023	0	0.003	0	-55.7
-0.0015	-0.0008	0.003	-0.0015	-55.5
-0.003	-0.003	0.0037	-0.0015	-55.4
-0.0046	0	0.0037	-0.0023	-55.2
-0.0038	-0.0008	0.0037	-0.003	-55
-0.0023	-0.0023	0.0007	-0.003	-54.9
-0.0015	-0.0015	0.0007	-0.0068	-54.8
-0.003	-0.0015	0.003	-0.0053	-54.6
-0.0023	-0.0046	0.0015	-0.0053	-54.5
-0.0023	-0.0046	0.0015	-0.0053	-54.3
-0.0008	-0.0008	0.0007	-0.0038	-54.1
0.0015	-0.0015	-0.0015	-0.0038	-54
0.0015	-0.0015	0	-0.0046	-53.8
0.0007	-0.003	0.0007	-0.0038	-53.7
0.0007	-0.0038	0.0007	-0.0015	-53.5
0.0007	-0.0015	0.003	0	-53.4
-0.0008	-0.003	0.0015	0.0015	-53.2
-0.0015	-0.0015	0.0045	0.0015	-53
-0.0023	0	0.0022	0.0015	-52.8
-0.0023	-0.0008	0.0007	0.003	-52.7
-0.0008	0.0007	0.003	0.0007	-52.5
0.0015	0.0007	0.0015	0.0015	-52.3
0.0007	0.0007	0.0007	0.0007	-52.1
-0.0008	0	-0.0008	-0.0008	-51.9
0.0007	-0.0015	0.0007	0.0015	-51.8
-0.0008	0.0007	0.003	-0.0008	-51.6
-0.0015	-0.0008	0.0045	-0.0008	-51.4
0	-0.0008	0.006	0.0007	-51.3
0.0007	-0.0008	0.0052	0.0015	-51.1
0.0007	-0.0015	0.003	0.0007	-50.9
0.0015	0.0007	0.0015	0.0022	-50.7
0.0022	0.0007	0.0007	0.003	-50.5
0.0007	0	0.0015	0.0045	-50.4
0	0.0007	0.0007	0.0052	-50.2
0.0007	-0.0015	0.003	0.0052	-50
-0.0008	-0.0023	-0.0008	0.0052	-49.8
-0.0023	0.0015	-0.0015	0.003	-49.6
-0.0015	0.003	-0.0008	0.0007	-49.4
-0.0008	0.0022	-0.003	0.0015	-49.2
0.0022	0.0007	-0.003	0.0007	-49
0.003	-0.0015	-0.003	-0.0008	-48.7
0.0022	-0.0038	-0.003	0	-48.6
0.0022	-0.0015	-0.003	0.0015	-48.3
0.0015	0	-0.003	0.0007	-48.1
-0.0008	-0.0008	-0.0008	0.003	-47.9
-0.0008	0.0007	-0.0015	0.0022	-47.7
0	0.0007	-0.0023	0.0007	-47.5
0.0007	-0.0023	0	0.0007	-47.3
-0.0015	-0.003	0.0007	-0.0008	-47.1
0	-0.003	0.0015	-0.0015	-46.8
0	-0.0046	0.003	-0.0046	-46.6
-0.0015	-0.0053	0.0015	-0.003	-46.4
-0.003	-0.0046	0.003	-0.0015	-46.2
-0.0038	-0.003	0.0007	-0.0015	-46
-0.0023	-0.0015	-0.0023	0.0007	-45.8
-0.003	-0.0008	0.0007	-0.0015	-45.6
-0.0008	0.0007	0.0007	0.0007	-45.4
0.0007	0.0015	0.0015	0.003	-45.1
0.0022	0.0015	0.0022	0.0022	-44.9
0.0015	0.0015	0.003	0.003	-44.6
-0.0008	0.0007	0.0045	0.0015	-44.4
0.0007	0.0015	0.0015	0.0015	-44.1
0.0007	0.0007	0.0015	0.0015	-43.9
-0.0008	-0.0008	0.0015	0.0045	-43.6
0.0015	-0.006	0.0007	0.003	-43.4
0.0007	-0.0105	0.0015	0.003	-43.1
0.0007	-0.0098	0.0007	0.0015	-42.9
-0.0008	-0.0068	0.0007	0.0007	-42.7
-0.0015	-0.0053	0.0015	0.0007	-42.4
-0.0008	-0.0038	0.0037	0.0007	-42.2
-0.0008	-0.003	0.0052	0.0022	-41.9
0	-0.0023	0.0015	0.003	-41.7
0	-0.0008	-0.0008	0	-41.4
0	0.0007	-0.003	-0.0008	-41.2
0.0015	0.0007	-0.0046	-0.0015	-40.9
0.0007	0.0007	-0.003	0.0007	-40.7
0.0015	0	-0.0015	0.0015	-40.4
0.0007	0.0007	0	-0.0008	-40.2
-0.0015	0.0007	-0.0015	-0.0008	-39.9
0.0015	0.0007	0	0.0007	-39.6
0.0015	0.003	0.0022	0.0007	-39.4
0.0007	0.003	0.0022	0.0007	-39.1
-0.0008	0.0022	0.0045	-0.0015	-38.9
0	0.003	0.0022	-0.0046	-38.6
-0.0008	0.0007	0.0007	0	-38.3
-0.0008	-0.0008	0	0	-38.1
-0.0015	-0.0008	0.0022	0	-37.8
-0.003	0	0.006	0.0022	-37.6
-0.0008	0.0015	0.0045	0.0015	-37.3
-0.0008	0.0007	0.0052	0.003	-37.1
0.0007	0.0022	0.0052	0.0022	-36.8
0.0022	0.0022	0.0045	0.0022	-36.5
0.0007	0.0015	0.0015	0.0007	-36.3
0.0022	-0.0008	0	-0.0008	-36
0.0022	-0.0015	0.0015	-0.0015	-35.8
0.0007	-0.0015	0	-0.0015	-35.5
0.0015	-0.0038	0.0007	-0.006	-35.2
0	-0.0046	0.003	-0.0046	-35
-0.0008	-0.0038	0.003	0.0007	-34.7
-0.0015	-0.0053	0.0015	0.0022	-34.4
-0.003	-0.0053	-0.0008	0.003	-34.1
-0.003	-0.0053	0.0007	0.0007	-33.8
-0.0015	-0.0083	-0.0008	-0.0015	-33.6
-0.0008	-0.0053	0.0007	-0.0008	-33.3
-0.0008	-0.0053	0.0015	0	-33
0.0022	-0.0046	0	0.0015	-32.8
0.0022	-0.0015	-0.0015	0.0007	-32.5
0.0022	-0.0008	-0.003	0.003	-32.2
0.0022	0.0007	0.0015	0.0045	-32
0.003	0.003	0.0045	0.0045	-31.7
0.0045	0.0052	0.003	0.003	-31.4
0.003	0.0037	0.0015	0.0007	-31.1
0.0015	0	0.0022	-0.0008	-30.8
0.0007	-0.003	0.0037	-0.0053	-30.6
-0.0023	-0.0046	0.0045	-0.0068	-30.3
-0.003	-0.0053	0.003	-0.0083	-30
-0.0008	-0.006	0.0045	-0.0068	-29.7
0.0015	-0.006	0.0007	-0.0053	-29.5
0.003	-0.0053	0	-0.0053	-29.2
0.0052	-0.0038	0.0007	-0.0046	-28.9
0.003	-0.0015	0.0007	-0.0046	-28.6
0.003	0.0007	0.0007	-0.0023	-28.4
0.0037	0.0015	0.0007	-0.0015	-28.1
0.003	0	0.0007	-0.0015	-27.8
-0.0023	-0.003	0.0015	-0.0008	-27.5
-0.0046	-0.0015	0.0007	0.0007	-27.2
-0.0038	0	0	0.0015	-27
-0.003	0.0007	0.0007	0.0045	-26.7
-0.0023	0.0007	0.003	0.0045	-26.4
-0.0023	-0.003	0.003	0.0052	-26.1
0.0015	-0.0015	0.003	0.006	-25.8
0.003	-0.0008	0.0007	0.0045	-25.6
0.0105	-0.0008	-0.0015	0.0052	-25.3
0.0157	-0.0008	-0.0015	0.003	-25
0.0097	-0.0023	0.0007	0.0015	-24.7
0.0037	0.0007	0.0015	0.0007	-24.4
-0.0053	0.0007	0.0022	0.0015	-24.2
-0.0128	-0.0008	0.003	0.0045	-23.9
-0.012	-0.0046	0.0037	0.003	-23.7
-0.0128	-0.0098	0.0015	0.0015	-23.4
-0.012	-0.0083	0	-0.0023	-23.1
-0.0091	-0.0091	-0.0008	-0.003	-22.9
-0.0046	-0.0083	-0.0008	-0.0046	-22.6
0	-0.0023	0	-0.0046	-22.4
0.0022	-0.0008	0	-0.0023	-22.1
0.0015	-0.0008	-0.0008	0.0015	-21.8
0.003	0.0015	-0.0008	0.0022	-21.6
0.0082	0.0022	-0.0008	0.0045	-21.3
0.0082	0.003	-0.0008	0.0067	-21.1
0.0045	0.0045	0.0015	0.0067	-20.8
0.0015	0.0037	0.0037	0.0067	-20.6
0.0007	0.0015	0.0045	0.0015	-20.3
0.0007	0.0007	0.0052	-0.0038	-20
-0.0023	0	0.003	-0.0053	-19.8
-0.0008	-0.0008	0.003	-0.0053	-19.5
0.0022	-0.0015	0	-0.0075	-19.3
0.003	-0.003	-0.0023	-0.0068	-19.1
0.0045	-0.0015	-0.0008	-0.0015	-18.9
0.0045	0.0015	-0.003	-0.0015	-18.7
0.0007	0.0037	-0.003	-0.0023	-18.5
-0.003	0.0045	-0.003	-0.0046	-18.3
-0.0015	0.0045	0	-0.0046	-18
0.0015	0.0022	0.003	-0.0023	-17.9
0.0015	0.0015	0.0037	-0.0053	-17.6
0.0045	0.0007	0.0067	-0.0046	-17.5
0.0067	0.0022	0.009	-0.0008	-17.2
0.0097	0.0007	0.0067	-0.0008	-17.1
0.0105	-0.0023	0.0037	-0.0008	-16.9
0.003	-0.0015	0.0022	0.0015	-16.7
-0.0008	-0.0008	0.0015	0.0045	-16.5
-0.003	-0.0008	0.0015	0.006	-16.2
-0.0046	0.003	0.0037	0.0105	-16.1
-0.003	0.006	0.003	0.0112	-15.8
-0.0008	0.006	0.0007	0.0075	-15.7
0.0052	0.0045	0.0007	0.006	-15.4
0.0082	0.003	0.0015	0.003	-15.3
0.0052	-0.0015	0.0015	-0.0023	-15.1
-0.0015	-0.0046	0.0015	-0.0008	-14.9
-0.0083	-0.0083	0.0007	-0.0015	-14.8
-0.0113	-0.0105	0	-0.0046	-14.7
-0.0113	-0.0098	-0.0015	-0.0046	-14.5
-0.0098	-0.0091	-0.003	-0.0075	-14.4
-0.0091	-0.006	-0.0023	-0.0046	-14.2
-0.0046	0	-0.0038	-0.0015	-14.1
-0.0015	0.0037	-0.0015	-0.0008	-14
-0.0008	0.0037	0.0007	-0.0015	-13.8
0.003	0.003	0.0015	-0.0015	-13.6
0.003	0.0015	0.0022	-0.0008	-13.5
0.0045	-0.0008	0.0015	-0.0015	-13.4
0.0067	-0.003	0.0007	0.0007	-13.2
0.0067	-0.0053	-0.0015	0.0007	-13.1
0.0037	-0.006	-0.0015	-0.003	-12.9
-0.0008	-0.0053	0.0022	-0.003	-12.8
-0.0015	-0.0046	0.0007	-0.0015	-12.6
-0.003	-0.0015	-0.0008	-0.0008	-12.5
-0.0008	-0.0008	0.0015	-0.0008	-12.3
-0.003	0.0007	-0.0008	0.003	-12.2
-0.006	0.0022	0	0.0015	-12.1
-0.003	0.003	0.0015	0.0007	-12
-0.0023	0.003	0.0007	0.003	-11.9
-0.0008	0.0022	0.0022	0.003	-11.8
-0.0008	0.0052	0.0007	0.0045	-11.7
-0.0008	0.0052	-0.0015	0.0037	-11.6
-0.0015	0.003	0.0007	0	-11.5
-0.003	-0.0015	0.0015	-0.003	-11.4
-0.0038	-0.0046	0.0045	-0.003	-11.3
-0.0023	-0.003	0.0037	-0.0008	-11.2
-0.0008	-0.0015	0	0.0022	-11.1
-0.0008	-0.0015	0.0015	0.003	-11
0.0007	-0.0023	0.0022	0.0022	-10.9
0	-0.0068	0.0022	0.0015	-10.8
0.0015	-0.0091	0.0052	-0.0008	-10.7
-0.0008	-0.0053	0.0007	-0.0015	-10.6
0	-0.0053	0.0022	0	-10.5
0.003	-0.003	0.0105	0.0007	-10.4
0.0045	-0.003	0.012	-0.003	-10.3
0.003	-0.003	0.0112	-0.003	-10.3
0.0015	0	0.0052	-0.003	-10.2
0.0045	0	-0.0015	-0.003	-10.1
0.012	0.0022	-0.0053	-0.0008	-10.1
0.0112	0.0015	-0.0046	0.0007	-10
0.0037	0.0007	-0.0053	0.0007	-9.9
-0.0015	0.0007	-0.0046	0.0015	-9.9
-0.0091	0.003	-0.0008	0.0045	-9.9
-0.0158	0.0067	0.0015	0.0045	-9.8
-0.0105	0.0037	0.0015	0.0045	-9.7
-0.0083	0.0052	-0.003	0.0067	-9.7
-0.0053	0.0007	-0.0083	0.003	-9.6
-0.003	-0.0075	-0.0083	-0.0015	-9.5
-0.0046	-0.0105	-0.0068	-0.0053	-9.5
-0.0046	-0.0165	-0.003	-0.0075	-9.4
-0.0023	-0.015	0.0045	-0.006	-9.4
-0.0008	-0.0091	0.0097	-0.0046	-9.3
0.0022	-0.0053	0.0165	-0.003	-9.3
0.0037	-0.003	0.021	-0.003	-9.2
0.0022	-0.0023	0.012	-0.0038	-9.1
0.0052	-0.0015	0.0015	-0.003	-9.1
0.0037	-0.003	-0.0038	-0.0023	-9.1
0.0045	-0.0068	-0.0091	-0.003	-9.1
0.0045	-0.0068	-0.0105	-0.0015	-9.1
0.006	0.003	-0.015	0.0045	-9.1
0.009	0.0082	-0.0143	0.0105	-9
0.0067	0.0052	-0.0098	0.012	-9
0.0052	0.0082	-0.0068	0.012	-9
0.0045	0.0075	-0.0023	0.009	-9
0.0052	0.003	-0.0008	0.0022	-9
0.003	-0.0046	0.0007	-0.0075	-9
-0.0053	-0.012	0.0082	-0.015	-9
-0.0068	-0.0143	0.018	-0.0143	-9
-0.0053	-0.0083	0.0292	-0.0053	-9
-0.0015	0.0015	0.0352	0.0007	-9
0.0015	0.0067	0.0232	0.0045	-9
0.0052	0.0007	0.0082	0.0075	-9
0.0045	-0.0105	0	0.0052	-9
0.0037	-0.0158	-0.0053	-0.0053	-8.9
0.0045	-0.0105	-0.0098	-0.0105	-8.9
0.0015	-0.006	-0.0128	-0.0098	-8.9
-0.0015	-0.006	-0.0158	-0.0128	-8.9
-0.0038	-0.003	-0.0165	-0.0105	-9
-0.0023	0.0015	-0.0165	-0.0105	-9
-0.0008	0.0082	-0.0135	-0.0053	-9
-0.0015	0.0195	-0.0128	0.0015	-9
-0.0015	0.0247	-0.0083	0.0082	-9
-0.0015	0.018	-0.0053	0.0097	-9
-0.0015	-0.0091	-0.0038	0.0022	-9.1
-0.0015	-0.0278	-0.0008	0.003	-9.1
0	-0.0315	0.0052	0.003	-9.1
0.003	-0.0293	0.0112	0.0037	-9.2
0.0045	0	0.0067	0.018	-9.2
0.006	0.0315	0.0052	0.024	-9.2
0.0232	0.0307	0.012	0.0127	-9.2
0.0367	0.0157	0.024	0.0045	-9.3
0.0187	0.0022	0.0487	0.0037	-9.3
-0.0008	0.0015	0.0735	0.0075	-9.3
-0.012	0.0045	0.0555	0.0045	-9.3
-0.0285	-0.0038	0.0127	-0.0083	-9.4
-0.0346	-0.0068	-0.0165	-0.0053	-9.4
-0.0346	-0.0091	-0.0428	-0.0038	-9.5
-0.0278	-0.015	-0.0503	-0.0046	-9.5
-0.0143	-0.0128	-0.0511	-0.0046	-9.6
-0.0015	-0.015	-0.0518	-0.0113	-9.7
0.0082	-0.0225	-0.0428	-0.0128	-9.8
0.0045	-0.03	-0.0353	-0.0158	-9.8
0.0007	-0.024	-0.024	-0.021	-9.9
-0.0046	-0.0046	-0.0195	-0.0181	-9.9
-0.0068	0.0105	-0.0135	-0.0068	-10
-0.0038	0.0165	-0.0053	0.0045	-10.1
-0.0068	0.0165	-0.0023	0.012	-10.1
-0.0046	0.0142	0.0045	0.0052	-10.2
-0.0008	0.0142	0.0112	0.009	-10.3
0.009	0.0217	0.0172	0.027	-10.4
0.0195	0.042	0.0202	0.0315	-10.4
0.0217	0.0675	0.0247	0.0307	-10.5
0.0202	0.0517	0.0315	0.033	-10.5
0.012	0.0045	0.0307	0.027	-10.6
0.0022	-0.0083	0.0202	0.0067	-10.7
-0.0008	-0.0068	0.015	-0.0008	-10.8
0.0067	-0.0046	0.0172	-0.0038	-10.8
0.009	-0.024	0.018	-0.0075	-10.9
0.0052	-0.0465	0.0195	-0.0091	-11
0.0022	-0.0293	0.0127	-0.0165	-11.1
-0.012	-0.0135	0.0112	-0.0075	-11.2
-0.0473	-0.0105	0.0225	-0.003	-11.3
-0.0825	-0.0083	0.0292	0.003	-11.3
-0.0578	-0.0053	0.0225	0.0165	-11.4
-0.0225	0.0015	0.0105	0.0112	-11.5
-0.0015	0.0022	0.0015	0.0097	-11.6
0.0277	0	0.009	0.0202	-11.7
0.0345	0.006	0.024	0.0045	-11.8
0.0405	0.0135	0.018	-0.0165	-11.9
0.0405	0	-0.0053	-0.0308	-12
0.0352	-0.0256	-0.0218	-0.039	-12
0.033	-0.0465	-0.0248	-0.0225	-12.1
0.0307	-0.033	-0.0105	-0.0091	-12.2
0.0375	-0.0046	0.0007	-0.0091	-12.3
0.0352	-0.0105	-0.0105	-0.0143	-12.4
0.027	-0.0143	-0.0105	-0.0135	-12.5
0.0165	-0.0113	-0.0113	-0.0083	-12.6
0.0105	-0.0105	-0.0128	-0.0068	-12.6
0.0052	-0.0083	0.0045	-0.012	-12.7
-0.0046	-0.0195	0.018	-0.0195	-12.8
-0.0173	-0.027	0.015	-0.0195	-12.9
-0.0308	-0.027	0.0172	-0.0173	-13
-0.0383	-0.0105	0.0112	-0.0135	-13
-0.024	0.0127	-0.0068	-0.0053	-13.1
0.0082	0.0277	-0.0203	0.0187	-13.2
0.009	0.0262	-0.0428	0.0127	-13.3
-0.0128	0.0165	-0.039	-0.0075	-13.4
-0.0293	0.0172	-0.0083	-0.0091	-13.4
-0.033	0.0082	0.0217	-0.0158	-13.5
-0.0203	0.0187	0.0322	0.027	-13.6
0.0075	0.0517	0.0165	0.0945	-13.7
0.0195	0.0502	-0.0135	0.0915	-13.8
-0.0165	0.0127	-0.0503	0.033	-13.8
-0.0203	-0.0098	-0.0645	0.0052	-13.9
-0.0203	-0.0046	-0.06	0.0045	-14
-0.0233	0.0202	-0.0361	0.0052	-14
-0.0113	0.033	0.0045	0.0007	-14.1
-0.0105	-0.0008	0.0315	-0.0083	-14.1
0.0105	-0.033	0.0487	-0.015	-14.1
0.0142	-0.0285	0.0547	-0.021	-14.2
0.0292	-0.0181	0.0457	-0.0105	-14.2
0.0315	-0.0165	0.0315	-0.0083	-14.3
0.0142	-0.0158	0.0412	-0.0135	-14.3
0.0165	-0.0105	0.0577	-0.0135	-14.3
0.0067	-0.0068	0.051	-0.0046	-14.4
0.0015	-0.0015	0.0172	0.0007	-14.4
-0.0015	-0.0008	-0.0098	0.0045	-14.4
-0.003	-0.0075	-0.0353	0.0157	-14.4
-0.0023	-0.0046	-0.0465	0.0292	-14.5
-0.0008	0.0127	-0.0405	0.036	-14.5
0.0045	0.024	-0.0518	0.0285	-14.6
0.0135	0.0247	-0.0495	0.012	-14.6
0.0105	0.018	-0.0203	-0.0015	-14.6
-0.0195	0.021	0.0105	-0.012	-14.7
-0.0293	0.021	0.0315	-0.0158	-14.8
-0.0315	0.0142	0.0285	-0.003	-14.9
-0.0361	0.0037	0.0187	-0.0008	-15.2
-0.0233	-0.0218	0.0157	-0.0135	-15.3
-0.0053	-0.0533	0.0187	-0.0248	-15.6
0.0135	-0.0706	0.024	-0.0278	-15.8
0.027	-0.0623	0.015	-0.0173	-16
0.0255	-0.0405	-0.0083	-0.0046	-16.2
0.0157	-0.0233	-0.0315	0	-16.4
0.0045	-0.0113	-0.0346	0.0037	-16.7
0.0082	-0.0015	-0.0233	0.0067	-16.9
0.0165	-0.0015	-0.0105	0.0022	-17.1
0.0015	0.0015	0.003	0.0015	-17.3
-0.0068	0.0157	0.0082	0.0052	-17.5
0.003	0.024	0.0142	0.0105	-17.7
0.0105	0.027	0.021	0.0127	-17.9
0.0142	0.0292	0.0225	0.0165	-18.1
0.0307	0.0292	0.0202	0.0105	-18.4
0.0382	0.027	0.0232	0.0052	-18.5
0.0142	0.0255	0.03	0.0045	-18.8
0.0097	0.021	0.0277	-0.0015	-19
0.0292	0.0135	0.033	-0.0053	-19.2
0.0442	0.0082	0.039	-0.0143	-19.4
0.0532	0.0007	0.0232	-0.0195	-19.6
0.027	-0.0046	0.0112	-0.0218	-19.8
-0.0091	0	0.003	-0.0233	-20
-0.039	0.003	-0.033	-0.0075	-20.3
-0.0608	-0.0015	-0.0668	0.0082	-20.5
-0.0518	0.0015	-0.0675	0.0127	-20.7
-0.0128	0.0082	-0.0518	0.0052	-20.9
0.0052	0.0082	-0.0428	0.003	-21.1
-0.0195	0.006	-0.0428	0.0045	-21.3
-0.0511	0.003	-0.0293	-0.0038	-21.5
-0.0713	0.0007	-0.0225	-0.0173	-21.7
-0.063	-0.0008	-0.0083	-0.0158	-21.9
-0.033	0	0.0127	-0.0068	-22.1
-0.0083	0	0.0232	-0.0046	-22.3
0.009	0.0007	0.0315	0.0007	-22.5
0.009	-0.0008	0.0315	0.0015	-22.8
0.0075	-0.0015	0.0352	0.0037	-23
0.0045	-0.003	0.0307	0.0015	-23.2
0	-0.0008	0.0195	-0.006	-23.2
0.0052	0.0015	0.0195	-0.0083	-23.3
0	0.0007	0.0307	-0.0083	-23.3
-0.0046	-0.0015	0.0382	-0.0046	-23.4
-0.0008	0.003	0.027	0.0007	-23.4
-0.0008	0.0105	0.036	0.003	-23.5
0.0007	0.0157	0.0322	0.0007	-23.5
-0.0015	0.0157	-0.0046	0	-23.6
0.0015	0.012	-0.033	0.0015	-23.6
0.0045	0.0112	-0.0593	-0.0023	-23.7
0.006	0.0105	-0.0608	-0.0068	-23.8
0.0082	0.009	-0.0511	-0.0098	-23.8
0.0067	0.003	-0.0458	-0.0091	-23.9
0.0067	-0.0203	-0.0263	-0.0083	-23.9
0.0037	-0.0578	-0.012	-0.0068	-23.9
0.0007	-0.0488	-0.0083	0.0052	-24
0.0015	-0.0091	-0.0023	0.0112	-24.1
-0.003	-0.0075	0.0067	0.003	-24.1
-0.0233	-0.0091	0.0157	0.0067	-24.2
-0.0285	-0.0091	0.0262	0.0165	-24.3
-0.0083	-0.0165	0.0262	0.0037	-24.2
0.0157	-0.0105	0.0292	-0.003	-24.2
0.0457	-0.0068	0.042	-0.0023	-24.2
0.0405	-0.0075	0.0352	-0.0113	-24.2
0.0225	-0.0053	0.0232	-0.0068	-24.1
0.0067	0.0022	0.0225	-0.0128	-24.1
-0.0203	0.0045	0.0405	-0.0203	-24.1
-0.0158	-0.003	0.0547	-0.0113	-24
-0.0091	-0.0091	0.0217	-0.0015	-24
0.0015	-0.0105	-0.0113	0.0165	-24
0.0105	-0.006	-0.0256	0.0202	-23.9
0.0067	-0.0068	-0.0405	0.024	-23.9
0.0067	-0.006	-0.042	0.042	-23.9
-0.0008	-0.0053	-0.0465	0.0345	-23.9
-0.0068	-0.0046	-0.042	0.0172	-23.9
-0.0083	-0.0046	-0.024	0.0052	-23.8
-0.0053	-0.0046	-0.0083	0.0015	-23.8
-0.0128	-0.0046	0.0082	0.0007	-23.8
-0.024	-0.006	0.024	-0.0008	-23.8
-0.0256	-0.0068	0.0532	0.0007	-23.7
-0.0143	-0.0083	0.0615	0.0015	-23.7
-0.003	-0.0098	0.036	0.0082	-23.6
0.0082	-0.0075	0.0127	0.0112	-23.6
0.024	-0.0046	-0.0083	0.003	-23.6
0.0307	-0.0046	-0.0195	-0.0008	-23.5
0.0352	-0.0053	-0.0195	-0.0015	-23.5
0.0382	-0.0038	-0.0053	-0.0083	-23.5
0.0315	-0.0068	0.0225	-0.0098	-23.4
0.0195	-0.0075	0.0187	-0.012	-23.4
0.0082	-0.0068	-0.0105	-0.0113	-23.4
0.003	-0.012	-0.027	-0.012	-23.4
-0.0046	-0.0165	-0.0361	-0.0128	-23.3
-0.012	-0.0135	-0.0248	-0.0098	-23.3
-0.0075	-0.0091	-0.015	-0.0091	-23.3
-0.0053	-0.0083	-0.0083	-0.0075	-23.2
-0.0083	-0.0053	0.0015	-0.006	-23.2
-0.003	-0.0046	0.0067	-0.0015	-23.1
0.003	-0.0008	0.0142	0.003	-23.1
0.0052	0.0007	0.0172	0.0045	-23.1
-0.0008	0.0007	0.018	0.0067	-23
-0.006	0.0007	0.018	0.0045	-23
-0.006	0	0.015	0.0007	-23
-0.006	0	0.0142	-0.003	-23
-0.0015	0.0007	0.0105	-0.003	-23
0	0.0007	0.0105	-0.0008	-23
0.0007	0.0015	0.0082	-0.0023	-23
0.0015	0.0067	0.0052	-0.0068	-23
0.003	0.0082	0.0075	-0.0105	-23
0.0015	0.0082	0.0127	-0.0098	-23
0	0.0052	0.0292	-0.006	-23
0	0.0007	0.039	0.0007	-23
-0.0015	-0.003	0.0165	0.0045	-23
0.006	-0.0046	-0.006	0.0075	-23
0.0442	-0.0008	-0.021	0.0105	-23
0.0727	0.0007	-0.0428	0.009	-23
0.0382	0.0007	-0.0368	0.0052	-23
-0.0083	0.0015	-0.0256	0.003	-23
-0.0413	-0.0008	-0.021	0.0015	-23
-0.0675	-0.0023	-0.012	-0.0015	-23
-0.063	-0.0023	-0.0083	-0.0008	-23
-0.0518	0.0007	-0.0023	0.0015	-23
-0.0293	0.0015	-0.0046	0.0022	-23
-0.0113	0.0015	-0.006	0.0007	-23
-0.0015	0.003	0.003	-0.0015	-22.9
0.0067	0.0015	0.009	-0.0015	-22.9
0.0052	0.0007	0.0172	-0.006	-22.9
0.0082	0.0007	0.021	-0.0046	-22.8
0.0082	0.0007	0.0142	0.0015	-22.8
0.0105	0.0015	0.0082	0.0052	-22.8
0.0127	-0.0008	0.0037	0.0075	-22.8
0.012	-0.0015	0.003	0.0037	-22.7
0.0097	-0.0015	0.003	0.0022	-22.7
0.0127	0	0.0015	-0.003	-22.7
0.0127	0.0007	-0.0023	-0.0053	-22.7
0.0045	0.0015	-0.0038	-0.0008	-22.6
0.0015	0.0015	-0.0023	0.0022	-22.6
0.0015	0.0007	-0.003	0.0015	-22.6
-0.0023	0	-0.0038	-0.0015	-22.6
-0.0038	-0.0008	-0.0008	0.0015	-22.6
0.0037	0.0015	0.0007	0.0127	-22.5
0.0127	0.0015	0.0015	0.0165	-22.5
0.0075	0.0007	0.0052	0.0022	-22.5
-0.0083	0.0015	0.0127	-0.0015	-22.5
-0.0143	0.0045	0.0352	-0.0046	-22.4
-0.012	0.0067	0.0577	-0.0068	-22.4
-0.0091	0.0075	0.0547	-0.0015	-22.4
-0.003	0.0067	0.0487	-0.0023	-22.3
0.006	0.0082	0.0172	0.0022	-22.3
0.0127	0.0067	-0.0308	0.0127	-22.2
0.009	0.0067	-0.0503	0.0082	-22.2
0.0015	0.006	-0.0728	-0.0008	-22.2
-0.003	0.0045	-0.0728	-0.0015	-22.1
-0.0046	0.0052	-0.0593	-0.003	-22.1
-0.003	0.0045	-0.0458	-0.0008	-22.1
-0.0008	0.0067	-0.0203	-0.0046	-22.1
-0.0038	0.009	-0.0083	-0.0143	-22
-0.0046	0.0082	0.0037	-0.0113	-22
-0.0053	0.0067	0.0082	-0.006	-22
-0.0068	0.0052	0.0045	-0.0038	-21.9
-0.0053	0.0075	0.0052	-0.0046	-21.9
-0.003	0.0045	0.0052	-0.0038	-21.9
-0.0008	0.0045	0.0097	0.0045	-21.9
-0.0015	0.0045	0.0142	0.0097	-21.9
-0.003	0.0015	0.0172	0.0075	-21.9
-0.0008	0.003	0.0172	0.003	-21.9
0.0045	0.0022	0.0105	0.003	-21.9
0.012	0.003	0.0052	0.0112	-21.9
0.0157	0.0015	0.0052	0.0105	-21.9
0.0105	0.0015	0.0067	0.003	-21.9
-0.0128	0	0.0112	0.0015	-21.9
-0.0383	-0.0023	0.0187	-0.0008	-21.9
-0.0315	-0.0023	0.018	0.0052	-21.9
-0.0181	-0.0015	0.0105	0.012	-21.9
-0.0046	0.0007	0.0037	0.0112	-21.9
0.0067	-0.0008	0.0007	0.006	-21.9
0.0105	-0.0008	-0.0008	-0.0008	-21.9
0.0277	0.0007	-0.0008	-0.0015	-21.9
0.036	0	0.0015	-0.0038	-21.9
0.03	0	-0.0015	-0.0038	-21.9
0.0202	-0.0008	0.0022	-0.0053	-21.9
0.0142	-0.0008	0.012	-0.0046	-21.9
0.0105	-0.0015	0.0052	-0.0053	-21.9
-0.0038	-0.0053	0.0007	-0.0053	-21.9
-0.0105	-0.003	0.0015	-0.0038	-21.8
-0.0068	-0.0008	-0.0053	-0.0015	-21.8
0.0037	-0.0008	-0.0053	0.0007	-21.8
0.018	-0.003	-0.0046	-0.003	-21.8
0.021	-0.0008	-0.0015	-0.0015	-21.8
0.015	-0.0015	0.0067	0.0037	-21.8
0.003	-0.0053	0.0097	0.0045	-21.8
-0.0091	-0.0068	0.0082	-0.0023	-21.8
-0.0158	-0.0083	-0.0015	-0.006	-21.8
-0.0195	-0.0083	0.0015	-0.0083	-21.8
-0.0173	-0.0083	0.021	-0.0075	-21.8
-0.0181	-0.0075	0.033	-0.003	-21.8
-0.0195	-0.006	0.0187	-0.0023	-21.8
-0.0195	-0.003	-0.0053	0.0015	-21.7
-0.0143	-0.003	-0.0195	0	-21.7
-0.0053	-0.0023	-0.0346	-0.0015	-21.7
0.003	-0.0008	-0.0353	-0.0015	-21.7
0.018	-0.0008	-0.0293	-0.003	-21.7
0.0292	-0.003	-0.0181	0.0015	-21.7
0.0277	-0.0046	-0.0053	0.003	-21.7
0.0135	-0.006	-0.0008	0.0022	-21.6
-0.0015	-0.0068	0.0075	0.0007	-21.6
-0.0083	-0.0075	0.0067	-0.0053	-21.6
-0.012	-0.0075	0.0067	-0.0038	-21.6
-0.0098	-0.0083	0.0067	-0.003	-21.6
-0.0038	-0.0083	0.0067	-0.0068	-21.6
0.0037	-0.0068	0.0067	-0.0083	-21.5
0.0052	-0.0053	0.0045	-0.0053	-21.5
0.0015	-0.0046	0.0112	0	-21.5
-0.0053	-0.003	0.0262	0.0007	-21.5
-0.0083	-0.0015	0.0382	0.0007	-21.5
-0.0068	-0.003	0.0172	0.0052	-21.4
-0.0053	-0.0046	-0.0046	0.0112	-21.4
-0.0046	-0.0038	-0.0128	0.0075	-21.4
-0.0015	-0.0046	-0.0233	0.0007	-21.4
-0.0008	-0.0023	-0.0158	-0.0008	-21.3
0.0052	-0.003	-0.0128	-0.0038	-21.3
0.0082	-0.0038	-0.0046	-0.0015	-21.3
0.0045	-0.0046	0.0067	-0.0008	-21.3
0.0007	-0.0046	0.0112	-0.003	-21.3
-0.0038	-0.0015	0.0187	-0.003	-21.2
-0.0038	-0.0008	0.012	-0.0008	-21.2
-0.0046	-0.0008	0.0052	0	-21.2
-0.003	0.0007	0.0037	-0.0015	-21.2
-0.0015	0.0007	0.0045	0	-21.2
-0.0008	-0.0008	0.006	0.0022	-21.2
-0.0008	-0.0015	0.0067	0.0022	-21.2
-0.0015	-0.0023	0.0045	0.0007	-21.2
-0.0008	-0.0015	0.003	0.0007	-21.1
0.003	-0.0008	0.0052	-0.0008	-21.1
0.0067	-0.0008	0.006	0.0007	-21.1
0.0052	0	0.0067	0.0015	-21.1
-0.0015	-0.0015	0.0052	-0.003	-21.1
-0.0068	-0.0015	0.0052	-0.012	-21
-0.0068	0.0007	0.0045	-0.0113	-21
-0.006	0	0.0015	-0.0015	-21
-0.0068	-0.003	0	-0.0008	-21
-0.0068	-0.003	-0.0015	-0.0015	-21
-0.0091	-0.003	-0.0023	0.0052	-21
-0.0091	-0.0015	-0.0015	0.015	-20.9
-0.0046	-0.0008	-0.0015	0.0097	-20.9
-0.0008	-0.0008	-0.0015	0.0007	-20.9
-0.0015	0.0015	-0.0023	0.0052	-20.9
-0.0053	0	-0.0015	0.006	-20.9
-0.0023	0	-0.0023	0.0067	-20.9
0.0022	0	-0.0015	0.0052	-20.9
0.0127	0.0007	-0.003	0.0045	-20.9
0.0217	-0.0008	-0.0046	0.0075	-20.9
0.0217	-0.0008	-0.0053	0.003	-20.9
0.018	-0.0008	-0.003	0.0037	-20.8
0.0097	-0.0023	-0.003	0.0007	-20.8
0.0015	-0.0008	-0.0015	-0.0046	-20.8
-0.0015	-0.003	0.0007	-0.0068	-20.8
-0.0015	-0.0053	0.0022	-0.0113	-20.8
0.0007	-0.0053	0.0082	-0.012	-20.8
0.0015	-0.0053	0.012	-0.0083	-20.8
-0.0008	-0.0046	0.0082	-0.0046	-20.8
-0.0046	-0.0053	0.009	-0.0038	-20.8
-0.0091	-0.0053	0.0097	0.0015	-20.8
-0.0083	-0.0046	0.0112	0.009	-20.8
-0.0053	-0.0023	0.009	0.0082	-20.8
-0.0023	-0.0038	0.0067	0.006	-20.8
0.003	-0.0053	0.0082	0.0097	-20.8
0.0007	-0.003	0.006	0.012	-20.8
-0.003	-0.003	0.003	0.0097	-20.8
-0.0046	-0.003	0.0007	0.0067	-20.8
-0.0046	-0.0038	-0.0008	0.0045	-20.7
-0.0023	-0.003	-0.0038	-0.0008	-20.7
-0.003	-0.0015	-0.0053	-0.006	-20.7
-0.0015	-0.0015	-0.0075	-0.0038	-20.7
-0.003	-0.0015	-0.0128	-0.0053	-20.7
-0.0053	-0.003	-0.0143	-0.0046	-20.7
-0.006	-0.003	-0.0135	0.0007	-20.7
-0.006	-0.0015	-0.0113	0.0067	-20.7
-0.0068	-0.0023	-0.0053	0.0037	-20.7
-0.0083	-0.003	-0.0023	-0.0008	-20.7
-0.0053	-0.0015	-0.0015	-0.0015	-20.7
-0.0008	0	-0.0015	-0.003	-20.7
0.0022	-0.0008	-0.0015	-0.003	-20.7
0.003	-0.0008	-0.0015	-0.0053	-20.7
0.0037	0.0007	0.0082	-0.003	-20.7
0.006	0.0007	0.0232	0.003	-20.7
0.0067	-0.0023	0.0232	0.0015	-20.7
0.006	-0.0023	0.0127	-0.0008	-20.7
0.0075	-0.0023	0.003	-0.003	-20.6
0.0045	-0.0023	-0.0023	0	-20.6
0.0052	-0.0008	-0.0053	-0.0008	-20.6
0.0082	-0.0008	-0.0105	0.0007	-20.6
0.0045	0.0007	-0.0128	0.0015	-20.6
0.0022	0	-0.012	0.0015	-20.5
-0.0008	0.0007	-0.012	0.0007	-20.5
-0.0015	-0.0008	-0.015	-0.0015	-20.5
-0.003	-0.0015	-0.0128	-0.0015	-20.5
-0.0046	-0.0008	-0.0053	-0.003	-20.5
-0.003	-0.0008	-0.0008	-0.003	-20.5
-0.0038	0.0007	0.003	-0.0008	-20.4
-0.003	0.003	0.0067	-0.0015	-20.4
-0.0023	0.0045	0.009	-0.0046	-20.4
-0.0015	0.0045	0.0112	-0.012	-20.4
0.0007	0.006	0.0097	-0.0143	-20.3
0.003	0.0052	0.009	-0.0046	-20.3
0.003	0.0022	0.0082	0.003	-20.3
0.0045	0.0022	0.0067	0.003	-20.3
0.0045	0.0022	0.0052	0.006	-20.3
0.0015	0.0022	0.0037	0.0067	-20.3
0.0007	0.0007	0.0045	0.0052	-20.2
0.0007	0.0007	0.0052	0.0052	-20.2
0.0022	0.0007	0.0022	0.003	-20.2
0.003	0	-0.0015	0.0037	-20.1
0.003	0.0015	-0.0015	0.003	-20.1
0.0037	0.0007	-0.0008	0.0015	-20.1
0.0052	0.0007	-0.003	0	-20.1
0.003	-0.0008	-0.0046	-0.0023	-20
-0.0008	-0.0008	-0.0023	-0.0046	-20
-0.0023	0	-0.0008	-0.0091	-20
-0.0015	0.0007	-0.0008	-0.0098	-20
-0.0015	0.0007	-0.0015	-0.0068	-19.9
-0.003	0.0007	0.0007	-0.0075	-19.9
-0.003	0	0.0037	-0.0083	-19.9
-0.003	-0.0008	0.006	-0.0046	-19.8
-0.0015	-0.0008	0.0067	-0.003	-19.8
-0.0008	-0.0015	0.0045	-0.0008	-19.8
-0.003	-0.0015	0.003	-0.0023	-19.8
-0.0038	-0.0015	0.003	-0.0008	-19.7
-0.0008	-0.0023	0.003	0.0015	-19.7
0.0007	-0.0046	0.0022	0.003	-19.7
-0.0008	-0.0046	0.0007	0.0052	-19.6
0	-0.0023	-0.0008	0.0097	-19.6
0.003	-0.0015	0	0.015	-19.6
0.0052	0.0007	0.0015	0.0157	-19.5
0.0037	0	0.0015	0.015	-19.5
0.003	-0.0008	0.0045	0.009	-19.4
0.0007	0	0.0045	0.0037	-19.4
0.0015	-0.0015	0.003	0.0007	-19.4
0.003	-0.0023	0.0045	-0.003	-19.4
0.0015	-0.003	0.003	-0.0015	-19.4
0.0007	-0.0023	0.003	-0.0046	-19.3
-0.0023	-0.003	0.003	-0.0083	-19.3
-0.0008	-0.003	-0.0008	-0.0075	-19.3
0.0015	-0.0023	-0.003	-0.0053	-19.2
-0.0008	-0.0015	-0.0023	-0.0091	-19.2
-0.0023	-0.003	0.0015	-0.0083	-19.2
-0.0023	-0.0023	0.0007	-0.0023	-19.1
-0.0008	-0.0015	0	0.0015	-19.1
-0.0015	0.0007	0.0022	0.0037	-19.1
-0.003	0.0015	0.0015	0.006	-19
-0.0038	0.0007	0.003	0.0097	-19
-0.003	0.0007	0.0045	0.0105	-19
-0.0046	0.0015	0.0052	0.009	-18.9
0.0015	0.0015	0.0075	0.0067	-18.9
0.009	0	0.0045	0.0067	-18.9
0.0037	-0.0008	0.0022	0.0037	-18.9
-0.0015	0.0007	0.0015	-0.0015	-18.9
-0.0053	0	0.0015	-0.0015	-18.8
-0.0091	-0.0008	0.0015	-0.006	-18.8
-0.0075	0	0.0007	-0.0083	-18.8
-0.0083	0	0.0007	-0.0068	-18.7
-0.006	-0.0008	0.0007	-0.0091	-18.7
-0.006	-0.0023	0.0015	-0.0083	-18.7
-0.0053	-0.003	0.0007	-0.0068	-18.6
0.0007	-0.003	-0.0008	-0.0083	-18.6
0.003	-0.0038	0.0007	-0.0053	-18.5
0	-0.0046	0.0007	-0.0046	-18.5
-0.0008	-0.0046	-0.0015	-0.0038	-18.5
0.0015	-0.0023	-0.0008	-0.0023	-18.5
0.0015	-0.0023	0.0007	-0.0038	-18.5
0.0052	-0.0023	0.0007	-0.0015	-18.4
0.009	-0.0023	0.0007	-0.0008	-18.4
0.0082	-0.003	0.0015	0	-18.4
0.0082	-0.003	0.0007	-0.0008	-18.3
0.0067	-0.0015	0.0007	0.0007	-18.3
0.003	0	-0.0015	0.0007	-18.2
0.0015	-0.0015	-0.003	-0.0015	-18.2
0.0007	-0.0023	-0.003	0.0045	-18.2
0.0007	0	-0.0038	0.009	-18.1
-0.0008	0.0015	-0.0046	0.0082	-18.1
0	0.0015	-0.0046	0.0112	-18.1
0.0015	0.0007	-0.0053	0.0135	-18
0.003	0.0007	-0.0053	0.0135	-18
0.003	0.0007	-0.0053	0.012	-18
0.0015	0.0007	-0.0053	0.0105	-18
-0.0008	-0.0015	-0.0046	0.0067	-17.9
-0.0053	-0.0015	-0.0038	0.0052	-17.9
-0.015	-0.0023	0.003	0.006	-17.9
-0.0203	0	0.0097	0.0037	-17.8
-0.012	-0.0008	0.0067	0.003	-17.8
0.0015	-0.0023	0.006	-0.003	-17.8
0.0045	-0.003	0.0052	-0.0068	-17.7
0.0045	-0.0038	0.006	-0.0068	-17.7
0.0015	-0.003	0.0067	-0.0068	-17.7
-0.0015	-0.0046	0.0052	-0.0046	-17.6
0.0007	-0.0023	0.003	-0.0015	-17.6
0.003	-0.0008	0.0007	-0.0015	-17.6
0.0037	-0.0015	-0.003	-0.0046	-17.6
0.003	0	-0.003	-0.0038	-17.5
0.0015	-0.0015	-0.0023	-0.0015	-17.5
0.0015	-0.0023	-0.003	-0.003	-17.5
0.0007	-0.0015	-0.003	-0.0038	-17.5
0.0015	-0.0023	-0.0008	-0.003	-17.4
0.0007	-0.0015	0	-0.0015	-17.4
-0.0015	-0.003	0.0015	-0.0008	-17.4
0.0007	-0.003	-0.0008	-0.0015	-17.3
0.0022	-0.0008	-0.0023	-0.0008	-17.3
0.003	-0.0008	-0.003	0	-17.3
0.0045	-0.0008	-0.0008	-0.0015	-17.3
0.0022	-0.0008	0	0.0015	-17.2
0.0007	-0.0008	-0.0023	0.0015	-17.2
0.0007	-0.0008	-0.0015	0.0015	-17.2
0.0022	0	0	0.0022	-17.2
0.0037	0.0007	-0.0008	0.0075	-17.2
0.003	-0.0008	0	0.012	-17.1
0.0015	0.0007	0.0007	0.0105	-17.1
0.0045	0	0.003	0.0052	-17.1
0.0045	-0.0008	0.0037	0	-17.1
0.0015	-0.0008	0.003	-0.003	-17.1
0.0015	-0.0015	0.0015	-0.003	-17
0.0015	-0.0023	0.003	-0.0046	-17
0.003	-0.0023	0.0045	-0.003	-17
0.0007	-0.0023	0.0015	-0.0008	-17
-0.003	-0.0038	0	0.0015	-17
-0.0015	-0.003	0.0022	0.0037	-16.9
-0.003	-0.0008	0.0015	0.003	-16.9
-0.0015	0.0007	0	0.0037	-16.9
-0.0015	0.0007	0.0007	0	-16.8
-0.0023	0	0.0007	-0.0038	-16.8
-0.0046	0	0.0015	0.0022	-16.8
-0.0046	0.0015	0.003	0.0052	-16.8
-0.003	0.0022	0.0037	0.0045	-16.8
-0.0023	0.0015	0.0015	-0.0008	-16.7
0.0022	0.0022	-0.0015	-0.003	-16.7
0.0082	0.0015	0.0015	-0.0023	-16.7
0.009	0.0007	0.0045	0.0015	-16.7
0.0045	-0.0015	0.0067	0.0052	-16.7
-0.0015	-0.0015	0.0067	0.0045	-16.6
-0.0083	-0.0008	0.006	0.0015	-16.6
-0.012	0	0.0052	-0.0008	-16.6
-0.012	0	0.003	-0.0015	-16.6
-0.0098	-0.0015	0.0022	-0.003	-16.5
-0.0038	-0.0008	0.0045	-0.0053	-16.5
0.0007	-0.0023	0.003	-0.006	-16.5
0.0045	-0.003	0.0022	-0.0046	-16.4
0.0075	-0.003	0.003	-0.003	-16.4
0.0052	-0.0046	0.0045	-0.003	-16.4
0	-0.0053	0.0037	-0.0083	-16.3
-0.0023	-0.0083	0.003	-0.0128	-16.3
-0.0038	-0.0083	0.0052	-0.0113	-16.3
-0.0008	-0.0068	0.0067	-0.0105	-16.2
0.0007	-0.0075	0.006	-0.0083	-16.2
-0.0008	-0.0053	0.0037	-0.0083	-16.2
-0.0008	-0.0046	0.0037	-0.0075	-16.2
0.0015	-0.003	0.0022	-0.0068	-16.1
0.0015	0.0015	0.0015	-0.0008	-16.1
0.0007	0.003	0.003	0.0067	-16.1
0.0007	0.003	0.0037	0.0097	-16
0.0007	0.0037	0.0037	0.012	-16
-0.0008	0.0015	0.0007	0.0075	-16
-0.0015	0.0007	0	0.0082	-15.9
-0.003	-0.0008	0	0.0112	-15.9
-0.003	-0.0008	-0.0015	0.012	-15.8
-0.003	-0.0023	-0.0008	0.0105	-15.8
-0.0008	-0.0015	0.0015	0.0067	-15.8
-0.0023	-0.0008	0.0015	0.0052	-15.8
-0.0015	-0.0023	-0.0008	0.0037	-15.8
0.0007	-0.0023	0.0007	0.0052	-15.7
0.0007	-0.0038	0.003	0.003	-15.7
0.0007	-0.0046	0.003	-0.0008	-15.6
-0.0008	-0.0053	0.003	-0.0008	-15.6
0.0007	-0.0046	0.003	-0.0023	-15.6
0.0015	-0.0046	0.0045	-0.0015	-15.5
0.0015	-0.0038	0.0015	-0.0091	-15.5
0.0022	-0.003	0.0007	-0.0135	-15.4
0.003	-0.003	0.003	-0.0008	-15.4
0.0015	-0.0015	0.0015	0.003	-15.4
0.003	-0.0008	0	0.0015	-15.3
0.0045	-0.0008	-0.0008	0.0015	-15.3
0.0052	0.0015	-0.0015	0.0007	-15.3
0.0045	0.0015	-0.0015	0.003	-15.3
0.0022	0.0015	-0.0053	-0.0008	-15.2
0.0015	0	-0.003	-0.003	-15.2
0	-0.0015	0.0007	-0.003	-15.2
0	-0.0023	0.0015	-0.0046	-15.1
-0.0008	-0.0015	0.0022	-0.003	-15.1
-0.0008	-0.0015	0.0007	-0.0053	-15
0	-0.0008	0.0015	-0.003	-15
-0.0008	-0.0015	-0.0008	-0.003	-15
-0.0008	-0.0015	-0.0015	-0.003	-14.9
-0.0008	-0.0015	0.0007	0.0007	-14.9
0.0015	-0.0015	-0.0008	-0.0015	-14.9
0.0022	-0.003	-0.0015	-0.0023	-14.8
0.0022	-0.003	-0.0015	-0.0015	-14.8
0.0015	-0.0008	-0.0008	0.0015	-14.8
-0.0015	-0.0008	0.0007	0.0007	-14.7
-0.0015	0	0.0007	-0.0008	-14.7
0.0007	0.0015	0.0045	0.0007	-14.6
0.003	0.0007	0.0075	-0.0015	-14.6
0.006	-0.0008	0.0045	0	-14.6
0.0105	-0.0015	0.0007	0.0007	-14.5
0.012	-0.0008	-0.0008	0	-14.5
0.0045	-0.0015	0.0007	0.0007	-14.4
-0.0023	-0.0015	0.0007	0.0015	-14.4
-0.0053	-0.0015	-0.003	0.003	-14.4
-0.0075	-0.0015	-0.006	0.003	-14.4
-0.0091	-0.0008	-0.0068	0.0067	-14.3
-0.0038	-0.0038	-0.0075	0.006	-14.3
0.0007	-0.0046	-0.0015	0.0007	-14.3
0.0022	-0.0046	0.0045	-0.0023	-14.2
0.0045	-0.0046	0.006	-0.0015	-14.2
0.0045	-0.0015	0.003	-0.0008	-14.1
0.0052	0.0022	0	-0.0015	-14.1
0.0052	0.0045	-0.0008	0.0007	-14.1
0.0037	0.0037	0.0007	0.0015	-14
0.0015	0.0045	-0.0015	0.0015	-14
0.0007	0.0052	-0.0015	0.0022	-14
-0.0008	0.0045	0.0007	0	-13.9
-0.0015	0.003	-0.0015	0.0007	-13.9
-0.0015	0.0007	-0.003	0.0007	-13.9
-0.003	-0.0008	-0.003	-0.0015	-13.8
-0.0023	-0.0023	-0.0023	-0.0023	-13.8
-0.0023	-0.0046	-0.0008	-0.0015	-13.8
-0.0015	-0.003	-0.0015	-0.0015	-13.7
0.0007	-0.0023	-0.0015	-0.0015	-13.7
0.0037	-0.0015	0.0052	-0.0023	-13.7
0.006	-0.0015	0.0067	-0.003	-13.6
0.0045	-0.0023	0.0045	-0.0008	-13.6
0.003	-0.0015	0.0045	0.0007	-13.6
0.0037	-0.003	0.0015	0.0007	-13.6
0.0067	-0.0053	0.003	-0.0015	-13.5
0.0052	-0.006	0.0045	0.0015	-13.5
0.0037	-0.0046	0.0067	0.0022	-13.5
-0.0008	-0.0046	0.0097	-0.0015	-13.5
-0.0053	-0.0046	0.0052	-0.0046	-13.5
-0.0053	-0.0053	0.003	-0.0038	-13.4
-0.0046	-0.0053	0.0015	-0.0038	-13.4
-0.0015	-0.003	-0.0008	-0.0038	-13.4
0	-0.0008	0.0022	-0.0008	-13.3
0.0015	0	0.0045	-0.0023	-13.3
-0.0008	0	0.0037	-0.0023	-13.3
-0.0015	0	0.0007	-0.0038	-13.3
-0.003	0.0007	0.0015	-0.0075	-13.2
-0.003	-0.0008	-0.0008	-0.006	-13.2
-0.0008	-0.003	-0.0008	-0.0046	-13.2
-0.003	-0.003	0.0007	-0.0023	-13.2
-0.0023	-0.0023	0.003	-0.0008	-13.2
-0.003	-0.0008	0.0082	0.0022	-13.1
-0.003	-0.0008	0.006	0.0067	-13.1
-0.003	0	0.0037	0.0067	-13.1
-0.0015	0.0015	-0.0015	0.0082	-13.1
0.0015	0.0015	-0.0053	0.0097	-13.1
-0.0008	0.0015	-0.0046	0.0075	-13.1
-0.0008	0.0007	-0.0075	0.0052	-13.1
-0.0023	0	-0.003	0.006	-13
-0.003	0.0015	0.003	0.0037	-13
0	0.0015	0.0015	-0.0008	-13
-0.0008	-0.0015	0.0045	-0.0008	-13
0.0007	-0.003	0.0037	-0.0008	-13
0.003	-0.0015	0.0045	0.0015	-12.9
0.0007	-0.0015	0.0052	0.0015	-12.9
-0.0008	-0.0008	0.0022	0.0007	-12.9
-0.0008	0.0015	0.0007	0.0015	-12.9
-0.0015	0.0015	-0.0008	0.003	-12.9
-0.0008	0.0015	0.0015	0.0052	-12.9
-0.0008	0.003	0.0045	0.0045	-12.9
0.0007	0.003	0.0037	0.0037	-12.9
0.003	0.003	0.0067	0.0022	-12.9
0.006	0.003	0.0052	0.0015	-12.9
0.0097	0.0007	0.0045	-0.003	-12.9
0.0105	0.0015	0.0037	-0.0113	-12.9
0.0082	0.0022	0.0007	-0.0128	-12.9
-0.0008	0.0015	0.0022	-0.0038	-12.9
-0.0075	0	0.0015	-0.003	-12.9
-0.0105	-0.0008	0	-0.0008	-12.9
-0.0128	0.0007	0.0007	0.0015	-12.9
-0.0143	0	0.0007	-0.0008	-12.9
-0.012	0	0.0015	0	-12.9
-0.003	-0.0038	0.003	-0.0023	-12.9
0.0045	-0.0046	0.0015	0	-12.9
0.0052	-0.0038	0.0022	-0.0008	-13
0	-0.0038	-0.0008	0	-13
-0.0046	-0.003	-0.0015	0.0007	-13
-0.0068	-0.003	0	-0.0008	-13
-0.003	-0.0015	0.0007	0.0022	-13
0.0015	-0.0015	0.0067	0.0007	-13
0.003	-0.003	0.0157	0.0045	-13.1
0.0052	-0.003	0.027	0.003	-13.1
0.0052	-0.003	0.0277	0.0015	-13.1
0.0045	-0.0015	0.0187	0.003	-13.1
0.0052	-0.003	0.0082	-0.0023	-13.1
0.0015	-0.0046	-0.0038	-0.003	-13.1
-0.0008	-0.0023	-0.0105	-0.0015	-13.1
-0.003	-0.0008	-0.0218	0.003	-13.2
-0.003	0	-0.0256	0.003	-13.2
-0.0046	0	-0.0203	0.0015	-13.2
-0.006	-0.0008	-0.0195	0.0007	-13.2
-0.0083	-0.0008	-0.015	-0.0015	-13.3
-0.0113	-0.0015	-0.0143	0.0007	-13.3
-0.0105	-0.0008	-0.0128	0	-13.3
-0.0046	0	-0.0113	-0.0023	-13.4
0	0	0.0015	-0.0008	-13.4
0.003	0.0015	0.0187	-0.0008	-13.4
0.0067	0.0007	0.0165	-0.0008	-13.4
0.0082	0.0015	0.0127	0.0022	-13.5
0.009	0.0007	0.0082	0.0015	-13.5
0.0067	-0.0008	0.003	0.003	-13.5
0.0082	0.0007	-0.0015	0.0015	-13.5
0.0067	-0.0008	-0.0068	0.0007	-13.6
0.0022	-0.0023	-0.0091	0	-13.6
-0.0008	-0.0015	-0.0068	-0.0015	-13.6
-0.0015	-0.0023	-0.0046	0.0015	-13.7
-0.0015	-0.0015	-0.0023	0.0022	-13.7
-0.0015	-0.0023	0.0007	0.0007	-13.7
-0.0015	-0.003	0.003	0.0007	-13.8
0.0007	-0.0015	0.0037	-0.0015	-13.8
0.0045	-0.003	0.0082	0.0007	-13.8
0.0045	-0.003	0.009	0.0015	-13.9
0.0022	-0.0008	0.0082	-0.0008	-13.9
0.0015	0	0.009	0	-13.9
0.0015	0.0007	0.0075	-0.0015	-14
0.003	0	0.009	-0.0015	-14
0.003	-0.0015	0.009	-0.003	-14
0.0015	-0.0023	0.0082	-0.0038	-14.1
0.0022	-0.003	0.0075	-0.0023	-14.1
0.0007	-0.0038	0.0052	-0.0015	-14.2
0.0007	-0.0038	0.0067	-0.003	-14.2
0.003	-0.003	0.0082	-0.0008	-14.3
0.0037	-0.0038	0.0067	0.0015	-14.3
0.0022	-0.0038	0.006	0.0007	-14.4
0.0007	-0.0046	0.0052	0.0007	-14.4
0.0007	-0.0046	0.003	0.0015	-14.4
-0.0008	-0.0015	0.0015	0.0015	-14.4
-0.0015	0.0015	0.0015	0.0015	-14.5
-0.0008	0.0037	0.0007	0.0022	-14.5
-0.0008	0.0022	0.003	0.003	-14.6
0.0007	0.0022	0.0007	0.003	-14.6
0.0015	0.0052	-0.0008	0.0022	-14.7
0.003	0.003	0.0007	0.0015	-14.7
0.0045	0	0.0015	-0.0015	-14.8
0.003	-0.0038	0.0022	-0.003	-14.9
0.003	-0.0068	0.003	-0.003	-14.9
0.0007	-0.0053	0.0037	-0.003	-14.9
0	-0.0068	0.0037	-0.0008	-15
-0.0008	-0.0075	0.0015	0.0007	-15
-0.0008	-0.0038	0.0007	0.0007	-15.1
0.0007	0.0015	0	0.0015	-15.1
-0.0008	0.0067	0.0007	-0.0008	-15.2
-0.0015	0.003	-0.0008	-0.0015	-15.3
-0.003	0.0007	-0.0038	-0.0023	-15.3
-0.0015	-0.0015	-0.0023	-0.0046	-15.4
0	-0.0046	-0.0023	-0.0046	-15.4
-0.0023	-0.006	-0.0015	-0.0038	-15.5
-0.0015	-0.0075	0.0007	-0.0015	-15.5
-0.0015	-0.0046	0.0015	0.0007	-15.6
-0.0015	-0.0046	0.0022	-0.0015	-15.7
-0.0008	-0.006	-0.0008	-0.0046	-15.7
-0.0008	-0.0075	-0.0015	-0.003	-15.8
-0.0008	-0.0038	-0.0015	0.0015	-15.8
-0.0008	0.0022	0.0007	0.0022	-15.9
0.0015	0.0052	0.0007	-0.0008	-16
0.0075	0.0045	-0.0015	-0.0015	-16
0.0105	0.003	-0.0008	-0.0015	-16.1
0.009	0.0015	-0.0015	-0.0008	-16.1
0.0045	-0.0015	-0.003	-0.0015	-16.2
-0.0023	0.0015	-0.0015	0	-16.3
-0.0075	-0.0008	-0.0008	0.0015	-16.3
-0.0128	-0.0008	0.003	0.003	-16.4
-0.0195	0.0015	0.0007	0.003	-16.5
-0.0218	0.0007	-0.0023	0.0022	-16.6
-0.0195	0.003	-0.003	0.003	-16.6
-0.0105	0.0067	-0.0015	0.003	-16.7
0	0.009	0.0015	0.0015	-16.7
0.006	0.0075	0.0007	-0.0008	-16.8
0.0045	0.0037	0.003	-0.0015	-16.9
0.0015	-0.0053	0.0037	-0.0015	-17
0.0022	-0.0143	0.0045	0	-17
0.0007	-0.0181	0.0037	-0.0015	-17.1
-0.0008	-0.0128	0.0007	-0.0008	-17.1
-0.003	0.0007	0.0007	0.0007	-17.2
-0.003	0.0075	-0.0008	0.0052	-17.3
-0.0015	0.0052	0.0015	0.003	-17.4
-0.003	0.0015	0.0022	0.0015	-17.5
0.0015	-0.0015	0.0007	0.0045	-17.6
0.0015	-0.0046	0.0045	0.0015	-17.6
0	-0.0091	0.0052	0	-17.8
0.0015	-0.0075	0.0067	-0.0008	-17.9
0.0015	-0.0068	0.0075	0.0015	-18
0.0015	-0.0046	0.0067	-0.003	-18
0.0022	-0.0053	0.006	-0.0038	-18.1
0.006	-0.0083	0.0045	-0.0015	-18.2
0.0082	-0.006	0.0037	-0.0023	-18.3
0.0067	-0.003	0.0022	0.0007	-18.4
0.0052	0.0037	0.0015	-0.0008	-18.5
0.0067	0.0082	0.0022	0.0007	-18.6
0.0075	0.0112	0.0015	0.0007	-18.7
0.0067	0.012	0.0007	-0.0008	-18.8
0.0052	0.009	0.0015	0.0007	-18.9
0.003	0.006	0.0007	-0.0023	-19
0.0015	-0.0015	-0.0008	-0.0023	-19.1
0.0015	-0.0038	-0.0015	0.0015	-19.2
0.003	0.0067	-0.0015	0.0037	-19.3
0.0007	0.0067	0.0022	0.0007	-19.4
-0.0015	-0.003	0.0045	-0.0046	-19.5
-0.0015	-0.0091	0.0015	-0.0053	-19.7
-0.0008	-0.0158	0.0007	-0.0046	-19.8
-0.0008	-0.0158	-0.0008	-0.0046	-19.9
0.0015	-0.012	-0.0015	-0.003	-20
0	-0.0113	-0.0008	-0.0008	-20.1
-0.0015	-0.0068	-0.0023	0.0037	-20.3
-0.0015	-0.0046	-0.003	0.0022	-20.4
-0.003	-0.003	-0.0023	-0.0015	-20.5
-0.0008	-0.0023	-0.0023	-0.0008	-20.6
-0.0008	-0.0046	0.0007	-0.0015	-20.7
-0.0008	-0.0053	0.0015	-0.003	-20.8
0	-0.0015	-0.0008	-0.0008	-21
-0.0015	-0.0015	-0.0008	0.0015	-21.1
-0.0008	-0.0068	-0.0015	0.0015	-21.2
0.0007	-0.0075	-0.0015	0.0015	-21.3
0.0015	-0.006	-0.0008	0.0022	-21.4
0.0022	-0.0008	-0.0015	0.0015	-21.6
0.0015	0.0052	-0.0015	0.0015	-21.7
0.0015	0.0105	-0.0008	0.0015	-21.9
0.0015	0.0157	0	0.0045	-22.1
0.0015	0.0165	-0.0008	0.0052	-22.2
0.0015	0.0142	-0.0008	0.0007	-22.4
0	0.0142	0.0007	0.0015	-22.5
-0.0015	0.009	-0.0015	0.003	-22.7
-0.0023	0.0045	-0.003	0.0007	-22.9
-0.003	0.003	-0.003	0	-23
-0.0023	-0.0105	-0.0023	-0.0015	-23.2
-0.0015	-0.0165	0	-0.0023	-23.4
0.0015	-0.0158	0.0015	-0.0068	-23.5
-0.0015	-0.0195	0.003	-0.0091	-23.7
-0.0008	-0.021	0.0037	-0.0008	-23.8
0.0007	-0.0158	0.003	0.0045	-24
0.0022	-0.0083	0.0045	0.0045	-24.2
0.0022	0.0007	0.0015	0.009	-24.3
0.0015	0.018	-0.0008	0.0105	-24.5
0.0015	0.027	-0.0015	0.0075	-24.6
0.0015	0.0202	-0.0046	0.0067	-24.8
0.0007	0.0142	-0.003	0.0067	-25
-0.0008	0.0127	-0.0008	0.0082	-25.2
-0.0023	0.0127	-0.0015	0.003	-25.5
-0.003	0.012	-0.003	0.0015	-25.7
-0.0015	0.003	-0.003	0.0007	-26
-0.0015	-0.0165	-0.0015	-0.0053	-26.2
-0.0023	-0.0263	0.0022	-0.0091	-26.4
-0.0008	-0.0233	0.003	-0.0181	-26.6
0.0007	-0.012	0.003	-0.0128	-26.9
0.0015	-0.0046	0.0052	-0.0015	-27.1
-0.0015	-0.0053	0.006	-0.0053	-27.4
-0.0015	-0.003	0.0045	-0.0046	-27.6
-0.0023	-0.0008	0.0015	-0.0068	-27.8
-0.0038	-0.0015	0.0007	-0.0068	-28
-0.0015	0.0007	0.0022	-0.0046	-28.3
-0.003	0.0015	0.0052	-0.003	-28.5
-0.0046	0.0007	0.003	0.0052	-28.8
-0.0053	0.0022	-0.0008	0.006	-29
-0.0068	-0.0008	0	0.0075	-29.2
-0.0053	-0.0091	-0.0008	0.006	-29.5
-0.0046	-0.012	-0.0015	0	-29.7
-0.0023	-0.0128	-0.0046	0.0037	-30
-0.0015	-0.0113	-0.006	0.0097	-30.2
-0.0008	-0.0046	-0.0075	0.012	-30.5
-0.0015	0.0067	-0.0083	0.012	-30.8
-0.0015	0.0195	-0.0053	0.0157	-31.1
-0.003	0.027	-0.003	0.0172	-31.3
-0.0015	0.0195	-0.0015	0.009	-31.6
0.0007	0.0052	-0.0046	0.0052	-31.9
-0.0015	-0.0008	-0.0046	0.0037	-32.2
0	-0.0008	-0.003	0.0022	-32.4
0.003	-0.0015	-0.0038	0	-32.7
0.0045	-0.0023	-0.0046	-0.0046	-33
0.0045	-0.003	-0.0046	-0.0053	-33.3
0.0045	-0.003	-0.003	-0.0091	-33.5
0.0052	-0.003	-0.0015	-0.0098	-33.8
0.0045	-0.003	0	-0.0068	-34.1
0.0052	-0.0008	0.0015	-0.0053	-34.3
0.0052	0.0015	0.0022	-0.0083	-34.6
0.0045	0.0022	0.003	-0.0068	-34.9
0.0045	0.0007	0.0045	-0.0008	-35.1
0.0052	-0.0015	0.0045	0.0007	-35.4
0.0045	-0.0046	0.0045	-0.0015	-35.7
0.0022	-0.0075	0.0045	-0.0015	-36
0.0015	-0.0113	0.0052	-0.0008	-36.2
0.003	-0.0158	0.0082	-0.0046	-36.5
0.0007	-0.0203	0.0097	-0.0038	-36.8
0	-0.0165	0.0067	0.0037	-37
0.0007	-0.006	0.0045	0.006	-37.3
-0.0008	-0.006	0.0067	0.0082	-37.6
0	-0.0053	0.009	0.0097	-37.9
-0.0008	-0.0015	0.0097	0.009	-38.2
-0.0015	0.0022	0.012	0.0082	-38.4
-0.0008	0.012	0.012	0.0045	-38.7
0.0007	0.0142	0.0142	-0.0023	-39
0.0015	0.0135	0.012	-0.0091	-39.2
0.0015	0.0067	0.0105	-0.0105	-39.5
0.0015	0.0015	0.012	-0.006	-39.8
0.0007	0.003	0.0105	-0.003	-40.1
0.0015	-0.0083	0.009	-0.0008	-40.4
0.0015	-0.0173	0.0082	0.0037	-40.6
0.0007	-0.0165	0.0105	0.006	-40.9
-0.0008	-0.0075	0.0127	0.0037	-41.2
-0.0008	-0.003	0.0127	-0.0008	-41.5
-0.0008	-0.003	0.015	-0.0015	-41.9
-0.0008	0.0045	0.0135	-0.003	-42.1
0.0007	0.003	0.012	-0.0053	-42.4
0	-0.003	0.0105	-0.003	-42.8
0	-0.0053	0.0075	0.0015	-43.1
-0.0008	-0.0075	0.0082	0.003	-43.4
0.0015	-0.0091	0.0105	0.0045	-43.7
0.0037	-0.0105	0.0097	0.0022	-44
0.003	-0.0068	0.0105	-0.0091	-44.3
0.0037	-0.0023	0.0097	-0.0105	-44.6
0.0022	0.0007	0.0082	-0.0068	-44.9
0.003	0.0052	0.0105	-0.0083	-45.2
0.0007	0.0015	0.0097	-0.0068	-45.5
-0.0008	-0.0015	0.0067	-0.0113	-45.8
0.003	0.0015	0.0052	-0.021	-46.1
0.0015	0.0045	0.0015	-0.0308	-46.4
0.0015	0.0007	0.0007	-0.0293	-46.7
0.0015	-0.0046	-0.0008	-0.0173	-46.9
0	-0.003	0	-0.0053	-47.2
0.0007	-0.0015	0.0007	0.0097	-47.5
0.0015	-0.0023	0	0.021	-47.8
0.0015	-0.0008	0.0007	0.0292	-48.1
0.0007	0.003	0.0015	0.0307	-48.3
0.0007	0.0045	0.0022	0.0277	-48.6
0	0.0022	0.0007	0.0277	-48.9
-0.0008	0.003	0.0007	0.0315	-49.2
0	0.0045	0.0022	0.0277	-49.5
-0.0015	0.0045	0.003	0.0195	-49.7
-0.003	0.0015	0.0045	0.0105	-50
-0.0046	0	0.0045	-0.0038	-50.3
-0.0038	0.0015	0.0022	-0.0113	-50.5
-0.003	-0.0008	0.003	-0.0143	-50.8
-0.003	-0.003	0.003	-0.0181	-51.1
-0.0015	-0.003	0.0007	-0.0203	-51.4
-0.003	-0.0015	-0.0015	-0.0165	-51.7
-0.0038	-0.0008	-0.0015	-0.006	-52
-0.0038	-0.0023	-0.003	-0.0083	-52.2
-0.0038	-0.003	-0.0053	-0.0053	-52.4
-0.0038	-0.0015	-0.0068	0.0007	-52.7
-0.003	-0.0015	-0.0053	0.003	-52.9
-0.003	0	-0.003	0.0067	-53.1
-0.0015	-0.0008	-0.0023	0.003	-53.4
-0.0008	-0.003	-0.003	-0.0008	-53.6
-0.0008	-0.006	-0.0046	-0.0015	-53.9
-0.0023	-0.0046	-0.0053	0.0007	-54.1
-0.0023	0.0015	-0.0046	0.0015	-54.4
-0.0015	0.0045	-0.0053	-0.0008	-54.6
0.0007	0.006	-0.0068	0.0007	-54.9
0.0007	0.0052	-0.0053	-0.0015	-55.1
0.0015	0.003	-0.0053	-0.0038	-55.4
0.0015	0.0007	-0.0046	-0.0038	-55.6
0.003	-0.0015	-0.0046	-0.0038	-55.8
0.0015	-0.0015	-0.0053	-0.0015	-56.1
0.0007	-0.0023	-0.0046	-0.0008	-56.3
0.0007	-0.0038	-0.003	0.0015	-56.6
-0.0008	-0.0068	-0.0015	0.0015	-56.9
-0.0008	-0.0098	-0.0008	-0.0008	-57.1
-0.0008	-0.0068	-0.0015	-0.003	-57.2
-0.0008	-0.003	-0.003	-0.003	-57.5
-0.0015	-0.0046	-0.0038	0	-57.7
-0.003	-0.0068	-0.0038	-0.003	-57.9
-0.003	-0.0046	-0.0038	-0.0038	-58.1
-0.003	-0.0023	-0.0046	-0.0008	-58.3
-0.0015	-0.003	-0.0068	0	-58.5
0	-0.0015	-0.006	-0.0015	-58.8
0.0007	0.003	-0.0053	-0.0008	-59
0.0007	0.0067	-0.0053	0.0022	-59.2
0.0015	0.0067	-0.0015	0.003	-59.4
0.0015	0.0037	0.0007	0.0045	-59.6
0.003	0.0015	-0.0008	0.0045	-59.9
0.003	-0.006	-0.0008	0.0082	-60
0.0037	-0.0083	0.0007	0.0127	-60.3
0.0045	-0.0083	0.0007	0.0052	-60.5
0.0007	-0.0165	0.0007	-0.0008	-60.7
0.0015	-0.024	0	0.0037	-60.9
0.0007	-0.024	0.0007	0.0067	-61.2
-0.0008	-0.0181	0.0015	0.0082	-61.3
-0.0008	-0.0091	0.0007	0.012	-61.5
0	-0.0068	0.0007	0.0135	-61.7
0.0007	-0.003	0.0007	0.0097	-61.9
-0.0008	0.015	0	0.0052	-62.1
-0.0015	0.0382	0.0007	0	-62.2
-0.003	0.0367	0	-0.0068	-62.5
0.0007	0.0165	-0.0015	-0.0098	-62.6
-0.0008	0.0105	-0.0008	-0.0068	-62.8
-0.0008	0.003	-0.0023	-0.0075	-63
-0.0023	0.0007	-0.0023	-0.0038	-63.2
-0.0023	0.0045	-0.0046	-0.0008	-63.4
0.0007	0.0007	-0.0046	-0.0015	-63.6
0.0015	0.0015	-0.003	-0.003	-63.8
0.003	-0.0008	-0.003	-0.003	-64
0.0015	0	-0.0046	0.0007	-64.2
0.0007	-0.0015	-0.0046	0.0015	-64.4
-0.0008	-0.0008	-0.003	0.0015	-64.6
0.0007	-0.0008	-0.0015	0.0007	-64.8
0.0007	-0.0008	0	-0.0008	-65
0.0007	0	-0.0008	-0.0015	-65
0.0015	-0.0008	-0.0008	-0.0046	-65.2
0.0015	0.0007	0.0007	-0.0083	-65.3
0.0007	0	0.0007	-0.0091	-65.3
0.0007	-0.0008	0.003	-0.0038	-65.5
-0.0008	-0.0046	0.0045	0.0007	-65.6
-0.0008	-0.0068	0.0052	0.0015	-65.7
-0.0023	-0.0053	0.0052	0.0015	-65.7
-0.0023	-0.0038	0.006	0.0015	-65.9
-0.0023	-0.0015	0.006	0.0015	-66
-0.0008	-0.0008	0.0052	0	-66.1
0.0015	-0.0008	0.0045	-0.0015	-66.2
0.0007	-0.003	0.0007	-0.0008	-66.3
0.0007	-0.003	-0.0015	-0.0008	-66.4
0.0015	-0.003	0.0015	-0.0008	-66.5
0.0007	-0.003	0.0015	0.0015	-66.6
0.0007	-0.0053	0.003	0.0007	-66.7
-0.0008	-0.0053	0.0015	-0.0015	-66.8
0.0007	-0.0046	0	-0.0038	-66.9
0.0007	-0.0008	0.0007	-0.006	-67.1
-0.0008	0.003	-0.0015	-0.0053	-67.1
-0.0008	0.0022	-0.0023	-0.0046	-67.1
-0.0008	0.0052	-0.0008	-0.003	-67.1
0.0007	0.0045	-0.0015	0.0052	-67.1
0	-0.003	0.0007	0.0045	-67.2
0.0015	-0.0128	0.0045	-0.0046	-67.2
0.003	-0.0128	0.0037	0.003	-67.3
0.0022	-0.0053	0.003	0.0015	-67.3
0.0022	-0.0046	0.0007	-0.0015	-67.3
0.0015	-0.003	-0.0008	0.0052	-67.4
0.0007	-0.0008	0.0007	0.0037	-67.4
0.0007	-0.0015	0.0007	0.0105	-67.5
0.0007	0	0.0007	0.0127	-67.5
0.0007	0.0007	0.0045	0.0067	-67.5
-0.0008	0.003	0.0045	0.003	-67.5
0	0.0022	0.0052	0.0015	-67.6
0.0015	0.0022	0.0067	0.006	-67.6
0.0015	0.0045	0.006	0.0052	-67.6
0.003	0.0037	0.0067	0.003	-67.7
0.003	0.0037	0.0067	0	-67.8
0.0045	0.003	0.0045	-0.0015	-67.8
0.003	0.0022	0.0045	-0.0008	-67.8
0.0007	0.0022	0.0045	0.0007	-67.8
0	0.0007	0.0052	-0.0015	-67.8
0.0007	0.0007	0.003	-0.0053	-67.8
0.0007	0.0022	0.0015	-0.0053	-67.8
-0.0015	0.0007	0.003	-0.0068	-67.8
-0.0023	0	0.0015	-0.0083	-67.8
-0.003	0.0007	0.0015	-0.0053	-67.8
-0.003	0.0007	0.003	-0.0046	-67.9
-0.0023	0	0.0022	-0.0038	-67.9
-0.003	-0.0015	0.0022	-0.003	-67.9
-0.0038	-0.0008	0.0007	0.0007	-67.9
-0.0046	-0.0008	0.0007	0.0045	-67.9
-0.0038	-0.0008	-0.0008	0.0015	-67.9
-0.0046	-0.0008	0.0015	0.0007	-67.9
-0.0046	-0.0015	0.0037	0.0015	-67.9
-0.0015	-0.0015	0.003	0.003	-68
-0.0023	-0.0015	0.0022	0.003	-68
-0.0046	-0.0015	0	0.0007	-68
-0.003	-0.0023	0.0007	0.0007	-68
-0.0023	-0.003	0.003	-0.0015	-68
-0.0008	-0.0038	0.003	0.0007	-67.9
0.0007	-0.003	0.0015	0.0015	-67.9
0.0007	-0.0023	0.0045	0.0015	-67.9
0.003	-0.0015	0.003	0.0015	-67.8
0.003	-0.0023	0.003	-0.0015	-67.8
0.0022	-0.0053	0.0045	0.0007	-67.8
0.0037	-0.006	-0.0008	0	-67.8
0.0022	-0.0038	-0.0015	-0.0008	-67.7
0.0015	-0.0023	-0.0015	0.0007	-67.7
0.0007	-0.0023	-0.0023	-0.0008	-67.7
0	-0.0023	-0.0008	0	-67.6
-0.0015	0.0007	0.0007	-0.0008	-67.6
-0.0023	0.0022	0.0015	-0.0008	-67.6
-0.0015	0.0007	0.0007	-0.0015	-67.5
-0.0015	-0.0008	0.0015	-0.0023	-67.5
-0.0008	-0.0015	0.0007	-0.0008	-67.5
-0.0008	-0.0015	0.0007	-0.0015	-67.5
-0.0008	-0.0015	0.0007	-0.0008	-67.5
0.0007	-0.0008	0.0007	0.0007	-67.4
-0.0008	-0.0015	0.0015	0.0007	-67.3
0.0007	-0.0008	0.0007	0.0007	-67.2
0.0015	-0.0008	0	-0.0008	-67.1
0.0015	-0.0015	0	-0.0015	-67.1
0.0007	-0.0015	0	-0.0015	-67
0	-0.0023	0.0007	-0.0038	-66.9
0.0015	-0.003	-0.0008	-0.0038	-66.8
0.0015	-0.003	0.0007	-0.003	-66.7
0.0007	-0.003	0.0045	-0.0068	-66.6
0	-0.0015	0.0052	-0.006	-66.6
0.0007	-0.0023	0.0052	-0.0053	-66.5
0.0015	-0.003	0.0052	-0.0023	-66.4
0.0015	-0.0015	0.0045	0.0015	-66.3
0.0007	0	0.0045	0.0037	-66.2
-0.0023	-0.0008	0.003	0.0067	-66.2
-0.0046	-0.0008	0.003	0.0052	-66.1
-0.0046	0.0007	0.0015	0.0022	-66
-0.0053	-0.0015	0	0.0015	-65.9
-0.0046	-0.0008	-0.0008	0.0007	-65.8
-0.003	0	-0.003	0.0022	-65.7
-0.0023	0.0015	-0.0038	0.003	-65.6
-0.0015	0.0015	-0.0008	0.0015	-65.4
-0.0015	0	0.0007	0.0007	-65.3
-0.0023	-0.0015	-0.0008	0	-65.2
-0.0015	-0.0015	-0.0015	0	-65
-0.0008	-0.0015	0.0007	-0.0008	-64.9
-0.0008	-0.0046	0.003	0.0007	-64.8
-0.0008	-0.0068	0.0007	-0.0008	-64.6
0.0007	-0.0053	0.0015	-0.0015	-64.5
0.0007	-0.0038	0	-0.0015	-64.4
0.0015	-0.003	0.0015	-0.0008	-64.3
0.0045	-0.003	0.0037	0	-64.1
0.0015	-0.0015	0.0015	0	-64
0.0015	-0.003	0.0022	0.0022	-63.9
0.0015	-0.0053	0.0022	0.003	-63.7
0.0015	-0.0053	0.0015	0.0007	-63.6
0.0015	-0.0046	0.0037	0.0015	-63.5
0	-0.003	0.0015	0.003	-63.3
0	-0.0046	0.0007	0.0007	-63.2
-0.0015	-0.0038	0.0007	0	-63
-0.0015	-0.0015	-0.0008	0	-62.9
0.0007	-0.0015	0.0007	-0.0008	-62.7
0.0007	-0.0015	0.0015	-0.003	-62.6
0.0007	-0.0015	0.003	-0.0038	-62.4
0.0007	-0.003	0.0045	-0.0023	-62.2
-0.0015	-0.0023	0.0015	-0.0023	-62.1
-0.0008	-0.0023	0.0015	-0.003	-61.9
-0.0008	-0.0015	0.0015	-0.0023	-61.7
0	0.0015	0.0007	-0.0023	-61.6
0	0.003	0.0015	-0.0008	-61.4
0	-0.0008	0.0022	0.0007	-61.2
-0.0015	-0.0015	-0.0008	0.0007	-61.1
-0.003	0.0007	0.0015	0.0015	-60.9
-0.003	0.0022	0.003	0.003	-60.8
-0.0023	0.0015	0.0037	0.003	-60.6
-0.0015	0.0037	0.0037	0.0045	-60.5
-0.0015	0.0052	0.0022	0.0045	-60.3
0.0007	0.003	0.0022	0.0037	-60.2
0.0015	0.0015	0.003	0.0015	-60
0.0022	0.0007	0.0015	0	-59.8
0.0037	-0.0015	0.0007	0	-59.6
0.0045	-0.0046	0.0007	0.0007	-59.4
0.0037	-0.003	-0.0008	0	-59.2
0	-0.003	-0.0008	0	-59
-0.0023	-0.0053	0.0007	0	-58.8
-0.0008	-0.0046	0.0015	0.0007	-58.6
0	-0.0023	0.0037	-0.0008	-58.5
-0.0015	-0.0015	0.0045	-0.0023	-58.2
0.0007	-0.0008	0.0045	-0.0015	-58.1
0	0.0007	0.0037	-0.0008	-57.9
-0.003	0.003	0.0037	0.0007	-57.6
-0.003	0.003	0.0045	-0.0008	-57.5
-0.0023	0.0007	0.0045	-0.0023	-57.3
-0.0015	0.0022	0.0045	-0.0023	-57.1
-0.0008	0.0022	0.0052	-0.0023	-56.9
0.0007	0.0007	0.003	0	-56.7
0	0.0037	0.003	0.003	-56.5
-0.0008	0.003	0.0045	0.003	-56.3
0.0015	0.0007	0.0022	0.0015	-56.1
-0.0008	0.003	0.003	0	-55.9
-0.0008	0.0052	0.0007	0.0015	-55.7
0	0.003	0.0007	0.0015	-55.4
-0.0008	-0.003	0.0007	0.0037	-55.2
-0.0015	-0.0046	-0.0015	-0.0008	-55
-0.0015	-0.003	-0.0015	-0.0015	-54.8
0	-0.0023	0	0	-54.5
0.0015	0.0015	0.003	0.0007	-54.3
0.0015	0.0022	0.003	0.003	-54.1
0.0007	0	0.0022	0.0007	-53.9
0.0015	-0.0008	0.003	0.0015	-53.7
0.0015	-0.0015	0.003	0.003	-53.5
0.003	-0.0023	0.0045	0.0045	-53.2
0.0015	-0.003	0.0045	0.0052	-53
0.0022	-0.0053	0.0037	0.003	-52.8
0.003	-0.0083	0.0015	0.0015	-52.6
0.0007	-0.0091	0.0007	0.0015	-52.3
0.0007	-0.0053	-0.0008	0	-52.1
0.0007	-0.0046	-0.0008	-0.0015	-51.9
0.0015	-0.0038	-0.0023	-0.003	-51.7
0	-0.003	-0.0023	-0.003	-51.4
-0.0015	-0.006	-0.0008	-0.0046	-51.2
-0.0008	-0.0023	-0.0038	-0.003	-50.9
0.0007	0.0007	-0.0046	-0.0015	-50.7
0.0015	0.0007	-0.0015	-0.0023	-50.4
0.0022	-0.0008	-0.0015	-0.0015	-50.1
0.0007	-0.0038	-0.0008	-0.003	-49.9
0	-0.0046	0.0007	-0.003	-49.6
0	-0.0023	0.0015	-0.0015	-49.4
-0.0015	-0.0008	0.0015	-0.0023	-49.1
0	0.0015	0.003	-0.0015	-48.9
-0.0015	0.003	0.0052	0	-48.6
-0.0015	0.0045	0.006	0.0007	-48.4
0.0007	0.0052	0.0045	0.0045	-48.2
0	0.0052	0.0052	0.0037	-47.9
0.0015	-0.0015	0.0045	-0.0008	-47.6
0.0007	-0.0083	0.0037	-0.0008	-47.4
-0.0015	-0.0053	0.003	0.0015	-47.1
-0.0023	-0.0053	0.0015	0	-46.9
-0.003	-0.0046	0.0022	-0.0008	-46.6
-0.003	-0.0015	0.0015	-0.0008	-46.3
-0.003	-0.0015	0	-0.0008	-46
-0.0038	0.0007	-0.0015	0	-45.7
-0.0015	-0.0023	-0.003	-0.0015	-45.5
-0.0023	-0.0015	0	0.0015	-45.1
-0.0008	-0.006	-0.0008	0	-44.8
0.0015	-0.0091	0.0007	0.0022	-44.6
0	-0.0053	0.0015	0.003	-44.2
0	-0.0038	-0.0008	0.0022	-44
0.0007	-0.0023	-0.0015	0.0015	-43.7
0.0015	-0.003	0	-0.0008	-43.3
0.0015	-0.0023	-0.0008	0.0015	-43.1
0	-0.0015	-0.0015	0.0007	-42.8
0.0007	-0.0008	0.0007	0.0015	-42.5
0.0015	-0.0015	0.0007	0.003	-42.2
0.0007	0.0007	0.0022	0.0022	-41.9
0.0015	0	0.0045	0.0015	-41.6
0.0007	0.0022	0.0015	0.0007	-41.3
0.0015	0.0045	0.003	0.0045	-41
0	0.0075	0.003	0.0052	-40.7
-0.0015	0.0105	0.0037	0.0075	-40.4
-0.0008	0.006	0.0015	0.003	-40.1
0.0007	-0.0008	0.0022	-0.003	-39.7
0.0015	-0.0083	0.0052	-0.0046	-39.4
0.003	-0.0098	0.0015	-0.0091	-39.1
0.0045	-0.012	-0.0023	-0.0075	-38.8
0.003	-0.0098	-0.0015	-0.0046	-38.5
0.0007	-0.0046	-0.0023	-0.0046	-38.2
0.0045	-0.003	-0.003	-0.003	-37.8
0.0067	-0.0008	-0.0023	0.0007	-37.5
0.003	-0.0008	0.0007	0.0015	-37.2
0.0007	-0.0015	0.0015	-0.0008	-36.9
-0.0008	0	-0.0008	0	-36.5
-0.0008	-0.0023	-0.003	0.0007	-36.2
0.0007	-0.0015	-0.0015	0.0045	-35.9
0.0007	0	0	0.003	-35.6
-0.0008	0	-0.0008	0.003	-35.3
-0.003	0.0015	-0.0008	0.003	-35
-0.0046	0.003	-0.0008	0.0007	-34.7
-0.0068	-0.0015	0.0022	0	-34.3
-0.0075	-0.003	0.0037	-0.0008	-34
-0.0046	-0.0015	0.0015	0.0007	-33.7
-0.0046	-0.003	0.0007	0	-33.4
-0.0015	-0.003	-0.0008	-0.0015	-33.1
0	-0.0015	0.0007	-0.0008	-32.7
-0.0008	0.003	0.0015	0	-32.4
0.0007	-0.0008	0	-0.0008	-32.1
0.003	-0.0083	0.0007	-0.003	-31.8
0.003	-0.0091	0.0007	-0.0023	-31.5
0.003	-0.0068	-0.0008	-0.003	-31.1
0.0022	-0.0053	-0.0015	-0.0068	-30.8
0.0007	-0.0038	-0.003	-0.0053	-30.5
0.0007	-0.003	-0.0008	-0.003	-30.2
0.0007	0.0015	0.0007	-0.0015	-29.9
0.003	0.0015	0.0015	-0.0015	-29.5
0.0052	0.0022	0.003	0.0015	-29.2
0.0037	0.0037	0.0015	0.003	-28.9
0.0037	0.003	0.0015	0.003	-28.6
0.003	0.006	0.0007	0.0022	-28.3
0.0097	0.0075	0.0007	0.003	-27.9
0.0157	0.0075	0	0.0037	-27.6
0.009	0.003	0	0.003	-27.4
0	-0.0023	-0.0008	-0.0008	-27
-0.0083	-0.0053	0.0015	-0.003	-26.8
-0.0135	-0.0075	0.0037	-0.0038	-26.5
-0.0143	-0.0091	0.0037	-0.0068	-26.1
-0.012	-0.0053	0.0045	-0.0038	-25.9
-0.0091	-0.003	0.0015	0.0007	-25.6
-0.006	-0.003	0	0.003	-25.3
-0.0023	0	0.0007	0.0045	-25
0.0007	0.0022	0.0007	0.0037	-24.7
0.006	0.003	-0.003	0	-24.4
0.0097	0.0015	0.0015	0	-24.1
0.0112	0.0007	0.0082	0.0007	-23.8
0.0105	0.0007	0.0105	0.0015	-23.5
0.0067	0.003	0.0127	-0.0008	-23.2
0.003	0.0007	0.009	-0.0015	-22.9
-0.0008	-0.0015	0.0067	-0.0023	-22.6
0	-0.0015	0.006	-0.0046	-22.3
-0.0038	-0.0046	0.0052	-0.0015	-22
-0.0053	-0.003	0.0037	0	-21.8
-0.0023	0.0007	0.0045	0.0015	-21.6
-0.0015	0.0015	0.0022	0.003	-21.3
-0.0008	0	-0.0015	0.0015	-21.1
0.0007	-0.003	0.0007	0.0007	-20.8
0.0015	-0.0046	-0.0008	0.003	-20.6
0.0015	-0.0023	-0.0015	0.0052	-20.3
0.003	0	0.0007	0.0045	-20.1
0.003	-0.0008	-0.0015	0.0045	-19.9
0.0007	0.0015	-0.0008	0.0045	-19.6
0.003	0.003	-0.0008	0.0022	-19.4
0.0045	0.003	-0.0015	0.0007	-19.2
0.0022	0.0007	0	-0.0008	-18.9
0.0007	0.0007	0.0007	-0.0023	-18.7
-0.0008	-0.0015	0.003	-0.003	-18.5
-0.0023	-0.006	0.0007	-0.003	-18.2
-0.0023	-0.0068	0.0015	-0.0023	-18
-0.003	-0.006	0.0015	-0.003	-17.7
-0.003	-0.0008	0.0007	-0.0023	-17.5
0.0015	0.0075	0.0022	-0.0008	-17.3
0.0082	0.0127	0.0007	0.003	-17.1
0.0112	0.0135	-0.0023	0.006	-17
0.0075	0.0037	-0.0023	0.0045	-16.8
0.0022	-0.0075	-0.003	-0.0023	-16.7
-0.0046	-0.015	-0.003	-0.0091	-16.5
-0.0083	-0.0233	-0.0015	-0.0143	-16.3
-0.0075	-0.0218	0.0007	-0.0105	-16.2
-0.0068	-0.012	-0.0008	-0.0053	-16
-0.0075	-0.0053	-0.0038	-0.0008	-15.8
-0.0053	0.0007	-0.0046	0.0052	-15.7
-0.0053	0.0022	-0.0023	0.0022	-15.5
-0.0083	-0.0008	-0.003	-0.0008	-15.3
-0.0046	-0.0015	0.0015	0.0007	-15.2
-0.0023	-0.0015	0.0097	0.0015	-15
0	-0.003	0.0142	0.003	-14.9
0.0015	-0.0015	0.0112	0.0052	-14.7
0.0022	-0.0008	0.003	0.0015	-14.5
0.0045	0.0015	-0.0046	-0.0053	-14.4
0.0037	0.0052	-0.0135	-0.0091	-14.2
0.0052	0.012	-0.0165	-0.0113	-14
0.0082	0.0112	-0.0158	-0.012	-14
0.0112	0.003	-0.012	-0.0113	-13.8
0.0105	-0.0046	-0.0068	-0.0046	-13.7
0.0052	-0.0068	-0.003	-0.0008	-13.6
0	-0.0128	0.003	-0.0068	-13.5
-0.0023	-0.0128	0.0052	-0.0083	-13.4
-0.0015	-0.0105	0.0082	0.0045	-13.3
-0.0015	-0.0128	0.0097	0.0232	-13.2
-0.003	-0.0128	0.0052	0.033	-13.1
-0.0015	-0.0158	0.0052	0.0232	-13
0	-0.0173	0.009	0.0007	-12.9
0.0007	0.0045	0.0105	-0.0015	-12.7
0.0007	0.0307	0.009	-0.0008	-12.6
0.0007	0.0352	0.0067	-0.0046	-12.5
-0.0008	0.027	0.0022	-0.0046	-12.4
0	0.0105	-0.0023	-0.012	-12.3
-0.0015	0.0022	-0.0023	-0.012	-12.2
-0.0023	0.0015	-0.003	-0.0188	-12.1
0.003	-0.0015	0	-0.003	-12
0.009	0.0097	0.0015	0.0465	-11.9
0.0075	0.012	0.0007	0.072	-11.8
0.0015	-0.0053	0.0007	0.048	-11.7
-0.003	-0.0256	-0.0015	0.006	-11.7
-0.0083	-0.0203	-0.003	-0.0165	-11.6
-0.0091	-0.003	-0.0046	-0.024	-11.6
-0.0083	0	-0.0046	-0.012	-11.5
-0.006	0.006	0.0022	-0.0015	-11.4
-0.0015	0.0142	0.0067	-0.0015	-11.3
-0.0015	0.0022	0.009	0.003	-11.3
-0.0008	-0.0158	0.0082	-0.0075	-11.2
0	-0.0113	0.0052	-0.0113	-11.2
0.0007	-0.0181	0.0067	-0.0158	-11.1
0.0045	-0.0278	0.006	-0.0181	-11
0.0067	-0.0218	0.0045	-0.0165	-11
0.0067	-0.0091	0.006	-0.0256	-10.9
0.0052	0.0097	0.0067	-0.0256	-10.8
-0.0023	0.0135	0.0045	-0.0218	-10.8
-0.0053	0.0105	-0.0008	-0.0165	-10.7
-0.0053	-0.0015	-0.0046	-0.0218	-10.6
-0.0068	-0.0165	-0.003	-0.0323	-10.6
-0.0015	-0.0008	-0.0038	-0.0233	-10.6
0	0.0127	-0.0046	0.0082	-10.5
-0.003	0.0022	-0.0023	0.0375	-10.5
0.003	0.0172	-0.0015	0.0382	-10.5
0.0202	0.0187	-0.0015	0.0217	-10.5
0.0262	0.0015	0	0.0127	-10.5
0.009	0.0022	-0.0008	0.0127	-10.5
-0.0015	-0.0015	-0.0008	-0.0098	-10.5
-0.012	0.018	0.0015	-0.0068	-10.4
-0.0203	0.045	0.0015	-0.0015	-10.4
-0.0165	0.0225	0.003	-0.0181	-10.4
-0.0188	-0.0346	0.0082	-0.0075	-10.4
-0.0173	-0.0773	0.0225	-0.0015	-10.4
-0.012	-0.0915	0.0442	-0.0068	-10.4
-0.0068	-0.078	0.0615	-0.0256	-10.4
-0.003	-0.033	0.0495	-0.0293	-10.4
-0.003	0.0105	0.0165	-0.006	-10.4
0.0015	0.0465	-0.0158	0.0255	-10.4
0.012	0.072	-0.0465	0.0592	-10.3
0.0157	0.0322	-0.063	0.042	-10.3
0.0127	0.0082	-0.0683	0.03	-10.3
0.0067	0.0435	-0.063	0.0465	-10.3
-0.0015	0.0637	-0.048	0.0352	-10.4
-0.003	0.0652	-0.0375	0.0202	-10.4
-0.0038	0.0157	-0.021	0.0105	-10.4
-0.0038	0.0067	-0.003	0.003	-10.4
-0.0008	0.0202	0.0097	-0.0068	-10.5
-0.0015	0.027	0.0315	-0.0068	-10.5
-0.0015	0.066	0.0547	-0.0068	-10.5
0.0007	0.0442	0.054	-0.0038	-10.6
0.0015	-0.0008	0.0315	-0.003	-10.6
0.0045	-0.0256	0.009	-0.033	-10.6
0.0052	-0.0203	-0.0098	-0.0503	-10.6
0.003	-0.0218	-0.0173	-0.045	-10.7
0.0022	-0.0308	-0.0181	-0.039	-10.7
0.003	-0.0315	-0.0158	-0.021	-10.7
0.0037	-0.0548	-0.003	-0.033	-10.8
0.0045	-0.0863	0.0097	-0.048	-10.8
-0.0008	-0.1185	0.0097	0.0157	-10.8
-0.0083	-0.0773	0.0097	0.093	-10.9
-0.0068	-0.003	0.0127	0.1177	-10.9
-0.0083	0.0457	0.0165	0.072	-11
-0.0083	0.0555	0.0142	-0.0158	-11
-0.0075	0.0045	0.009	-0.0428	-11.1
-0.0008	-0.0353	0.012	-0.057	-11.2
0.0037	-0.0645	0.0067	-0.0721	-11.2
0.0037	-0.0945	-0.0105	-0.0428	-11.3
0.0037	-0.1193	-0.021	0.0292	-11.3
-0.0046	-0.0998	-0.0173	0.129	-11.4
-0.0143	-0.0165	-0.0083	0.1125	-11.5
-0.0315	0.0232	0.0052	0.033	-11.5
-0.0511	0.0367	0.018	-0.0046	-11.6
-0.0436	0.06	0.015	-0.042	-11.7
-0.0181	0.1027	0.0157	-0.0165	-11.7
-0.0075	0.1702	0.0292	0.0352	-11.7
-0.0075	0.1717	0.0247	0.0592	-11.8
-0.0158	0.0975	0.012	0.0277	-11.9
-0.0008	0.0232	0.006	-0.0188	-11.9
0.033	0.0007	0.0022	0.003	-12
0.0667	-0.0165	0.0135	0.0232	-12.1
0.0802	-0.0473	0.021	0.0082	-12.2
0.057	-0.0743	0.0292	-0.0256	-12.2
0.0405	-0.075	0.0382	-0.0233	-12.3
0.0142	-0.0593	0.0052	-0.0293	-12.4
-0.0015	-0.0495	-0.0225	-0.0593	-12.5
-0.0053	0.0015	-0.0346	-0.0683	-12.6
-0.0203	0.0412	-0.0465	-0.0743	-12.7
-0.0105	0.024	-0.0383	-0.0608	-12.8
0.0045	-0.0091	-0.0315	-0.0706	-12.9
0.012	-0.0256	-0.0203	-0.0645	-13
0.003	-0.042	-0.0158	-0.003	-13.1
-0.0023	-0.0945	-0.0143	0.033	-13.1
0.003	-0.096	-0.0053	0.042	-13.2
0.0105	0.0255	-0.0008	0.078	-13.3
0.042	0.1335	0.003	0.1027	-13.4
0.0472	0.1027	-0.0023	0.0735	-13.5
0.0105	0.0555	0.006	0.03	-13.6
-0.0143	0.0547	0.0277	0.003	-13.7
-0.042	0.0232	0.051	-0.0188	-13.8
-0.0593	-0.0105	0.0442	-0.021	-13.9
-0.0488	-0.0256	0.0165	-0.012	-14
-0.039	-0.0368	0.015	-0.0053	-14.1
-0.0233	-0.0383	0.0082	-0.0075	-14.2
-0.0128	-0.033	-0.0008	-0.0143	-14.3
-0.0105	-0.0308	-0.0083	-0.012	-14.4
0.0007	-0.0293	-0.0173	-0.0091	-14.5
0.0015	-0.0256	-0.0113	-0.0068	-14.7
-0.0015	-0.021	-0.0015	-0.0091	-14.8
0.0075	-0.0195	0.003	-0.0068	-14.9
0.0307	-0.0098	-0.0128	0.0067	-15
0.042	0.018	-0.0233	0.018	-15.1
0.021	0.0382	-0.0143	0.0127	-15.3
-0.0015	0.0397	0.0052	0.0015	-15.3
-0.0105	0.0255	0.0165	-0.0015	-15.5
-0.0165	0.0127	0.0165	-0.006	-15.6
-0.0098	0.0232	0.0142	-0.003	-15.7
-0.0128	0.0202	0.0082	0	-15.8
-0.0068	0.0135	0.0067	-0.0083	-15.9
0.009	0.0075	-0.0053	-0.0278	-16
0.0112	-0.0135	-0.0038	-0.0353	-16.2
0.0157	-0.015	-0.0015	-0.0225	-16.2
0.0067	-0.0075	-0.0143	-0.0068	-16.4
0.0165	-0.0263	-0.003	-0.0008	-16.5
0.0225	-0.0623	0.003	-0.003	-16.6
-0.0105	-0.0473	-0.0158	-0.0015	-16.7
-0.0233	-0.0098	-0.0398	-0.0053	-16.8
-0.042	-0.0098	-0.0465	-0.0165	-16.9
-0.048	-0.0008	-0.048	-0.0181	-17.1
-0.0165	0.0105	-0.0368	-0.0091	-17.1
0.018	0.018	-0.0165	-0.0023	-17.3
0.0405	0.0225	-0.003	-0.003	-17.4
0.0412	0.0157	0.0105	-0.0008	-17.5
0.0315	0.0082	0.0285	-0.012	-17.6
-0.0015	-0.0053	0.06	-0.0181	-17.7
-0.0315	0.0022	0.0555	-0.0053	-17.8
-0.0503	0.0052	0.0105	-0.0046	-17.9
-0.0383	0.0007	-0.0323	0.0015	-18
-0.0008	-0.015	-0.0405	0.0097	-18.1
0.0202	-0.042	-0.0165	0.0202	-18.3
0.0315	-0.0346	0.0045	0.036	-18.4
0.0277	-0.0233	0.0247	0.0352	-18.4
0.0285	-0.024	0.0405	0.039	-18.3
0.018	-0.012	0.0517	0.048	-18.3
-0.0143	-0.012	0.0495	0.039	-18.2
-0.0428	-0.0113	0.0367	0.021	-18.2
-0.0585	-0.006	0.027	0.012	-18.1
-0.0405	-0.003	0.0157	0.0105	-18.1
-0.0203	0.006	0.0112	0.0015	-18
-0.006	0.0052	0.0082	-0.003	-18
0.0052	0.0015	0.0045	-0.003	-17.9
0.0105	-0.0053	0.003	-0.0091	-17.9
0.0225	-0.0083	0.0015	-0.0143	-17.8
0.0277	-0.0008	0.0157	-0.0098	-17.8
0.027	0.0082	0.0442	-0.0046	-17.7
0.0247	0.0195	0.039	0.0007	-17.7
0.0105	0.0277	0.0007	0.003	-17.6
0.0007	0.024	-0.033	-0.0008	-17.6
0.0007	0.0052	-0.0585	-0.0091	-17.6
-0.003	-0.0098	-0.0465	-0.0165	-17.5
-0.003	-0.0068	-0.0091	-0.0158	-17.5
-0.0015	0.0075	0.0067	-0.0038	-17.5
0.0022	0.0157	-0.0068	0.0082	-17.5
0.0082	0.018	-0.0308	0.0112	-17.6
0.009	0.0165	-0.045	0.0067	-17.6
0.0225	0.0097	-0.0503	0.0082	-17.7
0.0435	0.0127	-0.0383	0.009	-17.7
0.0427	0.0142	-0.006	0.0052	-17.8
0.024	0.0127	0.0442	0.0015	-17.9
0.003	0.0142	0.0645	-0.0046	-17.9
-0.0068	0.009	0.0382	-0.0083	-18
-0.0015	0.0075	0.0142	-0.003	-18
-0.0075	0.0105	-0.0105	0	-18.1
-0.0091	0.0097	-0.0256	0.0015	-18.1
-0.012	0.0097	-0.027	0.0045	-18.2
-0.021	0.012	-0.0256	0	-18.3
-0.024	0.0067	-0.0203	-0.0015	-18.3
-0.03	0.0052	-0.0128	-0.0046	-18.4
-0.0173	0.0075	0.012	-0.0105	-18.5
0.0105	0.0067	0.033	-0.0105	-18.5
0.0315	0.0022	0.0412	-0.027	-18.6
0.0315	-0.0015	0.048	-0.033	-18.7
0.0127	-0.003	0.0487	-0.021	-18.8
-0.0023	-0.003	0.0472	-0.0218	-18.9
-0.006	-0.0015	0.0517	-0.0128	-19.1
0.003	0.0022	0.0517	-0.0038	-19.2
0.0142	0.006	0.0195	0.0127	-19.3
0.039	0.0105	-0.039	0.0367	-19.4
0.054	0.0075	-0.0788	0.0405	-19.6
0.0277	0.0067	-0.099	0.0397	-19.7
-0.0008	0.0082	-0.1035	0.03	-19.8
-0.0353	-0.0008	-0.0863	0.0187	-20
-0.0458	-0.0053	-0.0623	0.0052	-20.1
-0.0383	-0.0068	-0.0278	-0.0128	-20.3
-0.0346	-0.0083	0.0015	-0.0091	-20.4
-0.0263	-0.003	0.0165	-0.0053	-20.5
-0.0225	-0.0008	0.0202	-0.015	-20.6
-0.0046	0.0007	0.0255	-0.0105	-20.7
0.0052	0.0007	0.027	-0.003	-20.9
0.0015	0.0007	0.0232	-0.0008	-21
0.0097	-0.0015	0.0255	-0.0008	-21.2
0.0232	-0.0053	0.0217	-0.0023	-21.2
0.0195	-0.0068	0.0217	-0.003	-21.2
-0.0023	-0.0075	0.0165	-0.0083	-21.3
-0.0188	-0.0075	0.0142	-0.006	-21.3
-0.0285	-0.0083	0.0165	-0.0083	-21.4
-0.0368	-0.0075	0.0135	-0.0083	-21.4
-0.033	-0.0053	0.012	-0.003	-21.5
-0.0256	-0.0068	0.0067	-0.0083	-21.5
-0.0181	-0.0091	0.0052	-0.012	-21.6
-0.012	-0.0098	0.006	-0.0105	-21.6
-0.012	-0.0105	0.0075	-0.0075	-21.7
-0.0068	-0.0128	0.0157	-0.0053	-21.7
-0.003	-0.0143	0.036	-0.0015	-21.8
0	-0.0113	0.0427	0.009	-21.8
0.003	-0.0091	0.0217	0.024	-21.9
0.0082	-0.0105	0.0105	0.0232	-21.9
0.0127	-0.0091	-0.0046	0.0082	-22
0.009	-0.0091	-0.0256	0.003	-22
0.0015	-0.0091	-0.0346	-0.0015	-22.1
-0.0008	-0.0091	-0.0346	0.0007	-22.1
0.003	-0.0098	-0.0248	0.0007	-22.1
0.0067	-0.012	-0.0158	-0.003	-22
0.009	-0.012	-0.0023	-0.0046	-22
0.012	-0.012	0.0045	-0.003	-21.9
0.0157	-0.012	0.0052	-0.0015	-21.8
0.018	-0.0113	0.012	-0.0075	-21.8
0.0142	-0.0091	0.0157	-0.012	-21.7
0.0127	-0.0083	0.0195	-0.0038	-21.7
0.0142	-0.0068	0.0217	0.0097	-21.6
0.0067	-0.006	0.0465	0.0105	-21.6
-0.0068	-0.0068	0.0735	0.0082	-21.5
-0.0143	-0.0068	0.0712	0.0067	-21.4
-0.0195	-0.0091	0.0465	0.0105	-21.4
-0.012	-0.0098	-0.0098	0.0157	-21.3
0.006	-0.0068	-0.0511	0.0037	-21.2
0.0172	-0.0068	-0.063	-0.0046	-21.2
0.0127	-0.0083	-0.0706	-0.0068	-21.2
0.0037	-0.0083	-0.057	-0.0068	-21.1
-0.0023	-0.0075	-0.042	-0.003	-21
-0.0046	-0.0068	-0.0203	-0.0083	-21
0.0015	-0.0068	0.0037	-0.0053	-20.9
0.0127	-0.0023	0.0165	-0.0046	-20.9
0.0165	0.0015	0.03	-0.0091	-20.8
0.0112	0.0022	0.0262	-0.0046	-20.8
0.0075	0.003	0.0165	0.0015	-20.7
0.0045	0	0.0142	0.0007	-20.7
-0.0008	0.0007	0.0082	-0.003	-20.7
-0.0098	0.0007	0.006	-0.0053	-20.6
-0.0091	0.0007	0.0105	-0.0046	-20.6
-0.0015	0.0045	0.012	-0.0015	-20.5
0	0.0045	0.0052	-0.0038	-20.5
-0.006	0.0052	-0.0053	-0.0068	-20.5
-0.0143	0.003	-0.012	-0.0068	-20.4
-0.0083	0.0015	-0.0128	-0.0053	-20.4
-0.003	0.0045	-0.0091	-0.0008	-20.3
0.0015	0.003	0	0.0015	-20.3
0.003	0.0052	0.0022	0.003	-20.3
0	0.006	0.003	0.006	-20.2
0.0007	0.0082	0.0045	0.0015	-20.2
0.0007	0.009	0.003	-0.003	-20.1
0.0045	0.0082	0.0067	-0.0015	-20.1
0.0022	0.0082	0.0097	-0.0023	-20
-0.0008	0.0067	0.0202	-0.0053	-20
-0.0008	0.0045	0.0435	-0.0083	-19.9
-0.0046	0.003	0.057	-0.0068	-19.9
-0.0008	0.003	0.0337	-0.0015	-19.8
0.0007	0.0037	-0.003	0.003	-19.8
0.0015	0.0052	-0.0203	0.009	-19.8
0.0067	0.006	-0.021	0.015	-19.7
0.0142	0.0052	-0.0218	0.0172	-19.7
0.0127	0.006	-0.024	0.009	-19.7
0.0015	0.0045	-0.0195	0.0037	-19.6
-0.0083	0.003	-0.0105	-0.0008	-19.6
-0.0158	0.0015	0	-0.0053	-19.5
-0.0143	0.0015	0.0015	-0.0046	-19.5
-0.0195	0.0037	-0.0068	-0.0046	-19.4
-0.03	0.0045	-0.012	-0.003	-19.4
-0.0256	0.0045	-0.0158	-0.0008	-19.4
-0.0181	0.0045	-0.0173	0.006	-19.3
-0.0105	0.0022	-0.0188	0.015	-19.3
0.006	0.003	-0.0225	0.0082	-19.3
0.0195	0.003	-0.0233	-0.0046	-19.2
0.0277	0.003	-0.012	0.0007	-19.2
0.0285	0.0015	-0.0015	0.0007	-19.2
0.0232	0.0007	0.0015	0.0037	-19.2
0.018	0.0022	0.0067	0.0075	-19.1
0.0142	-0.0008	0.009	0.0105	-19.1
0.0142	0.0007	0.009	0.0165	-19.1
0.0052	0.0015	0.0082	0.0052	-19.1
0.0015	-0.0008	0.0067	0.0052	-19
0.0082	0.0015	0.009	0.006	-19
0.003	-0.0015	0.012	-0.003	-19
-0.0046	-0.0023	0.0127	-0.0015	-19
-0.0023	-0.0023	0.0082	-0.0023	-19
-0.0008	-0.0023	0.0045	0.0007	-18.9
0.0015	-0.0015	0.0045	0.0007	-18.9
-0.0008	-0.0038	0.0037	0.0007	-18.9
-0.0046	-0.0008	0.003	0.0015	-18.9
-0.0068	0.0007	0.0007	-0.0015	-18.9
-0.0091	-0.0008	-0.0008	-0.0015	-18.9
-0.0098	-0.003	-0.0015	-0.0015	-18.9
-0.0091	-0.0023	-0.0046	0.0015	-18.9
-0.0046	-0.003	-0.0053	-0.0008	-18.8
-0.0015	-0.0023	-0.0053	-0.003	-18.8
-0.0015	0	-0.003	-0.0053	-18.8
-0.0046	0	-0.003	-0.0083	-18.8
-0.0068	0	-0.003	-0.0068	-18.8
-0.0015	-0.0008	-0.0015	-0.0083	-18.8
0.0037	-0.0008	0.0007	-0.0083	-18.8
0.003	-0.0015	0.0015	-0.0053	-18.8
0.0015	-0.003	0	-0.0008	-18.8
0.0052	-0.0015	0.0015	0.0007	-18.8
0.0112	-0.0015	0.0037	-0.0015	-18.7
0.0105	-0.0015	0.003	0.0015	-18.7
0.009	-0.0015	0.003	0.0045	-18.7
0.009	-0.0038	0.0022	0.0007	-18.7
0.0022	-0.006	0.0052	-0.0038	-18.7
-0.0091	-0.006	0.0052	-0.0046	-18.7
-0.012	-0.006	0.0037	-0.0015	-18.7
-0.0083	-0.0068	0.0067	0.0015	-18.7
0.0045	-0.0068	0.0067	0.0015	-18.7
0.027	-0.0053	0.0037	0.0015	-18.7
0.0232	-0.0053	0.0037	0.0007	-18.7
0.0015	-0.0053	0.0052	-0.0023	-18.6
-0.012	-0.0053	0.0052	-0.0015	-18.6
-0.0256	-0.0068	0.006	-0.0046	-18.6
-0.0233	-0.0053	0.003	-0.0015	-18.6
-0.0143	-0.0046	0.003	0.0007	-18.6
-0.0105	-0.0046	0.0052	-0.0015	-18.6
-0.0053	-0.003	0.0112	0.0007	-18.6
-0.0068	-0.0046	0.0352	-0.0015	-18.6
-0.0023	-0.0046	0.0472	-0.0015	-18.6
-0.0068	-0.003	0.027	-0.003	-18.6
-0.012	-0.0015	0.0045	-0.003	-18.6
-0.0083	-0.0015	-0.0143	-0.003	-18.6
-0.0068	-0.0015	-0.0353	-0.006	-18.6
-0.0075	-0.0023	-0.0428	-0.0083	-18.5
-0.0083	-0.003	-0.0353	-0.0038	-18.5
0.003	-0.0023	0.0045	0.0037	-18.5
0.0217	0.0007	0.0457	0.0067	-18.5
0.0262	-0.0015	0.0352	0.0127	-18.5
0.0255	-0.0046	0.0075	0.024	-18.5
0.0172	-0.0075	-0.0143	0.0195	-18.5
0.0052	-0.0083	-0.0353	0.0015	-18.5
0.0015	-0.0068	-0.0308	-0.003	-18.4
0.0045	-0.0046	-0.021	-0.0053	-18.4
0.003	-0.0023	-0.0083	-0.0046	-18.4
-0.0015	-0.003	0.0052	0	-18.4
-0.0015	-0.0023	0.0082	-0.0008	-18.3
-0.0038	-0.0023	0.0157	0.0015	-18.3
-0.0038	-0.0008	0.0105	0.0007	-18.3
-0.003	0.0007	0.0067	-0.0015	-18.3
-0.003	-0.0015	0.009	-0.0015	-18.2
-0.0015	-0.0015	0.009	0	-18.2
-0.0038	-0.0023	0.0105	0.0007	-18.2
-0.0046	-0.0023	0.009	0.0007	-18.2
-0.0046	-0.0008	0.006	0.0015	-18.2
-0.0015	-0.0008	0.0015	0.0022	-18.1
0.0007	-0.0008	-0.0008	0.0045	-18.1
0	-0.0008	-0.0015	0.0022	-18.1
-0.0038	-0.0008	-0.0023	0	-18
-0.0068	-0.0008	-0.0015	-0.0008	-18
-0.0023	0	-0.0046	-0.0023	-18
-0.0008	0.0007	-0.0083	-0.0008	-17.9
0.0015	0.0015	-0.0105	0.0007	-17.9
0.0007	0.0015	-0.0098	0	-17.8
-0.0015	0.0007	-0.0083	-0.0008	-17.8
-0.0023	0	-0.0046	-0.0038	-17.7
-0.0023	-0.0008	0.003	-0.0053	-17.7
0.003	-0.003	0.0037	-0.003	-17.6
0.0045	-0.0023	-0.0015	-0.003	-17.6
0.0082	-0.0008	-0.0068	-0.0015	-17.6
0.0067	0	-0.0091	-0.0023	-17.6
0.0045	0.0007	-0.012	-0.0008	-17.5
0.0015	-0.0008	-0.012	0.0015	-17.5
-0.0038	0	-0.0068	0.0007	-17.4
-0.0068	0.0015	-0.0083	0	-17.4
-0.0075	0.0015	-0.0091	0.0007	-17.3
-0.0128	0	-0.0053	0.0007	-17.3
-0.0165	-0.0008	-0.0023	-0.0015	-17.2
-0.0091	-0.0008	-0.0008	0.0007	-17.2
0.0007	-0.0023	0.0015	0.0052	-17.2
0.003	-0.0008	0.0052	0.0052	-17.1
0.006	-0.0008	0.0052	0.003	-17.1
0.009	-0.0008	0.0082	0.0015	-17.1
0.0135	0.003	0.0127	0.003	-17.1
0.0142	0	0.009	0.0067	-17
0.012	-0.0015	0.0097	0.0082	-17
0.0075	-0.003	0.0105	0.0015	-16.9
0	-0.003	0.012	-0.0098	-16.9
-0.003	0	0.0165	-0.0128	-16.9
-0.0046	0.0007	0.0142	-0.0053	-16.8
-0.0015	-0.0008	0.0105	-0.0053	-16.8
-0.0046	-0.003	0.0075	-0.0068	-16.7
-0.0053	-0.003	0.0067	-0.0015	-16.7
-0.0023	-0.0046	0.0045	-0.0015	-16.7
-0.0046	-0.0046	0.0037	0.0015	-16.7
-0.0008	-0.0038	0.0045	0.0015	-16.6
0.0007	-0.0038	0.0045	0.0022	-16.6
-0.0008	-0.0038	0.003	0.003	-16.6
-0.0008	-0.0046	0.0015	0.0007	-16.5
0	-0.0046	0.003	0.0007	-16.5
0.0007	-0.003	0.006	-0.0008	-16.5
0.0007	-0.0015	0.0067	0.0007	-16.4
-0.0008	-0.0038	0.0067	0	-16.4
-0.0008	-0.003	0.0037	0.0007	-16.4
-0.0023	-0.0023	0.0075	0.0015	-16.3
0	-0.0023	0.0082	0.003	-16.3
0.0037	0.0007	0.0052	0.0045	-16.3
0.0037	0.0015	0.0045	0.0045	-16.2
0.0007	0.0037	0.0015	0.0015	-16.2
0.0007	0.003	0.0015	-0.0015	-16.2
-0.0008	-0.0008	0.0015	-0.0015	-16.2
-0.003	0	0.0015	-0.003	-16.1
-0.0015	-0.0008	0.0037	-0.0038	-16.1
0.0015	-0.0015	0.003	-0.0015	-16.1
0.003	-0.0023	0.0052	0.0015	-16
0.0045	-0.003	0.006	0.0015	-16
0.0045	-0.003	0.0045	0.003	-16
0.0037	-0.0053	0.0052	0.003	-15.9
0.003	-0.0038	0.0037	0.0037	-15.9
0.0015	-0.0023	0.0045	0.0052	-15.8
-0.0015	-0.0015	0.0015	0.0052	-15.8
-0.0015	0.0007	0.0015	0.0075	-15.8
-0.003	0.0015	0.0007	0.0052	-15.8
-0.0046	0.0045	0	0.0045	-15.7
-0.0046	0.0045	0.0015	0.003	-15.7
-0.0053	0.0045	-0.0008	0.0015	-15.7
-0.003	0.0067	-0.0015	0.0022	-15.6
0.003	0.0045	-0.003	-0.0008	-15.6
0.009	0.0052	-0.0046	0.0007	-15.5
0.0097	0.006	-0.0046	0.0052	-15.5
0.0052	0.0015	-0.003	0.0045	-15.5
-0.003	0.0007	0	0	-15.4
-0.0135	0.0015	0.0015	-0.0038	-15.4
-0.0135	0	-0.0015	-0.0053	-15.3
-0.006	-0.0008	-0.003	-0.0023	-15.3
-0.0015	-0.0015	-0.0023	-0.003	-15.3
-0.0038	-0.003	-0.003	-0.0046	-15.3
-0.0015	0	-0.0023	-0.0038	-15.2
0.0037	0.0015	-0.0008	-0.0046	-15.2
0.0007	0.0015	-0.0023	-0.0046	-15.1
-0.0023	0.0007	-0.0038	-0.0053	-15.1
-0.0015	-0.0008	-0.003	-0.0015	-15
-0.0015	-0.0015	-0.003	-0.003	-15
-0.0008	-0.0015	-0.0008	-0.0038	-14.9
-0.0015	-0.0015	0.0052	0.0007	-14.9
-0.0008	0	0.0045	-0.0023	-14.9
-0.0015	0.0007	0.003	-0.0046	-14.8
-0.0038	0.0007	0.003	-0.0091	-14.8
-0.003	0.0015	-0.0008	-0.0128	-14.8
0	0.0007	-0.003	-0.0143	-14.7
0.0045	0.0015	-0.0075	-0.0158	-14.7
0.0105	0.003	-0.0091	-0.0083	-14.6
0.0127	0.0037	-0.0083	0.003	-14.6
0.0157	0.0007	-0.006	0.0157	-14.5
0.0157	-0.0015	0.0015	0.024	-14.5
0.0082	-0.003	0.0082	0.024	-14.4
-0.0046	-0.0053	0.0112	0.0112	-14.4
-0.0203	-0.0068	0.0165	-0.0015	-14.4
-0.0173	-0.0068	0.018	-0.0038	-14.3
-0.006	-0.0083	0.0187	-0.0046	-14.3
-0.0015	-0.0068	0.0195	-0.0053	-14.2
0.0052	-0.003	0.018	-0.0091	-14.2
0.0082	-0.0008	0.012	-0.006	-14.1
0.0037	-0.0015	0.003	0.0022	-14.1
0.0015	-0.003	-0.003	-0.0015	-14
-0.0015	-0.003	-0.0083	-0.0015	-14
-0.003	-0.0015	-0.0143	-0.003	-14
-0.0015	-0.0015	-0.0135	-0.0046	-13.9
-0.0015	-0.0015	-0.0113	0	-13.9
-0.0008	-0.0015	-0.0105	-0.0015	-13.9
0.0007	-0.0023	-0.0105	0.0015	-13.8
0.0015	-0.003	-0.0113	-0.0008	-13.8
0.0007	-0.0015	-0.012	-0.0008	-13.7
-0.0008	-0.003	-0.0128	0.0022	-13.7
0	-0.003	-0.0135	0.0007	-13.6
-0.0008	-0.0015	-0.0143	0.0022	-13.6
-0.0008	-0.0008	-0.0128	0.0015	-13.5
0	-0.0015	-0.012	0.0037	-13.5
0	-0.0015	-0.0098	0.003	-13.5
0.0007	-0.003	-0.006	0.0015	-13.5
0.003	-0.003	-0.0038	0.0037	-13.4
0.0045	-0.0023	-0.003	-0.0015	-13.4
0.0015	-0.0015	-0.0038	-0.0053	-13.3
-0.0008	-0.0015	-0.003	-0.0053	-13.3
-0.003	-0.0023	0.0007	-0.0046	-13.3
-0.003	-0.0015	0.003	-0.0015	-13.2
-0.0023	-0.0008	0.003	-0.0023	-13.2
0.0015	0.0007	0.0015	-0.003	-13.2
0.003	-0.0015	0.003	-0.0023	-13.1
0.0015	-0.003	0.0007	-0.0008	-13.1
0.003	-0.0008	-0.0008	0.0007	-13.1
0.0007	-0.0015	0.0015	0	-13.1
-0.0008	-0.0015	-0.0008	-0.0015	-13
0	-0.0015	0	0.0007	-13
-0.0008	-0.003	0.0007	0.0067	-13
0.0015	-0.0015	0.0007	0.009	-12.9
0	0.0007	0.0015	0.009	-12.9
-0.0008	0.0015	0.0007	0.0097	-12.9
0.0007	-0.0008	0.003	0.0075	-12.8
0	-0.0008	0.003	0.006	-12.8
0	-0.0008	0.0007	0.0045	-12.8
-0.0015	-0.0015	0.0015	0.0015	-12.8
-0.0008	-0.0015	0.0022	-0.003	-12.7
0.0007	-0.0015	0.0015	-0.0053	-12.7
0.0007	-0.0015	0.003	-0.003	-12.7
0	-0.003	0.0045	-0.003	-12.7
-0.0008	-0.0038	0.003	-0.0046	-12.6
0	-0.0053	0.003	-0.0046	-12.6
-0.0015	-0.0046	0.003	-0.0038	-12.6
-0.0008	-0.003	0.0052	-0.0038	-12.6
0.0015	-0.0038	0.0045	-0.0023	-12.6
0.0015	-0.0015	0.0015	-0.0023	-12.5
0.0007	-0.0015	0.0007	-0.0015	-12.5
0.0007	-0.0015	0.0022	0.0007	-12.5
0	-0.003	0.003	0	-12.5
0	-0.003	0.0015	0.0015	-12.4
0.0007	0.0007	0	0.0045	-12.4
0	-0.0015	0	0.003	-12.4
0.0015	-0.0023	-0.0008	0.0007	-12.4
0.0022	-0.003	0	0.0022	-12.3
0.0007	-0.0008	0.0007	0.0037	-12.3
0.0015	0	0.0007	0.0052	-12.3
0.0007	-0.0015	0.0015	0.003	-12.3
0.0007	-0.0015	0.0015	0.0045	-12.3
0.0015	-0.003	0.0015	0.0067	-12.3
-0.0008	-0.0023	0.0022	0.0052	-12.2
-0.0046	-0.003	0.003	0.003	-12.2
-0.0053	-0.0008	0.0037	0.0015	-12.2
-0.0023	0	0.0015	0.0007	-12.2
-0.0023	0.0007	0.0022	0.0007	-12.2
-0.003	0.0015	0.003	-0.0015	-12.2
-0.0053	0.0007	0.0045	-0.003	-12.2
-0.0091	0.0007	0.0082	-0.0023	-12.2
-0.0068	0.0015	0.0105	-0.0008	-12.1
-0.003	0.0045	0.0105	-0.0023	-12.1
-0.003	0.006	0.0082	-0.0046	-12.1
0.0007	0.0037	0.0052	0.0007	-12.1
0.0067	0.0007	0.003	0.006	-12.1
0.0142	0.0007	0.003	0.0045	-12.1
0.0135	0.0015	0.003	0.003	-12.1
0.0045	0.0022	0.006	0.0015	-12
-0.0046	0.0015	0.0067	0.003	-12
-0.0105	-0.003	0.006	0.0007	-12
-0.0135	-0.0091	0.0075	-0.003	-12
-0.012	-0.0091	0.0067	-0.0015	-12
-0.0098	-0.006	0.0052	0	-12
-0.0053	-0.003	0.0067	-0.0008	-12
-0.0008	-0.003	0.0067	-0.0015	-11.9
0.0052	-0.0038	0.0075	-0.0038	-11.9
0.0075	-0.003	0.009	-0.0053	-11.9
0.003	0.0045	0.009	-0.0075	-11.9
0.0037	0.012	0.0067	-0.0083	-11.9
0.0022	0.012	0.0045	-0.0075	-11.9
0.0022	0.0082	0.0037	-0.0083	-11.9
0.003	0.0075	0.0015	-0.0068	-11.9
0.003	0.0045	0.0022	-0.0023	-11.8
0.0045	0.0007	0.0045	0.0007	-11.8
0.0045	-0.003	0.0045	0.0007	-11.8
0.0045	-0.0105	0.0052	-0.0008	-11.8
0.0037	-0.015	0.006	-0.0008	-11.8
0.003	-0.021	0.0052	0.0007	-11.8
0.003	-0.0263	0.0075	0.0007	-11.7
0.0015	-0.0285	0.0082	0.0015	-11.7
0.0015	-0.027	0.0067	0.0082	-11.7
0.0015	-0.0165	0.0045	0.0127	-11.7
0.0045	-0.0083	0.003	0.0142	-11.7
0.0037	-0.0023	0.0007	0.0157	-11.7
0.0015	0.003	0.0007	0.0157	-11.7
0.0007	0.0082	0.0015	0.0127	-11.7
-0.0008	0.0135	-0.0008	0.0127	-11.6
-0.0008	0.0142	-0.0023	0.0112	-11.6
0.0007	0.0112	-0.0015	0.0075	-11.6
0.0015	0.0112	-0.0015	0.0037	-11.6
-0.0008	0.0142	-0.0008	0.0007	-11.6
-0.0008	0.0172	-0.0023	-0.0015	-11.5
0.0007	0.0172	-0.0015	-0.0046	-11.5
0	0.009	-0.0015	-0.0068	-11.5
-0.0015	0.0007	-0.0008	-0.0083	-11.5
-0.0015	0.0007	-0.0008	-0.0105	-11.5
-0.0046	-0.0008	-0.0015	-0.0128	-11.5
-0.0046	-0.0015	-0.0015	-0.0143	-11.4
-0.0023	-0.0046	-0.0046	-0.0158	-11.4
-0.0046	-0.0083	-0.0015	-0.015	-11.4
-0.0015	-0.0091	-0.0046	-0.015	-11.4
0.0015	-0.0091	-0.0053	-0.0225	-11.4
0.0007	-0.0053	-0.003	-0.0203	-11.4
-0.0015	-0.003	-0.0046	-0.0068	-11.4
-0.0046	-0.0038	-0.003	-0.003	-11.4
-0.0023	-0.003	-0.0008	-0.0038	-11.4
-0.0008	-0.0046	0.0007	0.0015	-11.4
0.0007	-0.0053	0	0.003	-11.3
0.003	-0.003	0.0007	0.0037	-11.3
0.0015	-0.003	0.0052	0.003	-11.3
0.003	-0.003	0.0052	0.0045	-11.3
0.003	-0.003	0.0052	0.0045	-11.3
0	-0.003	0.0045	0.0007	-11.3
0.0007	-0.0015	0.0052	0.0015	-11.3
0.003	-0.0068	0.0052	0.0015	-11.3
0.003	-0.0083	0.0037	0.0007	-11.3
0.0045	-0.0015	0.0015	-0.0053	-11.3
0.0045	0.0037	-0.0008	-0.0158	-11.3
0.003	0.003	0.0007	-0.0105	-11.3
0.0052	0.0045	0.0022	0.0037	-11.2
0.0037	0.0127	0.0015	0.0067	-11.2
0.0007	0.0247	0.0007	0.0165	-11.2
0.0007	0.0315	-0.0015	0.0195	-11.2
0.0007	0.027	-0.0008	0.012	-11.2
0.0007	0.009	-0.0008	0.018	-11.2
0	-0.0091	-0.0008	0.0232	-11.2
-0.0023	-0.021	0.0015	0.0232	-11.1
-0.0046	-0.0323	0.003	0.0127	-11.1
-0.0023	-0.03	0.0037	0.0105	-11.1
-0.0015	-0.0165	0.0015	0.0142	-11.1
-0.0023	-0.0083	0.0007	0.009	-11.1
0.0007	-0.0038	0	0.006	-11.1
-0.0008	-0.0068	0	-0.0046	-11.1
-0.0015	-0.0128	0	-0.0091	-11
-0.0015	-0.012	-0.0008	-0.0105	-11
0.0007	-0.0068	-0.0008	-0.012	-11
0.003	-0.003	-0.0008	-0.0105	-11
0.0007	0	0.0015	-0.012	-11
-0.0008	0.0015	0.0015	-0.0105	-11
-0.003	0.003	0.0045	-0.0091	-11
-0.0046	0.003	0.0052	-0.006	-11
-0.0068	0.0015	0.0015	-0.003	-10.9
-0.0053	0.0007	0.0015	-0.0023	-10.9
-0.0015	0.003	-0.0008	-0.0023	-10.9
-0.0008	0.0045	0.0007	-0.003	-10.9
0	0.0015	0.003	-0.0038	-10.9
0.0015	0.003	0.0007	-0.0046	-10.9
0.0052	0.003	0.0007	-0.0046	-10.9
0.0067	-0.0008	0	-0.0038	-10.8
0.0022	-0.0015	-0.003	-0.0015	-10.8
-0.0008	-0.003	-0.0038	0.0007	-10.8
0.0067	-0.003	-0.0046	0.0015	-10.8
0.0195	-0.0015	-0.0023	0.0052	-10.8
0.0217	-0.0015	0	0.009	-10.8
0.0142	0.0007	0.0007	0.0082	-10.8
0.0052	0.0015	0.0015	0.0045	-10.8
-0.0023	0.0015	0.0015	0.0015	-10.8
-0.0105	0.0007	0.0015	0.0007	-10.8
-0.0143	0.003	0.0015	-0.0015	-10.8
-0.0143	0.0015	0.003	-0.0015	-10.8
-0.0135	0	0.0052	0.0007	-10.8
-0.0091	0.0007	0.0052	0.0015	-10.8
-0.003	0.0015	0.0045	0.0015	-10.7
0.0037	0.0015	0.0045	0.0007	-10.7
0.0015	0.0015	0.0022	0.0007	-10.7
-0.0046	0.0007	0.0007	-0.0023	-10.7
-0.0053	-0.0008	0.0045	-0.003	-10.7
-0.0046	-0.003	0.003	-0.0023	-10.7
-0.0038	-0.0038	-0.0008	0.0015	-10.7
-0.0008	-0.0038	0.0007	0.0052	-10.7
0.0007	-0.003	-0.0015	0.0022	-10.7
0.0052	-0.0015	0	-0.0075	-10.7
0.0067	-0.0008	0.0007	-0.0105	-10.6
0.0045	-0.0008	-0.003	0.0007	-10.6
0.0045	0.0007	-0.0015	0.0052	-10.6
0.0022	0.0007	-0.0008	0.0045	-10.6
0.0007	-0.0008	-0.0015	0.0045	-10.6
0.0007	0.0007	-0.0008	-0.0008	-10.6
0.0007	0	0	0.0007	-10.6
0.0015	0	0.0015	0.0007	-10.6
-0.0008	0	0.0037	0.0015	-10.6
0	-0.0015	0.003	0.0045	-10.6
-0.0008	-0.0015	-0.0015	0.0015	-10.6
-0.0023	-0.0015	-0.003	0.0007	-10.6
-0.0008	-0.0015	-0.003	-0.0008	-10.6
-0.0015	-0.0008	-0.0023	-0.003	-10.6
-0.0008	-0.003	0	-0.0046	-10.6
-0.0015	-0.0038	-0.0008	-0.0053	-10.6
-0.0008	-0.003	0.0015	-0.0038	-10.6
0.0007	-0.0023	0.0037	-0.0008	-10.6
-0.0008	-0.0015	0.0037	-0.0008	-10.6
0	-0.0023	0.0052	0	-10.6
0.0022	-0.003	0.0052	-0.0008	-10.6
0.0015	-0.003	0.0045	-0.0008	-10.6
0.0007	-0.003	0.0045	0.0007	-10.7
-0.0008	-0.003	0.0052	0.0015	-10.7
-0.0015	-0.003	0.0037	0.0007	-10.7
-0.003	-0.003	0.0007	0	-10.7
-0.0023	-0.003	0.0022	0.0007	-10.7
0	-0.0008	0.0045	0.0007	-10.7
-0.0008	0.0007	0.0037	0.0022	-10.7
-0.0008	0.0015	0.0045	0.003	-10.7
-0.0015	0.0007	0.0067	0.0045	-10.7
0	0	0.0075	0.0037	-10.7
0.0022	0.0007	0.0052	0.0037	-10.8
0.0022	0	0.0045	0.0052	-10.8
0.003	0	0.0037	0.0045	-10.8
0.0007	-0.0015	0.0045	0.006	-10.8
0	-0.0015	0.0052	0.003	-10.8
0.0022	0.0015	0.003	-0.0008	-10.8
0.0015	0.0015	0.0015	-0.003	-10.8
0.0015	0.0015	-0.0008	-0.003	-10.8
0.0007	0.0007	-0.0015	-0.0046	-10.8
0	0.0007	-0.0008	-0.0046	-10.8
0	0.0022	-0.003	-0.0023	-10.9
0.0007	-0.0008	-0.003	-0.0038	-10.9
0	0	-0.0008	-0.0038	-10.9
0	0	0.0007	-0.0023	-10.9
-0.0008	-0.0023	0.0052	-0.0008	-10.9
-0.0008	-0.0008	0.006	0.0007	-11
-0.0015	-0.0008	0.0037	-0.0008	-11
-0.0015	-0.0008	0.0045	0.0007	-11
-0.0015	-0.0008	0.0015	-0.0015	-11
0.0007	-0.0008	0.003	-0.0015	-11.1
0.0082	-0.0015	0.0007	0.0015	-11.1
0.0112	-0.003	-0.0015	0	-11.1
0.0105	-0.003	0	0	-11.2
0.009	-0.003	0	0.0015	-11.2
0.003	-0.003	-0.0015	-0.0008	-11.2
-0.0053	-0.0015	-0.0015	0.0007	-11.2
-0.0105	-0.003	-0.0023	-0.0008	-11.3
-0.015	-0.0046	-0.0023	-0.0023	-11.3
-0.0135	-0.003	-0.0023	-0.0015	-11.3
-0.0091	-0.003	-0.003	-0.0015	-11.3
-0.003	-0.003	-0.0046	-0.0008	-11.4
0.0097	-0.0015	-0.0015	0	-11.4
0.012	-0.0008	0.0015	-0.0015	-11.4
0.0052	-0.003	0.0045	0	-11.4
0	-0.003	0.0067	0.0007	-11.5
-0.0046	-0.003	0.0045	0	-11.5
-0.0053	-0.0046	0.0007	-0.0008	-11.5
-0.0038	-0.0046	0.0015	0	-11.6
0.0037	-0.0046	-0.0008	0.0015	-11.6
0.0052	-0.0038	0	0.0007	-11.6
0.0037	-0.0046	0.0007	0.0007	-11.7
0.0022	-0.003	0.003	0.0007	-11.7
-0.0008	-0.0023	0.0067	-0.0008	-11.7
-0.0015	-0.0038	0.0052	0.0007	-11.7
-0.0015	-0.0038	0.0075	0	-11.8
-0.0023	-0.003	0.0082	0.0007	-11.8
-0.0023	-0.0008	0.006	0.0022	-11.8
-0.003	-0.0008	0.0075	0.0007	-11.9
-0.003	-0.0008	0.0067	0.003	-11.9
-0.0046	-0.0008	0.0015	0.0022	-11.9
-0.003	-0.0015	-0.0053	0.0022	-12
-0.0015	0.0007	-0.0105	0.0052	-12
0.0007	0.0082	-0.0135	0.0015	-12.1
0.0015	0.0127	-0.0128	0.0007	-12.1
0	0.0112	-0.0091	0.0007	-12.2
-0.0015	0.0097	-0.0083	-0.003	-12.2
-0.003	0.0052	-0.003	-0.0046	-12.2
-0.0008	-0.0015	0.009	-0.0038	-12.2
-0.0015	-0.0046	0.0217	-0.003	-12.3
-0.0038	-0.0075	0.018	-0.0023	-12.3
-0.0023	-0.0113	0.003	-0.0023	-12.4
-0.0015	-0.0158	-0.006	-0.0008	-12.4
-0.0023	-0.0181	-0.0113	0.0015	-12.5
-0.0038	-0.0181	-0.0105	0.0015	-12.5
-0.0046	-0.0143	-0.0068	0.0037	-12.6
-0.0098	-0.0098	-0.003	0.0067	-12.6
-0.0135	-0.0023	0.0015	0.003	-12.6
-0.0105	0.0007	0.003	0.0015	-12.6
-0.0068	0.0015	0.0075	-0.0008	-12.7
-0.006	0.0045	0.0097	-0.0046	-12.7
-0.0046	0.0067	0.0105	-0.003	-12.8
-0.0023	0.0105	0.0082	-0.0038	-12.8
0	0.0097	0.003	-0.0046	-12.9
0.0045	0.009	0.003	-0.003	-12.9
0.0052	0.009	0.003	-0.0008	-13
0.006	0.0067	0.0015	-0.0008	-13
0.0052	0.003	0.0052	-0.0023	-13.1
0.0052	-0.0015	0.0052	-0.0046	-13.1
0.0067	-0.0015	0.0052	-0.0046	-13.1
0.0045	-0.0023	0.0045	-0.0015	-13.2
0.0067	-0.0046	0.0007	-0.0015	-13.3
0.0067	-0.0038	0	-0.003	-13.3
0.0075	-0.0015	0.0015	-0.0015	-13.4
0.0075	0.0015	0.0022	0.0015	-13.4
0.0067	0.0007	0.0022	0	-13.5
0.0052	-0.0023	0.0007	0.0015	-13.5
0.003	-0.0015	0.0007	0.003	-13.5
0.003	-0.0023	0.003	0.0037	-13.6
0.003	-0.0015	0.003	0.0045	-13.6
0.0045	-0.003	0.0067	0.003	-13.7
0.0037	-0.0008	0.006	0.0022	-13.8
0.0022	0.0015	0.0022	0.0022	-13.8
0.0015	0.0015	0.0015	0.0052	-13.9
0.0015	0.0067	-0.0008	0.003	-13.9
0.0007	0.0082	-0.0008	0.0015	-14
0	0.0037	-0.003	0.003	-14
-0.0015	0.0045	-0.0046	0.0045	-14.1
0.0007	0.0052	-0.003	0.0045	-14.1
-0.0008	0.0045	-0.0038	0.0015	-14.2
-0.003	0.0015	-0.003	-0.0015	-14.3
-0.0015	-0.0023	-0.003	0	-14.3
-0.0015	-0.0008	-0.0046	0.0015	-14.4
0.0007	0.0045	-0.003	0.0007	-14.4
0.0015	0.0052	0	0.003	-14.5
-0.0008	0.009	0.0007	0.0015	-14.5
-0.0015	0.0097	0.0007	-0.0015	-14.6
-0.0023	0.0082	0.0015	0.0007	-14.7
-0.0015	0.003	0.0045	-0.0008	-14.7
-0.0008	-0.0068	0.0052	-0.0015	-14.8
0.0007	-0.0158	0.0067	-0.0008	-14.9
0.0007	-0.0248	0.006	0	-14.9
0.0015	-0.0233	0.003	0.0007	-15
0.0015	-0.0165	0.0015	0.003	-15
0.0037	-0.012	0.003	0.0045	-15.1
0.0067	-0.0068	0.0067	0.003	-15.2
0.0082	-0.0038	0.0052	-0.0015	-15.3
0.0105	-0.0008	0.0052	-0.003	-15.3
0.012	0.0015	0.0067	-0.003	-15.4
0.012	0	0.0045	-0.0053	-15.5
0.0105	-0.0053	0.003	-0.0053	-15.6
0.009	-0.006	0.0007	-0.0046	-15.7
0.0082	0.0007	0	-0.0015	-15.8
0.0052	0.0015	0.003	-0.003	-15.8
0.0045	-0.0015	0.0022	-0.0046	-15.9
0.0022	-0.0053	0.0022	-0.0046	-16
-0.0008	-0.0068	0.0037	-0.0068	-16.1
-0.0008	-0.0083	0.003	-0.003	-16.1
-0.003	-0.0091	0	-0.0008	-16.2
-0.0038	-0.0083	-0.0008	0.0045	-16.3
-0.0053	-0.0046	0.0015	0.0045	-16.3
-0.0068	-0.0023	0.0022	0	-16.5
-0.006	0.0015	0.003	0.0015	-16.5
-0.0068	0.0045	0.0037	0	-16.6
-0.0053	0.0015	0.0015	0.0007	-16.7
-0.0046	0.0037	0.0015	0.0037	-16.8
-0.0046	0.0045	0.003	0.0037	-16.9
-0.0038	0.0037	0.003	0.003	-17.1
-0.0053	0.0015	0.0015	0.0045	-17.1
-0.003	0.0007	0	0.0052	-17.2
-0.0008	0	-0.0015	0.0015	-17.3
-0.0053	0	-0.0015	0.0007	-17.5
-0.0053	0.003	-0.0015	0.003	-17.6
-0.0038	0.003	0	0.0045	-17.6
-0.0038	-0.0008	0.0007	0.0037	-17.7
-0.003	-0.0015	0.0015	-0.0008	-17.8
-0.0046	0.0015	0.0015	0	-18
-0.0053	0.003	-0.0008	0.003	-18
-0.0046	-0.0015	-0.0015	-0.0023	-18.1
-0.003	-0.0091	-0.0015	-0.0053	-18.3
-0.0015	-0.0128	-0.0015	-0.0053	-18.4
-0.0015	-0.0083	0	-0.003	-18.5
-0.0015	0.0007	0	-0.0008	-18.6
0	0.0015	0	-0.003	-18.7
-0.0008	-0.0046	-0.0008	-0.003	-18.9
0.0007	-0.0053	0.0007	-0.0008	-19
0.0007	-0.0046	0.0007	-0.0015	-19.2
0	0.0007	-0.0015	0.0007	-19.4
-0.0008	0.0067	-0.003	0.0015	-19.5
0.0007	0.0112	-0.0046	0.0022	-19.6
0.0007	0.0105	-0.0053	0.0022	-19.8
0.0007	0.012	-0.0068	0.003	-19.9
0.0022	0.0127	-0.0053	0.003	-20.1
0.0037	0.0082	-0.0046	0.0052	-20.2
0.0045	0.009	-0.0046	0.0052	-20.3
0.0045	0.0045	-0.003	-0.0008	-20.5
0.0007	-0.0091	-0.003	-0.0053	-20.7
0	-0.0188	-0.003	-0.0091	-20.8
-0.0008	-0.0181	-0.0015	-0.0091	-20.9
0.0007	-0.0105	0.0007	-0.0068	-21.1
0.0007	-0.0038	0.0015	-0.003	-21.2
0.0015	0.0015	0.0007	0.0007	-21.4
0.0007	0.003	0.0007	0.0022	-21.6
-0.0023	0.0045	-0.0015	0.0052	-21.8
-0.003	0.0082	-0.0015	0.009	-22
-0.0046	0.0052	-0.003	0.0052	-22.2
-0.0038	-0.0008	-0.003	0.0045	-22.4
-0.0046	-0.003	-0.003	0.003	-22.6
-0.0038	-0.006	-0.0046	0.0015	-22.8
-0.0015	-0.0068	-0.0046	0.0015	-23
-0.0038	-0.003	-0.0053	-0.0008	-23.2
-0.0015	0.0007	-0.006	0.0015	-23.4
-0.0008	0.0007	-0.0053	0.0007	-23.6
0	-0.003	-0.0038	-0.0015	-23.9
0.0007	-0.0075	-0.006	-0.0015	-24
0.0007	-0.0068	-0.0053	-0.0008	-24.3
0.0022	-0.0023	-0.0038	-0.0015	-24.4
0.0015	-0.0015	-0.0023	-0.0015	-24.7
0.0045	-0.003	0.0007	-0.0015	-24.8
0.0052	-0.003	0.0007	-0.0023	-25.1
0.0045	0	0.003	-0.0008	-25.2
0.0052	-0.0008	0.006	-0.0008	-25.5
0.0052	-0.0015	0.0045	0.0007	-25.7
0.0022	0.0007	0.003	0.0022	-26
0.003	0	0.0022	0.003	-26.3
0.0037	-0.0008	-0.0008	0.003	-26.6
0.003	0	-0.0008	0.003	-26.9
0.003	-0.0008	0.0007	0.0015	-27.1
0.003	0.0007	0.0015	0	-27.4
0.0022	0.0022	0.0022	-0.0015	-27.7
0.0015	0.0015	0.003	-0.0046	-27.9
0.0007	-0.0008	0.0015	-0.0053	-28.3
-0.0008	-0.0008	0.003	-0.0046	-28.5
0.0007	-0.0015	0.0015	-0.0015	-28.8
0	-0.0015	0	0	-29.1
0.0007	0	0.0007	0.0015	-29.3
-0.0008	0.0007	0.0022	0.003	-29.6
-0.0008	-0.0015	0.0015	0.0007	-29.9
0.0007	-0.003	0.0015	0.0037	-30.2
0.0015	0.0007	-0.0008	0.0045	-30.5
0.0007	-0.003	-0.0015	0.0015	-30.7
0.0007	-0.0053	-0.0008	0	-31.1
0.003	-0.0046	-0.0008	-0.0015	-31.3
0.0015	-0.0053	-0.0015	-0.0015	-31.6
0	-0.0053	-0.0008	0.0022	-32
-0.0008	-0.0068	0.0015	0.0045	-32.3
0	-0.0053	0.0022	0.0022	-32.6
0.0007	-0.003	0.0022	0.0045	-32.9
0.0007	0.0015	0.0007	0.0067	-33.2
0.0015	0.003	0.0007	0.0075	-33.5
0.0015	-0.0008	0.003	0.0052	-33.8
0.0015	0.0007	0.0045	0.003	-34.1
0.0007	-0.0008	0.0052	-0.0008	-34.4
0	0.0007	0.0082	-0.0038	-34.7
0.0007	0.0007	0.009	-0.0038	-35.1
0.0007	-0.003	0.0082	-0.0046	-35.4
0.0015	-0.003	0.0105	-0.0046	-35.7
-0.0008	-0.003	0.0105	-0.0015	-36
-0.0008	-0.0023	0.009	0	-36.3
0.0007	-0.0015	0.0105	0.0007	-36.6
0.0007	-0.0015	0.0105	0.003	-36.9
-0.0008	0	0.0082	0.0037	-37.3
-0.0008	0.0007	0.0097	0.0022	-37.5
-0.003	0.0007	0.012	-0.0015	-37.8
-0.003	0.0007	0.012	-0.0038	-38.1
-0.0008	0.0007	0.0105	-0.0023	-38.4
-0.0015	-0.0023	0.0097	-0.003	-38.7
-0.0008	-0.003	0.009	-0.0015	-39
0	-0.0023	0.0075	-0.0015	-39.3
-0.0015	-0.003	0.0075	-0.0046	-39.6
-0.0008	-0.003	0.009	-0.0053	-39.9
-0.0015	-0.0015	0.009	-0.0046	-40.2
0.0007	-0.003	0.009	0.003	-40.5
0.0007	-0.0038	0.0082	0.0067	-40.8
-0.0015	-0.0038	0.009	0.0052	-41.1
0	-0.003	0.0082	0.0022	-41.4
-0.0008	0.0007	0.0082	-0.003	-41.7
-0.0008	0.0045	0.0075	-0.0023	-42
-0.0023	0.003	0.0067	-0.0023	-42.3
-0.0008	0.0007	0.0067	-0.0046	-42.6
-0.0008	0	0.0045	-0.0046	-42.9
-0.0008	-0.0008	0.0052	-0.0053	-43.2
0.0007	-0.003	0.0052	-0.0068	-43.5
-0.0008	-0.0075	0.0052	-0.0075	-43.8
-0.0008	-0.0091	0.0067	-0.003	-44.1
-0.0008	-0.0098	0.006	0.0007	-44.4
0.0007	-0.012	0.0052	0.0052	-44.6
-0.0008	-0.012	0.0052	0.0067	-44.9
-0.0008	-0.0068	0.003	0.0052	-45.2
-0.0015	-0.0015	0.0045	0.0082	-45.5
-0.0015	0.0007	0.0045	0.003	-45.8
-0.0015	0.0007	0.0045	0.003	-46.1
-0.0015	-0.0008	0.0045	0.0015	-46.4
0.003	-0.0015	0.0045	-0.0053	-46.7
0.0015	-0.0023	0.006	-0.0068	-46.9
-0.0008	0.0007	0.0067	-0.0068	-47.3
-0.0023	0.0015	0.006	-0.0053	-47.5
-0.003	-0.0023	0.0052	-0.0008	-47.8
-0.0023	-0.0038	0.0045	0.0007	-48.1
-0.0038	-0.0046	0.003	0.0007	-48.4
-0.0023	-0.003	0.0052	0.0007	-48.7
-0.003	-0.0023	0.0067	0.0015	-49
-0.0046	-0.0023	0.0052	-0.0008	-49.2
-0.0038	-0.0008	0.0052	-0.003	-49.5
-0.0023	-0.0008	0.0045	-0.0091	-49.8
-0.0015	-0.0008	0.003	-0.0143	-50
-0.0008	-0.0008	0.0015	-0.0128	-50.3
-0.0015	-0.0015	-0.0015	-0.0075	-50.5
-0.0015	-0.0008	-0.0023	-0.0113	-50.8
-0.0008	-0.0015	-0.0015	-0.0233	-51.1
0.0007	-0.0008	-0.0015	-0.0293	-51.3
0	0.0007	-0.0015	-0.021	-51.6
0.0007	0	-0.0023	-0.0128	-51.9
0.003	0	-0.003	-0.0008	-52.2
-0.0008	0.0007	-0.003	0.0157	-52.4
0.0007	0.003	-0.0046	0.0232	-52.7
0.0015	0.003	-0.006	0.0277	-53
0	0.0037	-0.0053	0.0247	-53.2
0.0007	0.0045	-0.0053	0.018	-53.5
-0.0015	0.003	-0.0046	0.0165	-53.7
-0.0038	0.0022	-0.0046	0.021	-54
-0.0046	0.0037	-0.0046	0.027	-54.3
-0.003	0.006	-0.003	0.0255	-54.5
-0.0015	0.0045	-0.0046	0.0225	-54.7
-0.0008	0.003	-0.0023	0.0202	-54.9
-0.0008	0.0052	-0.0008	0.0172	-55.2
0.0007	0.0015	-0.003	0.018	-55.4
-0.0008	0.0007	-0.0038	0.0142	-55.7
-0.0008	0.0007	-0.0038	0.009	-55.9
0.0007	0	-0.0038	0.009	-56.1
0.0015	-0.0008	-0.0046	0.0082	-56.3
0.003	-0.0015	-0.0046	0.0052	-56.6
0.0015	-0.0008	-0.0038	-0.0015	-56.8
0	-0.0008	-0.003	-0.0046	-57.1
-0.0008	-0.0008	-0.003	-0.0053	-57.3
0	-0.0008	-0.003	-0.0105	-57.5
0.0015	-0.0008	-0.0023	-0.012	-57.7
0.0015	0	-0.0046	-0.0143	-58
0.003	-0.0008	-0.0075	-0.015	-58.2
0.0052	-0.0008	-0.0053	-0.0135	-58.5
0.0037	0.0007	-0.0038	-0.012	-58.7
0.003	0.0022	-0.0038	-0.0091	-59
0.0052	0.0007	-0.0046	-0.0083	-59.1
0.003	-0.0008	-0.0053	-0.0053	-59.3
-0.0008	0.0007	-0.006	-0.0068	-59.5
-0.0015	0.0007	-0.0038	-0.006	-59.8
-0.0023	0	-0.0015	-0.0053	-59.9
-0.003	0.0007	-0.0008	-0.0083	-60.2
-0.0015	0	0.0007	-0.0113	-60.4
-0.0015	-0.0008	-0.0008	-0.0105	-60.6
-0.0038	-0.003	-0.003	-0.0068	-60.8
-0.0038	-0.0023	-0.0046	-0.006	-61
-0.003	-0.003	-0.0053	-0.0023	-61.2
-0.0015	-0.0038	-0.0046	-0.0023	-61.4
-0.0008	-0.0038	-0.0053	-0.003	-61.6
-0.0015	-0.0046	-0.0053	-0.0015	-61.8
-0.0015	-0.0038	-0.0046	0	-62.1
0.0007	-0.0038	-0.0038	-0.0015	-62.2
0.0007	-0.0046	-0.003	-0.0046	-62.5
0.003	-0.0046	-0.0046	-0.0046	-62.7
0.003	-0.0046	-0.0046	-0.0046	-62.9
0.0045	-0.0023	-0.003	-0.0008	-63.1
0.0037	0	-0.0023	0.0022	-63.2
0.003	-0.0015	-0.0046	0.0045	-63.4
0.0022	-0.0015	-0.0038	0.0045	-63.5
0.0015	-0.0015	-0.0015	0.0052	-63.7
0.003	-0.0015	-0.0046	0.0052	-63.9
0.0045	-0.0015	-0.0046	0.003	-64
0.0045	-0.0008	-0.0046	0.0022	-64.1
0.0045	-0.0015	-0.0046	0.0015	-64.3
0.0015	-0.0015	-0.0008	0.0007	-64.4
0.0007	-0.0015	0	0.003	-64.6
0	-0.0015	0.0015	0.003	-64.7
0	-0.003	0.0015	0.003	-64.9
-0.0008	-0.0023	-0.0008	0.0015	-65
-0.0008	-0.0015	0.0007	-0.0008	-65.2
0.0007	-0.0015	0.0007	-0.0008	-65.3
0.0015	-0.0015	0.0015	-0.0008	-65.5
0.0022	-0.0008	0.0015	0.0007	-65.6
0.0007	-0.0015	0.0015	-0.0008	-65.7
0	-0.003	0.003	-0.003	-65.9
0.0015	-0.0015	0.0045	-0.0015	-66.1
0.0037	-0.0015	0.0045	-0.0008	-66.1
0.0045	-0.003	0.0052	0	-66.2
0.0045	-0.003	0.0067	0.0015	-66.2
0.0052	-0.0015	0.006	0.0007	-66.3
0.003	-0.0015	0.0045	0.0007	-66.3
0	-0.0015	0.0052	0.0007	-66.4
0.0015	0	0.0067	0.0022	-66.4
0	0	0.0067	0.006	-66.5
-0.0015	0.0007	0.0045	0.0082	-66.6
-0.0008	0.0007	0.0052	0.0052	-66.6
-0.0008	-0.0008	0.0052	0.0052	-66.6
0.0007	-0.0008	0.0075	0.0045	-66.7
-0.0008	-0.0015	0.0067	0.0045	-66.8
0.0015	-0.0015	0.0052	0.0052	-66.8
0.0007	0.0007	0.0067	0.0022	-66.9
-0.0008	0.0007	0.0052	0.0022	-66.9
-0.003	0	0.0052	0.0007	-67
-0.003	-0.0008	0.0052	-0.0008	-67.1
-0.003	0	0.003	0.0015	-67.1
-0.0015	0.0007	0.0022	0.0015	-67.2
-0.0023	-0.0008	0.0022	-0.0008	-67.2
-0.0015	-0.0023	0.0015	-0.0046	-67.2
0.0007	-0.0038	0.0015	-0.003	-67.2
0	-0.0046	0.0015	-0.0068	-67.2
-0.0015	-0.006	0.0007	-0.0091	-67.3
-0.0023	-0.0046	0	-0.0053	-67.3
-0.003	-0.0046	-0.0008	-0.0046	-67.3
-0.0015	-0.0046	-0.0015	-0.0046	-67.4
-0.0023	-0.003	-0.0015	-0.0053	-67.4
-0.0046	-0.0023	-0.0008	-0.0053	-67.4
-0.006	-0.0015	-0.0008	-0.0038	-67.5
-0.006	-0.0008	0.0007	0.0007	-67.5
-0.003	-0.0015	0.0015	0.0045	-67.5
-0.0015	-0.0015	0.003	0.0082	-67.5
-0.0008	-0.0008	0.0045	0.0105	-67.5
0.0007	-0.0008	0.0037	0.0082	-67.6
0	-0.0008	0.006	0.0045	-67.6
0.0015	-0.0008	0.0067	0.0045	-67.6
0.0015	0.0015	0.0075	0.0037	-67.6
-0.0008	0.003	0.009	0.0015	-67.7
-0.0023	0.0007	0.0067	0.0015	-67.7
-0.0038	0	0.0067	0.003	-67.7
-0.0015	0.0007	0.0052	0.0007	-67.7
-0.0008	0.0015	0.0052	0.0015	-67.7
0	0.0007	0.0075	0.0015	-67.7
0.0022	-0.0008	0.0067	0.0007	-67.7
0.0037	-0.0008	0.0067	0.0015	-67.7
0.0037	-0.0015	0.006	0.0007	-67.7
0.003	-0.0008	0.0037	0.003	-67.7
0.0015	-0.003	0.003	0	-67.7
-0.0008	-0.003	0.003	0	-67.7
0.0007	-0.0015	0.0022	0.003	-67.7
0.0007	-0.0015	0.003	0.003	-67.7
0.0007	-0.003	0.003	0.0022	-67.7
0.0007	-0.0023	0.0007	0.003	-67.6
0.0007	-0.0015	0	-0.0008	-67.6
0.0007	-0.003	0.0007	-0.0038	-67.6
-0.0023	-0.003	0.0007	-0.0038	-67.6
-0.003	-0.0038	-0.0008	-0.0046	-67.6
-0.0008	-0.0023	-0.0008	-0.0008	-67.6
-0.003	-0.0023	0	-0.0023	-67.6
-0.003	-0.0008	0.0007	-0.0015	-67.5
-0.0023	0.0007	0.0015	-0.0015	-67.5
-0.0015	0	-0.0008	-0.0053	-67.5
-0.0015	0.0007	0.0007	-0.0053	-67.4
-0.0008	0.0007	0.003	-0.0046	-67.4
-0.0015	0.0007	0.0007	-0.003	-67.3
-0.0015	-0.0008	-0.0008	-0.0008	-67.3
-0.0015	0	-0.0008	-0.0008	-67.2
-0.0008	0.0015	-0.0015	0.0007	-67.2
-0.0015	0.0007	-0.0015	-0.0008	-67.1
-0.003	0.0007	-0.0015	-0.0015	-67.1
-0.0015	0.0007	0.0007	-0.0015	-67.1
-0.0015	0.0007	0	-0.0023	-67
-0.0046	0.0007	-0.0023	0	-67
-0.0083	0.0015	-0.003	0.0015	-66.9
-0.0075	0.0015	-0.0008	0	-66.9
-0.0068	0.0015	0.003	0	-66.8
-0.0053	0.0015	0.0015	0	-66.8
-0.0023	0.0015	0.0007	-0.0008	-66.7
-0.0023	0.0007	0.003	-0.0008	-66.6
0.0007	-0.0008	0.0015	-0.0008	-66.6
0.0007	0.0007	0.0022	-0.0015	-66.5
-0.0008	0.0015	0.0022	-0.0015	-66.4
0.0015	-0.0008	0.0015	-0.0015	-66.3
0.0045	-0.0015	0.003	-0.003	-66.2
0.0037	-0.0008	0.0045	-0.0008	-66.1
0.0045	-0.0015	0.0052	-0.0015	-66
0.003	-0.003	0.0045	0	-65.9
0.003	-0.003	0.0045	0.0022	-65.8
0.003	0	0.0045	0.0015	-65.7
0.0045	-0.0015	0.003	0	-65.6
0.0052	-0.003	0.0015	-0.003	-65.5
0.0045	-0.003	-0.0008	-0.0008	-65.4
0.003	-0.003	0.0015	-0.0008	-65.3
0.003	-0.0038	0.0007	0.0007	-65.3
0.0022	-0.0038	-0.0008	0.0007	-65.2
0.0015	-0.0038	0.0015	0.0007	-65.1
0.003	-0.0053	0	0.0015	-65
0.0015	-0.003	-0.0023	0.0015	-64.9
0.0022	-0.003	-0.0038	0.0015	-64.8
0.0015	-0.0046	-0.0015	-0.0008	-64.6
0.003	-0.0023	0.0007	-0.0008	-64.5
0.003	-0.0008	0.0015	-0.0008	-64.4
0.0007	-0.0008	0.003	-0.0008	-64.2
0.003	-0.0015	0.003	0.0007	-64.1
0.0045	-0.003	0.003	0	-63.9
0.003	-0.0038	0.003	-0.0008	-63.8
0.003	-0.006	0.0045	-0.0008	-63.7
0.0022	-0.0053	0.006	0.0022	-63.5
0.0007	-0.0023	0.003	0.0037	-63.4
-0.0008	-0.0008	0.0015	0.0007	-63.2
0.0007	-0.003	0.003	0	-63.1
-0.0008	-0.0046	0.0015	-0.0008	-63
-0.0008	-0.0023	0	-0.0023	-62.8
0.0007	0.0007	-0.0008	-0.0008	-62.7
-0.0015	0.0007	-0.0015	0.0007	-62.6
-0.0015	0	-0.0008	-0.0008	-62.4
0	0	0	0	-62.3
-0.0008	-0.0008	-0.0008	0.0007	-62.1
-0.0015	0.0007	0.0007	0	-62
-0.0015	0.0022	0.0015	-0.0008	-61.8
-0.0023	0.0015	0.0007	0	-61.6
-0.003	0	-0.0008	0	-61.4
-0.0008	-0.0015	-0.003	-0.0038	-61.2
-0.0008	-0.003	-0.0046	-0.0038	-61.1
-0.0008	-0.0038	-0.003	-0.003	-60.9
0.0007	-0.0023	-0.003	-0.003	-60.7
0	-0.0008	-0.003	0.0007	-60.5
0.0007	-0.0015	-0.003	0.0007	-60.3
0.0015	-0.0008	-0.0015	0	-60.1
0.0015	0.0007	0	-0.0008	-59.9
0.0007	0.0007	0.0007	0.0007	-59.8
-0.0008	-0.003	0.003	0.0007	-59.6
-0.0008	-0.0038	0.0045	-0.0008	-59.4
-0.0023	-0.003	0.0037	-0.0023	-59.2
-0.0038	-0.0015	0.0022	-0.0015	-59
-0.003	-0.003	0.0007	0.0007	-58.9
-0.0015	-0.0008	0.0022	-0.0008	-58.7
-0.0015	0.0015	0.0015	0	-58.5
-0.0008	-0.0008	0.0015	0.0015	-58.3
-0.0008	-0.0008	0.003	0.0052	-58.1
-0.0015	0.0022	0.0022	0.003	-57.8
-0.0015	0.0015	0.003	0.0007	-57.6
-0.0008	0.0015	0.0015	0.0007	-57.4
0	-0.0023	0.0007	-0.0015	-57.2
0.0015	-0.0083	0.0015	-0.0015	-57
0.0022	-0.0091	0	0	-56.7
0.0007	-0.006	0.0007	0.003	-56.5
0.0007	-0.0008	0.0015	0.0022	-56.3
0.0007	0.0022	0.003	0.003	-56.1
0.0007	0.003	0.0045	0.0022	-55.8
0.0015	0.0045	0.0045	0	-55.6
-0.0008	0.003	0.0075	-0.0008	-55.4
-0.0008	0.003	0.009	-0.0015	-55.2
0.0007	0.0045	0.0067	0.0007	-55
0.0015	0.0022	0.0045	0.0015	-54.8
0.0015	0.0007	0.0045	-0.0008	-54.5
0.0015	-0.0008	0.003	0	-54.3
0.003	0.0015	0.0037	0.0045	-54.1
0.0007	0.0052	0.003	0.0045	-53.8
0.0007	0.0052	0.003	0.0037	-53.6
0.0015	0.0067	0.003	0.003	-53.3
0.003	0.0015	0.0045	0.0007	-53.1
0.0022	-0.0068	0.0045	-0.0023	-52.8
-0.0015	-0.0083	0.0045	-0.0038	-52.6
-0.003	-0.0068	0.0045	-0.0008	-52.3
-0.0038	-0.0046	0.0052	0.0007	-52.1
-0.0023	-0.0015	0.0067	0.0022	-51.8
-0.0015	-0.0015	0.0052	0.0007	-51.5
-0.0015	-0.003	0.006	-0.0015	-51.3
-0.0008	-0.006	0.003	-0.0023	-51
0.0007	-0.0046	0.0007	-0.0053	-50.8
0.0015	-0.003	0.0007	-0.0046	-50.5
-0.0015	-0.0023	-0.0008	-0.0008	-50.3
-0.0023	-0.0008	-0.0015	0.0015	-50
-0.0015	-0.0008	-0.0038	0.0052	-49.8
-0.0038	-0.0015	-0.0046	0.0045	-49.5
-0.0023	-0.003	-0.0015	0.0022	-49.3
-0.0008	-0.0053	-0.0015	0.003	-49
-0.0008	-0.0068	-0.003	0.0007	-48.7
-0.0015	-0.0046	-0.0015	0.0015	-48.4
-0.0023	-0.0023	-0.003	0.0037	-48.2
-0.0023	0	-0.0038	0.0015	-47.9
-0.0015	0.0015	-0.003	-0.0008	-47.6
-0.0015	0.0015	-0.0015	-0.0015	-47.3
-0.0008	-0.003	-0.0008	-0.0015	-47
-0.0008	-0.0075	0.0007	-0.0008	-46.7
0.0007	-0.0068	0.0022	-0.0015	-46.4
0.0015	0.0007	0.0037	0	-46.1
0	0.006	0.0045	0.0022	-45.9
0.0007	0.0045	0.0045	0.0022	-45.6
-0.0015	-0.0015	0.0045	0.0022	-45.3
-0.0015	-0.0135	0.0037	-0.0008	-45
0.0022	-0.0158	0.0045	-0.003	-44.7
0.0015	-0.0068	0.0037	-0.003	-44.4
0.003	-0.0046	0.0007	-0.003	-44.1
0.0015	-0.0015	-0.0015	-0.0015	-43.9
0.0015	0.0015	-0.0015	-0.0008	-43.6
0.003	0.006	0.0007	0.0045	-43.3
0.003	0.0127	0.0015	0.0052	-43
0.0037	0.015	0.0015	0.0045	-42.7
0.0007	0.0082	0.0037	0.0037	-42.3
0	-0.003	0.0045	0	-42
-0.003	-0.0091	0.0067	0.0015	-41.7
-0.0068	-0.0098	0.006	0.0067	-41.4
-0.006	-0.0083	0.0045	0.009	-41.1
-0.003	-0.0068	0.003	0.0052	-40.8
0.0007	-0.0046	0.0007	0.0045	-40.5
0.009	0.003	-0.0015	0.0045	-40.1
0.012	0.0067	-0.0015	0.003	-39.8
0.0052	0.0052	0.0007	0.006	-39.5
-0.0008	0.0007	-0.0008	0.0007	-39.2
-0.0083	-0.012	-0.0053	-0.0075	-38.9
-0.0091	-0.0181	-0.0053	-0.0083	-38.6
-0.0053	-0.0128	-0.0038	-0.0075	-38.3
-0.0068	-0.0091	-0.0053	-0.0053	-37.9
-0.0038	-0.0046	-0.0053	-0.0046	-37.6
-0.0008	-0.0008	-0.006	-0.0015	-37.3
0.0007	0.0052	-0.003	0.0015	-37
0.0015	0.009	0	0.003	-36.7
0.0007	0.0142	-0.0015	0.0015	-36.4
0.0022	0.0165	-0.003	0.0007	-36
0.0007	0.015	0.0015	-0.0015	-35.7
0.003	0.0082	0.003	-0.003	-35.4
0.0052	-0.0053	0.0022	0	-35.1
0.003	-0.012	0.0052	-0.0023	-34.7
0.0045	-0.0158	0.003	-0.0046	-34.4
0.0037	-0.015	0.0045	-0.0046	-34.1
0.0007	-0.0135	0.0082	-0.0038	-33.8
0.0007	-0.0105	0.009	-0.0046	-33.4
-0.0008	-0.0053	0.0105	-0.0015	-33.1
0.0015	-0.0015	0.0052	-0.0015	-32.8
0.0045	0.0052	0.003	-0.0015	-32.5
0.0015	0.0082	0.0082	-0.0008	-32.2
-0.0038	0.0075	0.0082	0.0022	-31.9
-0.0068	0.0037	0.0045	0.0045	-31.5
-0.0053	-0.0046	0.003	-0.0008	-31.2
-0.003	-0.0068	-0.0008	-0.0023	-30.9
0.0007	-0.0083	-0.0023	-0.0015	-30.6
0.0045	-0.0075	-0.003	0.0015	-30.2
0.0097	-0.0023	-0.0075	0.0075	-29.9
0.0135	0.0007	-0.0105	0.0052	-29.6
0.012	0.003	-0.0113	0.0007	-29.2
0.009	0.0052	-0.0091	0	-28.9
0.0082	0.012	-0.0075	-0.0015	-28.6
0.0037	0.0165	-0.0046	0.0007	-28.2
0.0007	0.0142	0	0	-27.9
0.003	0.0142	0.0067	-0.003	-27.5
0.0015	0.009	0.0045	-0.0046	-27.2
-0.0053	0.003	-0.0053	-0.003	-26.9
-0.0098	0.0022	-0.0053	0.0007	-26.6
-0.012	-0.0023	-0.0015	-0.0015	-26.2
-0.0091	-0.0143	0.003	-0.0075	-25.9
-0.0083	-0.0233	0.0052	-0.0143	-25.6
-0.0075	-0.024	0.0052	-0.0143	-25.2
-0.0046	-0.0218	0.0045	-0.0068	-24.9
-0.0008	-0.0173	0.0067	-0.0053	-24.6
0.0052	-0.0143	0.0112	-0.0023	-24.2
0.0097	-0.0158	0.0082	0.0015	-23.9
0.009	-0.024	0.0105	-0.0023	-23.6
0.0052	-0.0263	0.015	-0.0113	-23.4
0.0022	-0.0143	0.009	-0.0008	-23
0.003	-0.0008	0.0022	0.0277	-22.8
0.0007	0.0052	0.0007	0.0472	-22.5
-0.006	0.0007	0.0052	0.033	-22.2
-0.0105	0.0007	0.0037	0.0067	-22
-0.0075	0.0187	0.0015	0.003	-21.6
0	0.0292	0.0007	0.003	-21.4
0.0105	0.0315	0.0015	0.0037	-21.1
0.0135	0.0307	0.0015	-0.0015	-20.8
0.0045	0.009	-0.0015	-0.0083	-20.6
0.0075	-0.0046	0.0015	-0.0113	-20.3
0.0255	-0.0015	0.0045	-0.0105	-20
0.0225	0	0.0127	-0.0053	-19.7
0.0022	-0.0053	0.0217	-0.0053	-19.4
-0.0128	-0.0203	0.0157	-0.006	-19.2
-0.0256	-0.0315	0.0067	-0.0173	-18.9
-0.0308	-0.0361	0	-0.0256	-18.6
-0.027	-0.0165	-0.0015	-0.0233	-18.3
-0.0225	-0.0068	-0.0015	-0.0181	-18.1
-0.015	-0.0165	-0.0098	-0.0135	-17.9
-0.0091	-0.0113	-0.0181	-0.0098	-17.7
-0.0023	-0.0015	-0.0181	0.0052	-17.5
0.0045	0.0202	-0.0091	0.012	-17.2
0.0015	0.0487	-0.003	0	-17.1
-0.0008	0.042	-0.0015	0.0007	-16.8
0	0.0322	0.0022	0.0202	-16.6
0.0007	0.0345	0.003	0.0307	-16.4
0.0052	0.012	0.0067	0.0345	-16.2
0.006	-0.0015	0.0217	0.033	-16
0.0052	-0.0315	0.024	0.0105	-15.8
0.0067	-0.0638	0.018	-0.012	-15.6
0.0037	-0.0525	0.009	-0.0173	-15.3
0.0015	-0.0256	-0.003	-0.015	-15.1
0.0007	-0.0008	-0.0053	-0.0203	-14.9
0.0007	0.0142	-0.0083	-0.0278	-14.7
0.006	0.021	-0.021	-0.0443	-14.5
0.0105	0.0067	-0.03	-0.048	-14.3
0.0127	-0.0083	-0.0323	-0.0533	-14.1
0.015	-0.006	-0.024	-0.0578	-14
0.018	0.0202	-0.0128	0.0352	-13.8
0.0112	0.0645	-0.0038	0.129	-13.7
0.0052	0.0765	0.0037	0.0772	-13.5
0	0.0547	0.0045	0.021	-13.4
-0.0091	0.039	0.0157	0.0037	-13.3
-0.0091	0.0067	0.0307	-0.0203	-13.1
-0.0068	-0.012	0.033	-0.0105	-13
-0.0053	-0.0323	0.0405	0	-12.9
-0.0008	-0.0765	0.0472	0.0142	-12.7
0.0007	-0.105	0.0277	0.0045	-12.6
0.0022	-0.0983	0.0052	-0.0046	-12.5
0.0022	-0.0293	-0.0143	0.027	-12.4
0.0045	0.0315	-0.0353	0.0502	-12.2
0.009	0.0367	-0.0398	0.045	-12.1
0.009	0.033	-0.0405	0.0127	-12
0.0075	0.018	-0.033	-0.0091	-11.8
0.0045	-0.0015	-0.0256	-0.024	-11.7
-0.003	-0.0053	-0.0181	-0.0308	-11.6
-0.0083	-0.0233	-0.0091	-0.0293	-11.4
-0.0038	-0.0293	-0.003	-0.0091	-11.4
-0.0015	-0.027	0.003	0.027	-11.3
-0.0015	-0.0203	0.006	0.036	-11.3
0.0067	0.006	0.0097	0.0352	-11.2
0.0067	0.027	0.012	0.0277	-11.1
0.003	0.0195	0.0127	0.0007	-11.1
-0.003	-0.0218	0.0127	-0.024	-11
-0.0195	-0.0691	0.0142	-0.0398	-11
-0.0436	-0.0975	0.0157	-0.0405	-10.9
-0.0428	-0.0885	0.0255	-0.0128	-10.8
0.0217	-0.054	0.0495	-0.0046	-10.8
0.0607	0.024	0.0345	-0.0008	-10.7
0.039	0.147	-0.003	0.0292	-10.7
0.0315	0.2092	-0.015	0.033	-10.6
0.0105	0.165	-0.015	0.0232	-10.5
-0.0098	0.069	-0.012	0.0007	-10.5
-0.0165	0.018	-0.0181	-0.0083	-10.4
-0.0263	0.0045	-0.0263	-0.0053	-10.4
-0.0195	-0.0173	-0.0263	-0.0135	-10.3
-0.0113	-0.0075	-0.0135	-0.0075	-10.3
-0.0158	-0.015	-0.0015	-0.0128	-10.3
-0.045	-0.0263	-0.006	-0.0143	-10.3
-0.0653	-0.0278	0.003	-0.0188	-10.3
-0.0511	-0.021	0.0045	-0.024	-10.3
-0.0278	-0.0105	0.0015	-0.0293	-10.3
0.012	-0.0158	0	-0.042	-10.3
0.0382	-0.0338	-0.0113	-0.0525	-10.3
0.0405	-0.063	-0.0053	-0.054	-10.3
0.0427	-0.0495	0.0007	-0.039	-10.3
0.0337	-0.0225	0.0075	-0.0233	-10.3
0.0247	0.0195	0.0142	0.0082	-10.3
0.0157	0.0585	0.0232	0.0262	-10.3
0.0097	0.0367	0.0277	0.0045	-10.3
0.009	-0.0203	0.018	-0.0158	-10.3
0.0067	-0.0698	0.0112	-0.0015	-10.3
0.0052	-0.045	0.003	0.0465	-10.3
-0.0023	0.0442	-0.0053	0.0817	-10.3
-0.0015	0.0967	-0.0083	0.0982	-10.3
0.0105	0.0802	0.0007	0.1065	-10.3
0.0142	0.0397	0.0157	0.0712	-10.3
0.0075	0.0345	0.036	0.0375	-10.3
-0.003	0.0315	0.0435	0.0067	-10.4
-0.0143	-0.0353	0.0052	-0.0135	-10.4
-0.0165	-0.0721	-0.0233	-0.0105	-10.5
-0.0165	-0.057	-0.0165	-0.0083	-10.6
-0.0113	-0.0405	0.0157	-0.0083	-10.6
-0.0083	-0.0533	0.0247	-0.0256	-10.7
-0.0075	-0.0585	0	-0.0278	-10.7
-0.0143	-0.0195	-0.0105	-0.0293	-10.8
-0.0488	0.0352	-0.0398	-0.0315	-10.8
-0.0548	0.0667	-0.0593	-0.0165	-10.9
-0.0263	0.0345	-0.0578	-0.0135	-11
-0.0068	0.0247	-0.0473	-0.0188	-11
0.018	0.0247	-0.024	-0.0181	-11.1
0.0345	0.0127	-0.0083	-0.0068	-11.2
0.0427	0.0007	0.012	-0.0023	-11.2
0.042	-0.0293	0.0165	-0.0113	-11.3
0.0285	-0.0488	0.0165	-0.0128	-11.3
0.018	-0.054	0.0127	0.0105	-11.4
0.0052	-0.0361	0.0082	0.036	-11.5
0.003	-0.03	0.0172	0.027	-11.6
0.0052	-0.0105	0.015	0.0142	-11.7
0.0037	0.024	0.018	0.0007	-11.8
-0.0053	0.0232	0.015	-0.0165	-11.9
-0.0068	0.012	0.0082	-0.015	-12
-0.006	0.0142	0.0082	-0.015	-12.1
-0.0128	0.018	0.0105	-0.0083	-12.2
-0.006	0.0165	0.0315	-0.0015	-12.3
-0.0015	0.006	0.0382	0.0015	-12.5
0.0015	-0.0225	0.0105	0.0097	-12.6
0.0015	-0.0256	-0.0068	0.015	-12.7
-0.0188	-0.0083	-0.0083	0.0045	-12.8
-0.0428	-0.012	0.006	-0.0046	-12.9
-0.045	-0.021	0.0247	-0.0015	-13.1
-0.0315	-0.0233	0.0202	-0.0083	-13.1
-0.0075	-0.0195	0.0052	-0.0083	-13.3
0.024	-0.012	-0.0285	-0.006	-13.4
0.0367	-0.0053	-0.0503	-0.0075	-13.5
0.0412	0.003	-0.0428	-0.0091	-13.6
0.0397	0.0135	-0.0338	-0.0158	-13.8
0.033	0.0142	-0.0158	-0.015	-13.8
0.0382	0.0097	-0.0008	-0.0113	-14
0.0487	0	0.012	-0.0165	-14
0.0502	-0.0083	0.021	-0.0188	-14.2
0.0202	-0.0023	0.0217	-0.0128	-14.3
-0.0285	0.0037	0.027	-0.0135	-14.4
-0.0683	0.0037	0.0382	-0.0105	-14.5
-0.0765	0.009	0.0457	-0.0068	-14.6
-0.0691	0.0067	0.024	0.0007	-14.7
-0.0555	0.0022	-0.0008	0.0052	-14.8
-0.0143	-0.0008	-0.024	0.0135	-14.9
0.0225	-0.0046	-0.0375	0.018	-15
0.0307	-0.0083	-0.0353	0.0165	-15.1
0.0172	-0.0098	-0.0383	0.0277	-15.3
-0.0008	-0.0091	-0.0338	0.0202	-15.3
-0.0091	-0.0091	-0.0323	0.0112	-15.4
-0.0053	-0.0083	-0.0203	0.0112	-15.6
0.0037	-0.006	0.0052	0.0142	-15.7
0.0142	-0.0038	0.018	0.0202	-15.8
0.021	-0.003	0.033	0.024	-15.9
0.0105	0.0007	0.0367	0.0195	-16
-0.0053	0	0.018	0.003	-16.2
-0.0128	-0.0038	-0.0008	-0.0046	-16.3
0.0037	-0.003	-0.0105	-0.0075	-16.4
0.0195	-0.003	-0.0008	-0.003	-16.5
0.0105	-0.0015	0.021	-0.0008	-16.7
0.0015	-0.003	0.0367	0.0045	-16.8
-0.012	-0.0038	0.0127	0.015	-16.9
-0.0188	0.003	-0.0105	0.0105	-17.1
-0.012	0.0045	-0.0135	0.0045	-17.2
-0.0046	0	-0.0256	0.0007	-17.3
0.0045	-0.0098	-0.0346	0.0007	-17.4
0.0105	-0.0128	-0.039	0	-17.6
0.0105	-0.006	-0.0338	-0.0008	-17.7
-0.0105	0.0045	-0.0308	0.0112	-17.8
-0.0218	0.0097	-0.024	0.0202	-18
0.0022	0.009	0.0045	0.0105	-18
0.0292	0.0067	0.024	-0.0091	-18.2
0.0367	-0.0023	0.027	-0.0135	-18.3
0.027	-0.0068	0.0225	-0.012	-18.5
0.0142	-0.0053	0.0202	-0.0143	-18.7
0.0097	-0.0008	0.012	-0.0158	-18.9
0.0135	0.0067	0.003	-0.0068	-19.1
0.0172	0.0142	0.0105	0.0165	-19.4
0.009	0.0187	0.0105	0.0255	-19.6
0.0052	0.0157	0.003	0.0165	-19.8
-0.0083	0.012	0.0105	-0.0015	-20
-0.0315	0.0105	0.0405	-0.0195	-20.3
-0.0458	0.009	0.0562	-0.0188	-20.5
-0.0436	0.009	0.0382	-0.0195	-20.7
-0.0195	0.0127	0.0292	-0.021	-21
0.0292	0.015	0.0382	-0.0083	-21.2
0.0667	0.018	0.0225	0.027	-21.4
0.0382	0.0195	-0.012	0.0465	-21.6
-0.0083	0.015	-0.0353	0.0247	-21.9
-0.0413	0.0112	-0.0465	0.006	-22.1
-0.0668	0.0045	-0.0346	0.0007	-22.3
-0.0653	0	-0.0225	-0.0113	-22.5
-0.0578	0.0015	-0.0158	-0.0158	-22.8
-0.0383	0.0015	-0.0091	-0.0173	-23
-0.0046	0.0015	-0.0068	-0.0128	-23.1
0.0255	0.0015	0.0075	-0.0098	-23.1
0.0345	-0.0008	0.0367	-0.0143	-23.2
0.024	-0.0023	0.063	-0.0165	-23.3
0.0127	-0.0046	0.0555	-0.0195	-23.4
-0.0008	-0.0053	0.0262	-0.0165	-23.4
-0.003	-0.0053	-0.0046	-0.0105	-23.5
0.0082	-0.0038	-0.0308	-0.0046	-23.6
0.0247	-0.0038	-0.033	-0.0038	-23.6
0.0315	-0.0068	-0.0218	0.003	-23.7
0.0232	-0.0046	-0.0128	0.0195	-23.8
0.0105	-0.0068	-0.0075	0.0247	-23.9
-0.0008	-0.0068	-0.0091	0.0135	-23.9
-0.003	-0.006	-0.0098	0.006	-24
-0.0098	-0.0083	-0.0158	0.0007	-24.1
-0.0143	-0.0083	-0.0218	-0.0083	-24.2
-0.0135	-0.0098	-0.012	-0.0083	-24.2
-0.0128	-0.0083	0.0007	-0.0068	-24.3
-0.012	-0.006	0.0082	-0.0105	-24.3
-0.0113	-0.0053	0.0142	-0.0165	-24.5
-0.012	-0.0068	0.018	-0.0181	-24.5
-0.0128	-0.0068	0.0142	-0.0165	-24.5
-0.006	-0.0083	0.0105	-0.0091	-24.4
-0.0015	-0.0105	0.0135	-0.003	-24.4
0.0052	-0.0098	0.0082	0.0022	-24.4
0.0135	-0.0105	0.0022	0.0187	-24.4
0.0127	-0.0098	0.0015	0.0195	-24.4
0.0195	-0.0083	-0.0008	0.0172	-24.4
0.018	-0.0091	0	0.0127	-24.4
0.0112	-0.0113	0	0.0082	-24.4
0.0045	-0.0105	-0.0046	0.0082	-24.4
-0.0015	-0.0113	0.0067	-0.0008	-24.4
0	-0.0128	0.0577	-0.0023	-24.3
-0.003	-0.012	0.0855	-0.0053	-24.3
-0.0068	-0.0105	0.0405	-0.0075	-24.3
-0.006	-0.0091	-0.0068	-0.003	-24.3
-0.006	-0.0113	-0.0458	-0.0053	-24.3
-0.0046	-0.0128	-0.0728	-0.0105	-24.3
-0.0008	-0.0128	-0.063	-0.0143	-24.3
0.0037	-0.0113	-0.0525	-0.0075	-24.3
0.0157	-0.0105	-0.0323	0.012	-24.2
0.0307	-0.0105	-0.012	0.0142	-24.1
0.0322	-0.0098	0.003	0.0037	-24
0.018	-0.0091	0.012	0.0015	-23.9
-0.0181	-0.0091	0.0052	0.0015	-23.8
-0.0361	-0.0083	0.0037	0.0045	-23.7
-0.0233	-0.0068	0.0007	0.003	-23.6
-0.0165	-0.0083	0.0127	-0.0038	-23.5
-0.0008	-0.006	0.027	-0.0008	-23.4
0.0195	-0.0053	0.027	-0.0068	-23.3
0.0195	-0.0008	0.0277	-0.0128	-23.2
0.0142	-0.0008	0.0165	-0.0143	-23
0.012	-0.0023	0.0067	-0.0105	-23
0.0277	0.0022	0.0037	-0.0075	-22.9
0.0352	0.0022	0.0067	-0.003	-22.7
0.0382	-0.0008	0.012	0.0105	-22.6
0.0315	-0.003	0.006	0.0075	-22.5
0.0022	-0.0053	0.0007	-0.0008	-22.5
-0.012	-0.0053	0.0045	0.0052	-22.3
-0.0083	-0.0038	0.0082	0.006	-22.2
0.0007	-0.0008	0.015	-0.0046	-22.2
0.0127	0.0007	0.0195	-0.0143	-22.2
0.009	0.0045	0.0037	-0.0008	-22.1
-0.0023	0.0067	-0.0091	0.0067	-22.1
-0.0068	0.0052	-0.0181	0	-22.1
-0.0105	0.0067	-0.0218	0.0037	-22.1
-0.0173	0.0075	-0.015	0.0082	-22
-0.0181	0.006	-0.006	0.0112	-22
-0.0158	0.0037	0.0322	0.006	-22
-0.0181	0.0037	0.0607	-0.0015	-21.9
-0.024	0.0045	0.0465	-0.0015	-21.9
-0.0143	0.0052	0.027	-0.003	-21.9
0.009	0.0082	-0.003	-0.003	-21.8
0.0105	0.009	-0.0195	-0.0008	-21.8
-0.0038	0.0075	-0.0015	0.0067	-21.7
-0.0233	0.0045	0.0075	0.0082	-21.7
-0.0308	0.003	-0.0105	0.0007	-21.7
-0.024	0.003	-0.0233	0	-21.6
-0.027	0.003	-0.0233	0.003	-21.6
-0.0203	0.0037	-0.021	0.0045	-21.6
-0.0105	0.0052	-0.027	0.0082	-21.6
-0.0068	0.006	-0.0315	0.0052	-21.6
-0.0015	0.0052	-0.0278	-0.0023	-21.6
0.003	0.0052	-0.0248	-0.0046	-21.6
0.0112	0.0052	-0.0098	-0.0053	-21.5
0.0105	0.0052	0.003	0.0007	-21.5
0.0075	0.0037	0.0247	0.0052	-21.5
0.0075	0.0037	0.0577	0.0022	-21.5
0.0067	0.0045	0.0487	0.0022	-21.5
0.009	0.0052	0.006	0.0007	-21.4
0.0127	0.0052	-0.0113	0.0045	-21.4
0.0195	0.0067	-0.0225	0.0045	-21.4
0.0225	0.0082	-0.024	0.0052	-21.4
0.0277	0.0097	-0.0091	0.012	-21.4
0.027	0.0067	-0.0091	0.0082	-21.4
0.018	0.0045	-0.0113	0.0045	-21.3
0.0127	0.0052	-0.015	0.0067	-21.3
0.009	0.0052	-0.0165	0.0067	-21.3
0.0015	0.0052	-0.0068	0.0045	-21.3
-0.0068	0.0022	-0.0023	-0.003	-21.3
-0.0091	-0.0008	0.0007	-0.0046	-21.3
-0.0135	0.0007	0.012	0.0015	-21.3
-0.0143	0.0007	0.0127	0.0022	-21.3
-0.0165	0.0007	0.006	0.0015	-21.3
-0.0203	0.0007	0.0045	-0.0008	-21.3
-0.015	-0.0008	0.0015	-0.0008	-21.3
-0.0098	-0.0008	0.0097	0.003	-21.3
-0.012	-0.0015	0.0427	0.0015	-21.3
-0.012	-0.0015	0.072	0.0007	-21.3
-0.0015	-0.0046	0.0607	-0.0038	-21.4
0.003	-0.0053	0.024	-0.006	-21.4
-0.0008	-0.0038	-0.0113	-0.0075	-21.4
-0.0008	-0.003	-0.048	-0.0128	-21.4
-0.003	-0.0046	-0.0578	-0.0105	-21.4
-0.0015	-0.0046	-0.0555	-0.0053	-21.4
-0.0015	-0.003	-0.0405	-0.0068	-21.4
-0.0038	-0.0038	-0.0195	-0.006	-21.4
0.0022	-0.003	-0.0158	-0.0038	-21.5
0.009	-0.0008	-0.0053	-0.0053	-21.5
0.0075	0.0007	0	0.0007	-21.5
0.009	0.0007	0.0022	0.009	-21.5
0.0067	0.003	0.0067	0.0105	-21.5
0.003	0.0037	0.012	0.003	-21.5
0.0045	0.003	0.021	0	-21.5
0.0037	0.0045	0.033	0.0015	-21.5
-0.0008	0.0022	0.036	0.0015	-21.5
-0.0158	0.0022	0.0217	-0.0008	-21.5
-0.0218	0.0015	0.021	-0.0053	-21.5
-0.0098	-0.0008	0.0307	-0.0053	-21.5
-0.0015	0.0007	0.0202	-0.0046	-21.5
0.0075	0.0007	-0.0091	-0.0008	-21.5
0.018	0.0015	-0.0285	-0.0023	-21.5
0.0255	0.0015	-0.0405	-0.0015	-21.5
0.0292	0.0007	-0.0488	0.0015	-21.5
0.0277	0.003	-0.0458	0.0007	-21.5
0.0292	0.0007	-0.0323	0.0052	-21.5
0.0285	-0.0023	-0.0143	0.0007	-21.5
0.0142	-0.003	0.0015	-0.0038	-21.5
-0.006	-0.0046	0.0187	-0.0053	-21.5
-0.03	-0.0038	0.0427	-0.0083	-21.5
-0.0375	-0.0053	0.0622	0.0007	-21.5
-0.0293	-0.0046	0.054	-0.0008	-21.5
-0.0248	-0.003	0.0517	-0.0075	-21.5
-0.0181	-0.003	0.0487	-0.0038	-21.5
-0.0098	-0.003	0.012	-0.0053	-21.5
0	-0.003	-0.0105	0.0082	-21.5
0.0135	-0.0015	-0.0218	0.0217	-21.5
0.024	-0.0023	-0.03	0.018	-21.6
0.0262	-0.0053	-0.033	0.0097	-21.6
0.0157	-0.0098	-0.0375	-0.0008	-21.6
0	-0.0091	-0.027	-0.0053	-21.6
-0.0105	-0.0083	-0.0181	-0.0053	-21.6
-0.0105	-0.006	-0.0053	-0.0046	-21.6
-0.0083	-0.0046	0.003	-0.0015	-21.6
-0.0091	-0.0053	0.0045	0.0007	-21.6
-0.0091	-0.0046	0.024	-0.0008	-21.6
-0.0098	-0.0046	0.0465	0.0007	-21.6
-0.0075	-0.003	0.0487	0.0022	-21.6
-0.003	-0.0023	0.0427	0.003	-21.6
0.0007	-0.0015	0.0292	-0.0008	-21.7
0	-0.0008	-0.0158	-0.0053	-21.7
-0.0008	-0.0008	-0.0398	-0.0091	-21.7
0.0007	-0.0008	-0.0518	-0.0068	-21.7
-0.0008	0	-0.0555	0.0037	-21.7
0.0015	-0.0008	-0.0405	0.0075	-21.7
