File Name: 6Npie.log
Channel 1: 'RF', 15480 values, engineering units: mV, no filters.
Channel 2: 'BF', 15480 values, engineering units: mV, no filters.
Channel 3: 'VM', 15480 values, engineering units: mV, no filters.
Channel 4: 'ST', 15480 values, engineering units: mV, no filters.
Channel 5: 'FX', 774 values, engineering units: deg, no filters, extrapolated from 50 to 1000 samples per second.

-0.0008	-0.0023	-0.0008	0.003	-13.5
-0.0008	-0.0023	-0.0046	0.0037	-13.5
0.0007	-0.0015	-0.006	0.003	-13.5
0.0015	-0.0008	-0.006	-0.0008	-13.5
0.0015	0.0097	-0.006	-0.0053	-13.5
-0.0023	0.0157	-0.0023	-0.0053	-13.5
-0.0038	0.009	-0.0046	0	-13.5
-0.0008	-0.0008	-0.0053	-0.0023	-13.5
-0.0015	-0.0038	-0.0015	-0.0083	-13.5
-0.003	-0.0068	0.0022	-0.006	-13.5
-0.0008	-0.003	0.0037	-0.0038	-13.5
0.0007	-0.0008	0.0067	-0.0053	-13.5
0	0.0015	0.006	-0.0053	-13.5
0.0007	0.003	0.003	-0.0046	-13.5
0.003	0.0015	0.003	-0.0091	-13.5
0.0082	0.003	0.003	-0.0083	-13.5
0.0097	0.0007	0.0045	-0.0075	-13.5
0.0022	0.0007	0.003	-0.0098	-13.5
-0.0053	-0.0008	0.0022	-0.0105	-13.5
-0.0038	-0.003	0.0007	-0.0091	-13.5
-0.0023	-0.0023	-0.003	0.003	-13.5
0.0015	0.0007	0.0007	0.009	-13.5
0.0045	0.0015	0.003	0.0045	-13.5
0.003	-0.0008	0.0045	0.0067	-13.5
0.0052	0.003	0.0045	0.0165	-13.5
0.0045	0.0015	0.0037	0.0165	-13.5
0.0007	-0.0015	0.0045	0.0045	-13.5
0.0007	0.0007	0.003	-0.0008	-13.5
-0.0015	0	0.0007	-0.0008	-13.5
-0.0008	0	-0.0008	-0.0015	-13.5
-0.0008	0	0.0015	-0.0008	-13.5
0.0007	-0.0008	0.003	-0.003	-13.5
0.0022	0.0007	0.0007	-0.0038	-13.5
0.0022	-0.0008	0	-0.003	-13.5
0.003	0.0015	0.0015	0	-13.5
0	0.003	0.0007	0	-13.5
-0.0008	0.003	0	-0.0015	-13.5
-0.0008	0.003	0.0015	-0.0008	-13.5
-0.0053	0.0007	0.0007	0.0015	-13.5
-0.0046	0.0007	0.0007	0.0112	-13.5
-0.0046	-0.0091	-0.0008	0.0045	-13.5
-0.0046	-0.0263	-0.0008	-0.0105	-13.5
-0.0053	-0.0195	-0.0008	-0.0046	-13.5
-0.006	-0.0046	-0.0008	-0.0053	-13.5
-0.006	-0.0053	0.0007	-0.0068	-13.5
-0.0053	-0.0053	0.0007	-0.0023	-13.5
-0.0008	-0.0046	-0.0015	-0.003	-13.5
0.0007	-0.0083	-0.0008	-0.003	-13.5
0.0007	-0.006	0.0007	-0.0023	-13.5
0	-0.0053	0.003	0.003	-13.5
0	-0.0053	0.0067	0.0067	-13.5
0.0015	-0.0015	0.0045	0.0067	-13.5
0.0015	-0.0008	0.0037	0.003	-13.5
0.0015	-0.0015	0.0015	0.0015	-13.5
0.0022	0.0007	0.0015	0.006	-13.5
0.0022	0.0037	0.0022	0.0052	-13.5
0.0007	0.003	0.0015	0.0045	-13.5
-0.0023	-0.0008	0	0.0015	-13.5
0	0.0007	-0.003	0.0007	-13.5
0.003	0.0067	-0.0083	-0.0015	-13.5
0.0022	0.0067	-0.0083	-0.0015	-13.5
0.0007	0.0007	-0.003	0	-13.5
0.0015	-0.0015	0.0015	-0.0008	-13.5
0.0015	-0.0015	0.0052	0.0015	-13.5
-0.003	-0.0015	0.0037	0.006	-13.5
-0.0091	-0.003	0.0052	0.0045	-13.5
-0.0135	-0.0068	0.0052	-0.0068	-13.5
-0.0105	-0.0068	0.0007	-0.0143	-13.5
-0.003	-0.0008	0.0007	-0.0068	-13.5
0	-0.0023	0	0.0015	-13.5
0.0007	-0.003	0.0007	0.0007	-13.4
0.0015	-0.003	0.0007	0.0045	-13.4
0.0007	0	-0.0008	0.0037	-13.4
0.0007	0.0015	-0.0008	0.0007	-13.4
0.0015	0.0007	-0.0015	0.0022	-13.4
0.003	0.0015	0.003	0.0015	-13.4
0.0045	0.003	0.0052	0	-13.4
0.0045	0.003	0.0015	-0.0023	-13.4
0.0067	0.003	-0.0046	-0.0015	-13.4
0.0075	0.003	-0.0083	0.0015	-13.4
0.0067	0.0007	-0.0008	0.0052	-13.4
0.006	-0.0015	0.0067	0.0045	-13.4
0.0037	0.0015	0.0142	0.0015	-13.4
0.0022	0.0007	0.0195	0.003	-13.4
-0.0008	0.0015	0.0165	0.0015	-13.4
0	0.0015	0.012	0.003	-13.4
0.003	-0.0015	0.0067	0.003	-13.4
0.0015	-0.003	0.0045	0.0007	-13.4
0.0015	-0.003	0.0067	-0.0023	-13.4
-0.0015	-0.0008	0.0082	-0.0015	-13.4
-0.0046	-0.0008	0.0052	-0.0008	-13.4
-0.0038	-0.0008	-0.003	0.0007	-13.4
0	0.0007	-0.0083	0.003	-13.4
0.0015	0	-0.0113	0.0045	-13.4
-0.0008	-0.0046	-0.0091	0.003	-13.4
-0.0053	-0.0075	-0.0053	0.006	-13.4
-0.006	-0.0083	-0.0068	0.0105	-13.4
0	-0.0105	-0.0046	0.0105	-13.4
0.0045	-0.006	-0.0015	0.0157	-13.4
0.0022	-0.003	-0.003	0.012	-13.4
0.0007	-0.003	-0.0038	0.0052	-13.5
0.003	-0.0008	-0.003	0.0037	-13.5
0.0067	0.003	0.0015	-0.0008	-13.5
0.0052	0.0052	0.0082	0	-13.5
-0.0015	0.0022	0.0075	-0.0008	-13.5
-0.003	-0.0091	0.0067	-0.0053	-13.5
-0.0015	-0.0181	0.0067	-0.003	-13.5
0.0015	-0.0053	0.0015	-0.0046	-13.5
0.003	0.0075	0.0015	-0.006	-13.5
0.0007	0.0037	0.0015	-0.0075	-13.5
0	0.009	0.0007	-0.0105	-13.5
0.0007	0.0105	-0.0015	-0.0091	-13.5
0.0015	0.012	-0.0008	-0.0075	-13.5
0.0045	0.009	-0.0023	-0.0091	-13.5
0.0022	0.0045	-0.0046	-0.0091	-13.5
0.0007	0.0052	-0.0023	-0.0105	-13.5
0.0015	-0.0023	-0.0015	-0.0091	-13.5
-0.0008	-0.003	0.0007	-0.0068	-13.5
-0.003	-0.0023	0.0022	-0.003	-13.5
-0.003	-0.0038	0.006	0.0007	-13.5
-0.0046	-0.003	0.012	0.006	-13.5
-0.0068	-0.0046	0.0127	0.0082	-13.5
-0.0046	-0.0046	0.0082	0.0082	-13.5
0	-0.0015	0.0015	0.0067	-13.5
0.0007	0.003	-0.0008	0.0007	-13.5
-0.0046	0.006	0.0007	0	-13.5
-0.0053	0.006	-0.0015	-0.0008	-13.5
-0.0008	0.0075	-0.0046	-0.0015	-13.5
0.0015	0.009	-0.0046	-0.0008	-13.5
0.003	0.0052	-0.003	-0.003	-13.5
0.0015	-0.0181	-0.0015	-0.006	-13.5
0.0015	-0.0495	0.003	-0.0068	-13.5
0.0037	-0.0315	0.0045	-0.0046	-13.5
0.003	0.0007	0.0052	-0.0053	-13.5
0.0015	-0.0008	0.0067	-0.0008	-13.5
0	0.0045	0.0037	-0.0008	-13.5
-0.0015	0.0052	0.0015	-0.003	-13.5
0.0015	0.0045	0.0007	-0.003	-13.5
0.0022	0.0067	0.0007	-0.006	-13.5
0.003	0.0045	-0.0008	-0.0038	-13.5
0.0015	0.0075	-0.0023	-0.0053	-13.5
-0.0008	0.003	-0.0008	-0.0091	-13.5
0.0015	0.0015	-0.0015	-0.0046	-13.5
0.003	0.0007	0	-0.0008	-13.5
0.0022	0.0022	0.0037	0.003	-13.5
0.0015	0.0045	0.003	0.0082	-13.5
-0.0008	0.0007	0.003	0.0157	-13.5
-0.0015	0.0015	0.003	0.0127	-13.5
-0.003	0.0015	0.0045	0.0015	-13.5
-0.0038	-0.0008	0.0022	0.0007	-13.5
-0.003	-0.0023	0.0007	-0.0015	-13.4
-0.0046	-0.0046	0.0007	-0.003	-13.4
-0.0053	-0.0053	-0.0015	-0.0008	-13.4
-0.003	-0.0015	0	0.0007	-13.4
-0.0008	-0.0008	-0.0023	0	-13.4
-0.006	0.0007	-0.003	-0.0015	-13.4
-0.0068	0.0022	-0.0008	0.006	-13.4
-0.0046	0.003	-0.0008	0.0082	-13.4
-0.0015	0.003	0.0015	0.0022	-13.4
0.003	0.0045	0.0022	0.0007	-13.4
0.0045	0.0015	-0.0008	-0.003	-13.4
0.0022	-0.0105	-0.003	-0.0053	-13.4
0.0022	-0.0225	-0.003	-0.0068	-13.4
0.003	-0.0165	-0.0015	0.0015	-13.4
0.0022	-0.003	0.0037	0.0082	-13.4
-0.0008	-0.0015	0.0075	0.0052	-13.4
-0.0015	-0.0053	0.0082	0.0015	-13.4
-0.0008	-0.006	0.0045	-0.0105	-13.4
-0.0023	-0.0015	-0.0023	-0.0068	-13.4
-0.0008	-0.0038	-0.0091	0.0015	-13.4
0.0015	-0.006	-0.0083	-0.0008	-13.4
0.003	-0.0046	0.0007	0.003	-13.4
0.0022	-0.006	0.0105	-0.0015	-13.4
0.0045	-0.0046	0.0142	-0.0015	-13.4
0.003	-0.0015	0.012	-0.0015	-13.4
-0.0046	0.0007	0.0075	-0.0075	-13.4
-0.006	0.0007	0.006	-0.003	-13.4
-0.003	0.0015	0.0037	-0.0023	-13.4
-0.0008	0.003	0.0045	0.0007	-13.4
-0.0015	0.0037	0.0007	0.003	-13.4
-0.0053	0.0037	-0.0008	0.0045	-13.4
-0.0038	0.0007	-0.0015	0.003	-13.4
-0.0015	0.0015	-0.0068	-0.0023	-13.4
0.0015	-0.0015	-0.0053	-0.0008	-13.4
0.0015	-0.003	-0.006	0.0007	-13.4
0.0015	-0.0038	-0.0046	0.0007	-13.4
-0.0015	-0.0046	-0.0023	0.0007	-13.4
-0.0053	-0.0015	-0.0015	0	-13.4
-0.0046	-0.006	0.0007	0.0015	-13.4
-0.0023	-0.0046	0.0015	0.0052	-13.4
0	-0.0008	0.0007	0.006	-13.4
0.003	0.0007	-0.0015	0.0052	-13.4
0.006	0.0022	-0.0015	0.006	-13.4
0.0075	0	0.0007	0.0075	-13.4
0.0105	0.0007	0.0022	0.006	-13.4
0.0105	0.003	0.003	0.0015	-13.4
0.0082	0.0052	0.0015	0.0007	-13.4
0.0052	0.0052	0.0007	0	-13.4
0.0022	0.0045	0.003	-0.0015	-13.4
-0.0008	0.003	0.006	0.0015	-13.4
-0.003	-0.0008	0.009	0.0015	-13.4
-0.003	-0.0008	0.0105	0.0037	-13.4
-0.0046	0	0.0105	0.0067	-13.4
-0.0008	0.0007	0.0082	0.006	-13.4
0.0007	0	0.0052	0.003	-13.4
0.0007	-0.0023	0.0067	-0.0008	-13.4
0.0015	-0.003	0.006	0.0007	-13.4
0.0007	-0.003	0.0015	-0.0038	-13.4
0.0015	-0.0068	-0.0038	-0.0015	-13.4
0.0007	-0.006	-0.0053	0.0075	-13.4
0.0007	-0.0015	-0.003	0.0045	-13.4
-0.0008	0	-0.003	0.0007	-13.4
0.0007	0.0015	0.0007	-0.0008	-13.4
0.0045	0.0015	0.0015	-0.0008	-13.4
0.0037	0.0015	0.003	-0.0008	-13.4
-0.0015	-0.0008	0.0052	-0.0068	-13.4
-0.0046	-0.0038	0.0022	-0.0083	-13.4
-0.003	-0.003	0.0022	-0.0083	-13.4
-0.0015	-0.0015	0.0007	-0.0053	-13.4
-0.0015	-0.0023	0.0007	-0.0015	-13.4
-0.0015	-0.0023	0	-0.0053	-13.4
0.0007	-0.0015	-0.003	-0.0053	-13.4
0.0007	-0.003	0	-0.006	-13.4
-0.0008	-0.003	0	-0.0075	-13.4
-0.0008	-0.0046	-0.003	-0.0046	-13.4
0	-0.0053	-0.0023	-0.003	-13.4
0.0015	-0.0068	-0.0038	0.0007	-13.4
0	-0.0068	-0.003	0.0052	-13.4
-0.003	-0.003	0	0.0082	-13.4
-0.003	-0.0015	0.0022	0.009	-13.4
-0.0008	-0.0015	0.0045	0.0067	-13.4
0.0007	-0.003	0.0022	0.003	-13.4
-0.0008	-0.0038	-0.0008	-0.0015	-13.4
-0.0046	-0.0015	0.0007	-0.0008	-13.4
-0.0075	0.0007	0.0015	0.003	-13.4
-0.0083	0.0015	0.0007	0.0037	-13.4
-0.0038	-0.0023	-0.0008	0.0052	-13.4
0.0007	-0.0015	-0.0008	0.0067	-13.4
0.0052	-0.0015	0.0015	0.006	-13.4
0.0067	-0.0015	0.003	0.0075	-13.4
0.003	0.0007	0.0052	0.0037	-13.4
0.0015	0.0015	0.0037	0.0015	-13.4
0.0015	0.003	0.003	0.0007	-13.4
0.0022	0.003	0.0015	0.0007	-13.4
0.0007	0.0007	0.0015	0	-13.4
0	-0.0015	0.0045	-0.0008	-13.4
-0.0008	-0.0015	0.0045	0.003	-13.4
-0.0015	0.0015	0.003	0.0007	-13.4
-0.0023	0.0015	0.003	-0.0046	-13.4
0.0015	0.0015	0.003	-0.0053	-13.4
0.0045	0.0037	0.0015	-0.0046	-13.4
0.0075	0.0015	-0.0053	-0.0015	-13.4
0.0105	0.0015	-0.0038	-0.0023	-13.4
0.006	0.0037	0.0015	-0.0008	-13.4
0.003	0.0037	0.0052	-0.0015	-13.4
0.0015	0.003	0.0067	-0.003	-13.4
0.0015	0.0022	0.006	-0.0023	-13.4
0.0015	0.0015	0.0052	-0.003	-13.4
0.0015	0.0045	0.0045	-0.003	-13.4
0.0015	0.0082	0.006	-0.0023	-13.4
0.0015	0.0105	0.006	0	-13.4
0.0022	0.0082	0.006	-0.0023	-13.4
-0.0008	0.0082	0.0052	-0.0023	-13.4
-0.0008	0.0067	-0.0046	-0.0046	-13.4
0	0.0015	-0.015	-0.0091	-13.4
0	-0.021	-0.0195	-0.0091	-13.3
-0.0023	-0.0495	-0.0098	-0.0075	-13.3
-0.0091	-0.0293	0.0022	-0.0046	-13.3
-0.0105	-0.0008	0.0127	0.0022	-13.3
-0.006	-0.0038	0.018	0.0127	-13.3
-0.0046	-0.0008	0.012	0.0142	-13.3
-0.0053	0.0007	0.006	0.006	-13.3
-0.003	-0.0023	-0.0008	0.0037	-13.3
-0.003	-0.0008	-0.0023	0.0037	-13.3
-0.003	-0.0015	0.003	0.0022	-13.3
-0.0015	-0.0008	0.0045	0.0007	-13.3
-0.0015	-0.0015	0.003	-0.0008	-13.3
0.0007	-0.0015	-0.003	-0.003	-13.3
0	-0.003	-0.0053	-0.0046	-13.3
0.0007	-0.0015	-0.0046	-0.0015	-13.3
0.003	-0.0015	-0.003	-0.0023	-13.3
0.0007	-0.0023	0.0015	-0.0015	-13.3
0	0.0007	0.003	0.0015	-13.3
-0.0015	-0.0008	0.003	0.0015	-13.3
0	-0.0015	0.0007	-0.0008	-13.3
0.0015	-0.003	-0.0008	-0.0008	-13.3
0	-0.0091	0.0015	-0.003	-13.3
-0.003	-0.0091	0.0022	-0.0143	-13.3
-0.0046	-0.006	0.0007	-0.0188	-13.3
-0.003	-0.0068	-0.0015	-0.0075	-13.3
-0.0008	-0.0053	-0.003	-0.0038	-13.3
0.0007	-0.0015	-0.0008	-0.0023	-13.3
0.0022	0.0007	-0.0008	0.0015	-13.3
0.006	0.003	-0.0008	0.0015	-13.3
0.006	0.0067	-0.0008	0.006	-13.3
0.0097	0.0082	0.0015	0.0015	-13.3
0.012	0.0045	0.0022	-0.0023	-13.3
0.0067	0.0052	0.003	-0.0053	-13.3
0	0.0052	0.0052	-0.0068	-13.3
-0.0068	0.0045	0.0052	-0.0038	-13.3
-0.0083	0.0037	0.0082	-0.0046	-13.3
-0.0091	-0.0008	0.0052	-0.003	-13.3
-0.0098	0.003	0	-0.0015	-13.3
-0.0068	0.0052	-0.0015	-0.003	-13.3
-0.0015	0.0045	-0.0046	0.0015	-13.3
0.0015	0.0015	-0.0023	0.0112	-13.3
0.0052	-0.0113	-0.003	0.0165	-13.3
0.0045	-0.0181	-0.0053	0.009	-13.3
0.0007	-0.0046	-0.003	0.0067	-13.3
0.0007	0.0007	-0.003	0.0052	-13.3
-0.003	-0.0015	-0.0008	-0.0015	-13.3
-0.0053	0.0045	-0.0015	0.0007	-13.3
-0.0053	0.0037	-0.0015	-0.0015	-13.3
-0.0046	0.0045	0.003	-0.0015	-13.3
-0.003	0.006	0.003	-0.003	-13.3
-0.0023	0.0105	0.0045	-0.0083	-13.3
-0.0008	0.0097	0.0067	0.0007	-13.3
0.0007	0.0015	0.0067	0.0067	-13.3
0.0045	0	0.0067	0.0127	-13.3
0.0105	-0.0015	-0.0008	0.0105	-13.3
0.0127	-0.0053	-0.0053	0.0015	-13.3
0.0165	-0.0135	-0.0046	0.0052	-13.3
0.0112	-0.0135	-0.0038	0.0067	-13.3
-0.0015	-0.003	0.0007	0.0045	-13.3
-0.0068	-0.0038	0.0037	0.0015	-13.3
-0.0083	-0.0015	0.0015	0.0015	-13.3
-0.0068	-0.0023	-0.0008	0.003	-13.3
-0.0015	-0.006	-0.0008	0.0022	-13.3
0.003	-0.003	0.0045	0.0007	-13.3
0.0052	0.0007	0.0045	-0.0008	-13.3
0.0045	0.0052	0.0052	0.0007	-13.3
0.003	0.003	0.0082	-0.0008	-13.3
0.003	-0.0046	0.0037	-0.003	-13.3
0.0022	-0.0053	0.0037	-0.0053	-13.3
0.0015	-0.0068	0.0045	-0.003	-13.3
-0.0008	-0.0046	0.0015	0.0015	-13.3
0	-0.0015	0.0045	0.0052	-13.3
0.0007	0.0022	0.0052	0.0052	-13.3
-0.0008	0.0045	0.0075	0.0067	-13.3
-0.0008	0.0052	0.009	0.0037	-13.3
0	0.003	0.0037	0.0007	-13.3
0.0007	0.0007	0.003	0.0007	-13.3
0.0015	0.0015	0.0022	-0.0008	-13.3
-0.0008	-0.0015	0.0015	0.0015	-13.3
-0.0038	-0.0046	0.003	0	-13.3
-0.0068	-0.0046	-0.0015	-0.0008	-13.3
-0.0023	-0.0068	-0.0023	-0.003	-13.3
-0.0015	-0.0083	-0.003	-0.003	-13.3
-0.0023	-0.0068	-0.0075	-0.0008	-13.3
-0.0015	-0.0053	-0.0083	-0.0023	-13.3
-0.0008	-0.0075	-0.0075	0	-13.3
0	-0.0053	-0.0068	0.0007	-13.3
-0.0008	-0.003	-0.003	0.0015	-13.3
0.0015	-0.0023	-0.0015	0.0007	-13.3
0.0037	-0.0015	-0.003	0.0007	-13.3
0.0045	-0.0008	-0.0008	-0.0015	-13.3
0.0045	0.0045	0	-0.0046	-13.3
0.0015	0.0022	0	-0.0038	-13.3
-0.0023	-0.0008	0.0067	-0.003	-13.3
-0.006	-0.0046	0.0105	-0.0008	-13.3
-0.003	-0.0053	0.0127	-0.0008	-13.3
0	-0.0046	0.012	0.0007	-13.3
-0.0023	-0.0015	0.0082	0.0007	-13.3
-0.0098	0.0015	0.0052	-0.0015	-13.3
-0.0143	0.003	0.0022	-0.0015	-13.3
-0.0091	0.0037	0.0007	-0.0015	-13.3
-0.0015	0.0015	0.003	0.0022	-13.3
0.003	0.0007	0.003	0.0052	-13.3
0.0045	0.0007	-0.003	0.0052	-13.3
0.0015	-0.003	-0.0098	0.0037	-13.3
0	-0.0075	-0.0098	0.0067	-13.3
-0.0015	-0.0053	-0.006	0.0045	-13.3
-0.0023	0	-0.0015	-0.0023	-13.3
-0.0023	0	0.0082	-0.0158	-13.3
0.003	-0.0015	0.0157	-0.0203	-13.3
0.0082	0	0.0165	-0.0053	-13.3
0.0097	0.0045	0.0157	0.0045	-13.3
0.0097	0.0037	0.0105	0.0157	-13.3
0.009	0.0007	0.009	0.0247	-13.3
0.0067	-0.0015	0.009	0.0097	-13.3
0.0045	-0.003	0.0082	0	-13.3
0.003	-0.0015	0.0067	-0.0015	-13.3
0.003	-0.0008	0.003	0.0007	-13.3
0.0037	-0.0015	-0.0015	0.0015	-13.3
0.0007	-0.003	-0.0068	-0.0015	-13.3
-0.0008	-0.0053	-0.0015	-0.003	-13.3
0	-0.0053	0.0015	-0.0008	-13.3
-0.0038	-0.0015	0	0	-13.3
-0.0083	-0.0015	-0.0015	-0.0008	-13.3
-0.0091	-0.0015	-0.0023	-0.003	-13.3
-0.0068	0.0052	-0.0008	-0.0015	-13.3
-0.0008	0.0105	-0.0015	0.0022	-13.3
0.0015	0.0105	-0.003	0.0052	-13.3
0.0045	0.0112	-0.003	0.0075	-13.3
0.0045	0.0165	-0.0023	0.009	-13.3
0.003	0.015	-0.0023	0.0067	-13.3
0.003	-0.0105	-0.0053	0.0045	-13.3
0.0015	-0.0465	-0.0068	0.0067	-13.3
0	-0.0368	-0.0053	0.0015	-13.3
0.0015	-0.0015	-0.0046	-0.0008	-13.3
0.0082	-0.0015	-0.0015	0.0022	-13.3
0.0075	0.0007	0.0015	0.0015	-13.3
0.0067	0	0.0045	-0.0008	-13.3
0.0082	-0.006	0.0075	-0.0023	-13.3
0.0022	-0.0008	0.0052	-0.0046	-13.3
-0.0008	-0.0015	0.0007	-0.0091	-13.3
-0.0015	-0.003	0.0015	-0.0091	-13.3
-0.0046	-0.003	0.003	-0.0075	-13.3
-0.006	-0.0008	0.0052	-0.0053	-13.3
-0.0038	-0.0015	0.0037	-0.0046	-13.3
-0.0015	0	0.0015	-0.0053	-13.3
-0.003	0.0007	0.003	-0.003	-13.3
-0.003	-0.0008	0.0007	-0.0023	-13.3
-0.003	0.003	0.0037	-0.0046	-13.3
-0.0023	0.0015	0.0022	-0.0091	-13.3
-0.0015	0.0015	0.0007	-0.0135	-13.3
-0.0008	0.003	0.0015	-0.0091	-13.3
-0.0023	0.003	0	-0.0023	-13.3
-0.003	0.0037	0.0007	0.0052	-13.3
-0.0038	0.0037	-0.003	0.012	-13.3
-0.0046	0.0045	-0.0015	0.0105	-13.3
0.0015	0.0045	-0.0015	0.0015	-13.3
0.009	0.0052	-0.0038	0.0022	-13.3
0.0112	0.0045	0.0007	0.003	-13.3
0.0052	0.003	0.0007	0.0007	-13.3
0.0007	-0.0023	0.0037	0.0015	-13.3
-0.0015	-0.0046	0.0045	-0.0008	-13.3
-0.0015	-0.0023	0.0015	-0.0008	-13.3
-0.0023	0	0.0037	-0.0046	-13.3
-0.0008	0.0037	0.0045	-0.0038	-13.3
-0.0008	0.0067	0.0052	-0.0046	-13.3
-0.003	0.003	0.0037	-0.0068	-13.3
-0.0008	-0.003	0.0052	-0.0068	-13.3
0.0022	-0.0053	0.0067	-0.0083	-13.3
0.0037	-0.0068	0.0007	-0.006	-13.3
0	-0.0046	-0.0008	-0.0015	-13.3
-0.0053	-0.003	-0.003	0.006	-13.3
-0.0075	-0.0008	-0.0053	0.0067	-13.3
-0.0105	-0.0015	-0.003	0.0045	-13.3
-0.0091	-0.0038	-0.0053	0	-13.3
-0.0068	-0.0023	-0.0053	-0.0008	-13.3
-0.0068	-0.0046	-0.003	-0.0008	-13.3
-0.0053	-0.0015	-0.0023	0.0007	-13.3
-0.0015	0.0022	-0.0023	0.0015	-13.3
0.0045	0.0037	-0.0046	-0.0015	-13.3
0.012	0.0045	-0.003	0.0007	-13.3
0.0142	0.003	0.0007	0.0045	-13.3
0.0105	0.0007	0.0015	0.0037	-13.3
0.0082	-0.0046	0.0052	0.0045	-13.3
0.0015	-0.0053	0.009	0.0022	-13.3
-0.006	-0.0053	0.0067	0.0015	-13.3
-0.0105	-0.0075	0.0045	0.003	-13.3
-0.0128	-0.0046	0.0022	0.0015	-13.3
-0.0091	-0.003	0.0015	0.0022	-13.3
-0.0046	-0.0038	0.006	0.0015	-13.3
-0.006	-0.0053	0.003	0.0015	-13.3
-0.0015	-0.0083	-0.0075	0.0045	-13.3
0.0037	-0.006	-0.0135	0.0067	-13.3
0.0052	-0.0046	-0.0083	0.0037	-13.3
0.0052	-0.003	0.0007	-0.0015	-13.3
0.0022	-0.0015	0.0075	-0.003	-13.3
0	-0.0015	0.0105	0.003	-13.3
0.0007	-0.003	0.0082	0	-13.3
0.0007	-0.0046	0.006	-0.003	-13.3
0.0007	-0.0023	0.003	-0.0008	-13.3
0.0015	-0.003	0.0037	0.0007	-13.3
0.0015	-0.0053	0.0052	0.0015	-13.3
0	-0.0046	0.0007	0.0015	-13.3
0.0015	-0.0023	-0.0046	0.0045	-13.3
0.003	-0.003	-0.0053	0.0007	-13.3
0.0045	-0.0008	-0.0053	0.003	-13.3
0.0082	0.0007	-0.0015	0.0037	-13.3
0.0105	-0.0015	0.0052	0.0015	-13.3
0.0045	-0.0008	0.0045	0.0015	-13.3
0.0007	0.0007	0.003	-0.0015	-13.3
-0.0015	-0.0015	-0.0008	-0.003	-13.3
-0.0053	-0.0038	-0.006	-0.0083	-13.3
-0.0091	-0.0068	-0.0053	-0.0083	-13.3
-0.0113	-0.0083	-0.0083	-0.0083	-13.3
-0.0091	-0.003	-0.0068	-0.0083	-13.3
-0.0053	-0.0008	-0.003	-0.0046	-13.4
-0.0053	0.0007	-0.0008	-0.0015	-13.4
-0.003	0.0045	0.0007	-0.0015	-13.4
0.0007	0.0067	0.0045	-0.0023	-13.4
0.0022	0.006	0.0082	0.0015	-13.4
0.0022	0.0052	0.0075	0.0037	-13.4
0.0015	0.0015	0.0067	0.0052	-13.4
0.003	-0.003	0.0052	0.0067	-13.4
0.0045	-0.0015	0.0045	0.0045	-13.4
0.003	0.0022	0.0052	0.0022	-13.4
0.003	0.0022	0.0022	0.0015	-13.4
0.0052	0.0045	0.0022	-0.0008	-13.4
0.0037	0.0052	0.0052	-0.003	-13.4
0.0022	0.003	0.003	0.0022	-13.4
0.0022	0.0045	0.0015	0.003	-13.4
-0.0023	0.006	0.0015	-0.0008	-13.4
-0.0083	0.0007	-0.0015	-0.0173	-13.4
-0.0105	-0.0068	-0.003	-0.0233	-13.4
-0.0068	-0.0098	-0.0015	-0.0083	-13.4
-0.0053	0	0.0007	0.0007	-13.4
-0.0046	0.0045	0.003	0.0052	-13.4
-0.0015	-0.0091	0.0045	0.0067	-13.4
0.0015	-0.0218	0.003	0.0037	-13.4
0.003	-0.0158	0.0037	0	-13.4
0.003	0.0007	0.0052	-0.0015	-13.4
0.0045	-0.0008	0.006	-0.003	-13.4
0.0037	0.0015	0.0067	-0.0038	-13.4
0.003	0.0067	0.006	0.0015	-13.4
0.003	0.0045	0.0052	0.0015	-13.4
0.0015	0.003	0.0045	0.003	-13.4
0.0015	-0.0015	0.003	0.0045	-13.4
0.0007	0.0007	0.0007	0.0052	-13.4
0.0007	0.0015	-0.0008	0.0037	-13.4
-0.0008	-0.0046	-0.0023	0	-13.4
-0.0053	-0.006	-0.0046	0.0007	-13.4
-0.0046	-0.0068	-0.0053	-0.0046	-13.4
-0.0008	-0.0083	-0.006	-0.0105	-13.4
0.0007	-0.006	-0.0053	-0.0158	-13.4
0.003	-0.0038	-0.003	-0.0083	-13.4
0.0082	-0.0023	-0.0023	-0.0008	-13.4
0.0142	0.0007	0.0015	0.0045	-13.4
0.0195	0.003	0.0075	0.021	-13.4
0.021	0.0045	0.0052	0.021	-13.4
0.0165	0.0045	0	0.006	-13.4
0.0075	0.003	-0.0023	0.0007	-13.4
0.0007	0.0007	-0.0008	-0.0008	-13.4
-0.0075	0.0007	0.0045	-0.0023	-13.4
-0.0105	0.0015	0.0075	-0.0015	-13.4
-0.0083	0.0007	0.0007	-0.0008	-13.4
-0.0091	0.0007	-0.0068	0.0045	-13.4
-0.0143	0.0007	-0.0091	0.0037	-13.4
-0.0195	0.0015	-0.012	0.0015	-13.4
-0.0143	0	-0.0083	-0.0008	-13.4
-0.0038	-0.003	-0.0023	-0.0023	-13.4
0.0037	-0.003	-0.0008	0.0007	-13.4
0.0045	-0.0023	0.0037	0.0045	-13.4
0.0052	-0.0015	0.0045	0.0082	-13.4
-0.0008	-0.0008	0.0052	0.0052	-13.4
-0.0046	-0.003	0.0037	0.003	-13.4
-0.003	-0.0023	0.003	0.0007	-13.4
-0.0046	0.0007	0.0037	-0.0008	-13.4
-0.0038	0.0052	0.0037	0.0007	-13.4
-0.0015	0.006	0.0015	-0.0008	-13.4
0	0.0037	-0.0015	0.0007	-13.4
0.0007	0.0007	0.0022	-0.0015	-13.4
0.0007	-0.0046	0.0045	-0.0046	-13.4
0.0037	-0.003	0.0007	-0.0008	-13.4
0.0052	0.0052	-0.0091	0.0097	-13.4
0.0052	0.0067	-0.0173	0.0217	-13.4
0.006	0.0052	-0.0128	0.0187	-13.4
0.0052	0.0067	-0.0008	0.006	-13.4
0.0045	0.0105	0.0105	0.003	-13.4
0.003	0.0105	0.0157	-0.0015	-13.4
-0.0008	-0.0091	0.0165	-0.0023	-13.4
-0.0023	-0.0458	0.0142	0.0015	-13.4
-0.003	-0.0383	0.0052	-0.0023	-13.4
-0.0008	-0.003	0.0052	-0.0038	-13.4
0.0045	-0.003	0.006	-0.0038	-13.4
0.0022	0.0015	0.003	0.0015	-13.4
0	0.0037	0.0022	0.0015	-13.4
0.003	-0.0015	-0.0008	-0.0008	-13.4
0.006	0.0037	-0.0023	-0.0015	-13.4
0.003	-0.0008	-0.0008	-0.0068	-13.4
-0.0008	0.0015	0.0015	-0.0046	-13.4
-0.0023	0.0045	0.0022	-0.0046	-13.4
-0.003	0.0015	0.0037	-0.0046	-13.4
-0.0038	0.0007	0.0045	-0.0046	-13.4
-0.003	-0.0023	0.006	-0.0053	-13.4
-0.0008	-0.0046	0.0052	-0.0046	-13.4
-0.003	-0.0023	0.003	-0.0008	-13.4
-0.0053	0	0.0015	0.003	-13.4
-0.006	-0.003	-0.0008	0.0022	-13.4
-0.0046	-0.0046	0	0.0015	-13.4
0.0007	-0.0015	0.003	0.0007	-13.4
0.003	0.003	0.0007	-0.0038	-13.4
0.0052	0.003	0.0007	-0.015	-13.4
0.0052	0.003	0.003	-0.0098	-13.4
0.0045	0.0015	0.0022	0.0015	-13.4
0.003	0	0.0022	-0.0083	-13.4
0.003	0.003	0.0022	-0.0091	-13.4
0.0015	0.0052	0.0045	-0.0068	-13.5
-0.0015	0.0037	0.0052	-0.0091	-13.5
0	-0.0015	0.0007	-0.0083	-13.5
-0.0023	-0.0068	-0.0008	-0.0091	-13.5
-0.003	-0.0158	0.003	-0.003	-13.5
-0.0008	-0.0188	0.0037	0.0052	-13.5
-0.0008	-0.006	0.0037	0.0067	-13.5
0.0007	-0.0015	0.003	0.0037	-13.5
0.0007	-0.003	0.003	0.0105	-13.5
-0.0008	-0.0015	-0.0015	0.0142	-13.5
-0.0046	-0.003	-0.003	0.0105	-13.4
-0.0053	-0.0023	-0.0038	0.0082	-13.4
-0.0083	-0.0008	-0.003	0.0045	-13.4
-0.0068	0.0007	-0.0015	-0.003	-13.4
-0.0068	0.0007	-0.0015	-0.006	-13.4
-0.003	0	-0.0008	-0.0015	-13.4
0	-0.0008	0.0015	-0.0015	-13.4
0.0067	-0.0008	0.003	0.0007	-13.4
0.009	-0.0015	0.0045	0.0015	-13.4
0.003	-0.0015	0.0052	-0.0008	-13.4
0.0015	0	0.0022	-0.0015	-13.4
0.0045	-0.0015	0.0022	-0.003	-13.4
0.0045	-0.0023	0.003	-0.0046	-13.4
0.0022	-0.0023	0.0045	-0.0038	-13.4
0	-0.0015	0.0105	0.0007	-13.4
-0.0015	-0.0038	0.009	0.0037	-13.4
-0.003	-0.0038	0.006	0.003	-13.4
-0.0015	-0.0008	0.003	-0.0015	-13.4
-0.0023	0.0015	-0.0023	-0.0008	-13.4
-0.0023	0.0045	-0.003	-0.0023	-13.4
-0.003	0.003	0	-0.0046	-13.4
-0.0015	-0.0008	0.0007	-0.003	-13.4
0.0007	-0.0053	-0.003	-0.003	-13.4
0.0067	-0.003	-0.0083	-0.0023	-13.4
0.0097	0.003	-0.0075	0.0007	-13.4
0.012	0.003	-0.0046	0	-13.4
0.0097	0.0037	-0.003	-0.0008	-13.4
0.0037	0.0045	-0.0046	-0.0015	-13.4
0.0015	0.0045	-0.0015	-0.0023	-13.4
-0.0038	0.0015	0.003	0.0007	-13.4
-0.006	0.0015	0.0052	0.0015	-13.4
-0.0128	0.0045	0.0082	0.0015	-13.4
-0.0158	0.0037	0.009	0.0067	-13.4
-0.012	0.0022	0.0075	0.0067	-13.4
-0.0083	0	0.0075	0.0067	-13.4
-0.0053	-0.0015	0.009	0.006	-13.4
-0.0083	0	0.0067	0.0052	-13.4
-0.0068	-0.003	0.003	0.003	-13.4
-0.0046	-0.0046	-0.0015	-0.0015	-13.4
-0.003	-0.0053	-0.006	-0.0068	-13.4
-0.0008	-0.0053	-0.003	-0.0135	-13.4
0.0015	-0.0046	-0.0015	-0.012	-13.4
0.0022	-0.0038	-0.0008	-0.0053	-13.4
0.0007	-0.003	-0.0068	-0.0008	-13.4
-0.003	-0.0008	-0.0091	0.0112	-13.4
-0.0023	-0.0015	-0.003	0.0195	-13.4
0.0007	-0.003	-0.0083	0.0135	-13.4
0.0022	-0.003	-0.0091	0.0052	-13.4
0.0007	-0.0046	-0.0015	0.0037	-13.4
-0.003	-0.003	0.0067	0.0015	-13.4
-0.0023	-0.0008	0.0157	0.0045	-13.5
0.0007	-0.0023	0.0187	0.003	-13.5
0.0022	-0.0053	0.0165	-0.0008	-13.5
0.0007	-0.0083	0.012	-0.0023	-13.5
-0.0008	-0.0091	0.0052	-0.0046	-13.5
0	-0.0083	0.003	-0.003	-13.5
0.0007	-0.0038	0.0015	-0.0046	-13.5
0.0052	-0.003	-0.0008	-0.0015	-13.5
0.0082	-0.0023	-0.0015	0.0007	-13.5
0.0067	0.0015	-0.0023	0.0022	-13.5
0.0045	0.003	-0.0053	0	-13.4
0.0015	0.0015	-0.0038	-0.0015	-13.4
0.0015	0.003	-0.003	-0.0023	-13.4
0.0015	0.0045	-0.0023	-0.0008	-13.4
0.0015	0.0052	0	0.0022	-13.4
0.0045	0.0067	0.0015	0.0022	-13.4
0.0075	0.0097	0.003	0.003	-13.4
0.0075	0.0105	0.0015	-0.0008	-13.4
0.003	0.0105	0.003	-0.0038	-13.4
0.003	0.009	0.0037	-0.003	-13.4
0.0045	0.0037	0	-0.003	-13.4
-0.0008	-0.0083	-0.0015	0.0007	-13.4
-0.0008	-0.0181	-0.0038	0.003	-13.4
-0.0008	-0.0053	-0.0023	0.0045	-13.4
0	0.0007	0.0015	0	-13.4
0.0007	-0.0046	0	-0.0023	-13.4
-0.0046	-0.003	0.0015	-0.0015	-13.4
-0.0053	-0.0091	0.0045	-0.0023	-13.4
-0.0046	-0.0068	0.0015	0.0007	-13.4
-0.003	-0.0075	-0.0008	0.0015	-13.4
-0.0008	-0.0098	-0.0015	0.0052	-13.4
0.0015	-0.006	0.0015	0.0082	-13.4
0.0037	-0.003	0.0052	0.0067	-13.4
0.0037	-0.003	0.006	0.0052	-13.4
0.003	-0.0046	0.0067	-0.0008	-13.4
0.0015	-0.0015	0.0045	-0.0023	-13.5
0.0045	-0.0008	0.0007	-0.0008	-13.5
0.0045	0.0045	0.0007	0.0015	-13.5
0	0.0067	0.0015	0	-13.5
-0.0008	0.0037	0.0045	-0.0046	-13.5
-0.003	0.003	0.0045	-0.0015	-13.5
-0.0015	0.0067	0.003	-0.0105	-13.5
-0.0008	0.0097	0.0045	-0.0181	-13.5
-0.0008	0.0007	0.0045	-0.0038	-13.5
-0.0008	-0.0083	0.0052	0.003	-13.5
-0.0008	-0.012	0.0045	0.0015	-13.5
-0.0008	-0.0143	0.0007	0.0015	-13.5
0.0007	-0.0046	0	0.0007	-13.5
0	-0.0008	-0.0008	0.003	-13.5
0.0007	-0.0046	0.0007	-0.0008	-13.5
-0.0008	-0.003	0.003	0.003	-13.5
-0.0023	0.0007	0.0052	0.0037	-13.5
-0.0008	0.0007	0.0052	0.0015	-13.5
-0.0008	0.006	0.0052	0.0007	-13.5
-0.0015	0.0097	0.0037	-0.0015	-13.5
-0.0053	0.009	0.0007	0.0007	-13.5
-0.0046	0.0105	-0.0023	-0.0008	-13.5
-0.0038	0.012	-0.0015	-0.0008	-13.5
-0.0038	0.0037	-0.0023	-0.0015	-13.5
-0.0008	-0.0293	-0.003	-0.0015	-13.5
0.0037	-0.0503	-0.0015	0.0045	-13.5
0.0015	-0.0195	-0.0015	0.003	-13.5
-0.003	0.0037	-0.003	0.003	-13.5
-0.0046	-0.0015	-0.003	0.003	-13.5
-0.0038	0.0052	-0.003	0.003	-13.5
-0.0008	0.0045	0.0015	0.0052	-13.5
0.0015	0.006	0.0052	0.0052	-13.5
0.0007	0.0037	0.0067	0.0045	-13.5
0.0007	0	0.0052	-0.0008	-13.5
0.0015	0.0022	0.0037	-0.0008	-13.5
-0.0008	0.0007	0.0037	-0.0053	-13.5
-0.0046	0.0007	0.0007	-0.0105	-13.5
-0.006	-0.0008	-0.0023	-0.012	-13.5
-0.003	0	-0.0015	-0.0113	-13.5
-0.0015	0.0007	-0.003	-0.0068	-13.5
-0.0038	0.0007	-0.0015	-0.0053	-13.5
-0.0015	0.0022	-0.0015	-0.0053	-13.5
0.003	0.0015	-0.0053	-0.0053	-13.5
0.0052	0.003	-0.0046	-0.0046	-13.5
0.0067	0.0052	-0.0038	-0.0053	-13.5
0.0045	0.003	-0.0038	-0.0068	-13.5
0.0045	0.0015	-0.0015	-0.0015	-13.5
0.0022	0.0052	0.0007	0.003	-13.5
0.0022	0.0015	0	0.006	-13.5
0.0082	-0.0023	-0.0038	0.0067	-13.5
0.0112	-0.0008	-0.0046	0.006	-13.5
0.015	-0.0015	0.0045	0.0067	-13.5
0.0105	-0.0008	0.0142	0.0067	-13.5
0.0045	0.0015	0.0232	0.0105	-13.5
0.0037	0.0022	0.024	0.0105	-13.5
0.0007	0.0007	0.012	0.0067	-13.5
-0.0038	-0.0053	0.0037	0.0052	-13.5
-0.0046	-0.0128	-0.003	0.0015	-13.5
-0.0046	-0.0113	-0.0128	-0.003	-13.5
-0.003	-0.0091	-0.0083	-0.0038	-13.5
-0.0015	-0.0113	-0.0015	-0.0015	-13.5
-0.0046	-0.0098	0.0007	-0.0015	-13.5
-0.0068	-0.0068	0.003	-0.003	-13.5
-0.006	-0.0046	-0.0023	-0.006	-13.5
-0.0083	-0.0038	-0.0038	-0.0068	-13.5
-0.0083	-0.0046	-0.0023	-0.0068	-13.5
-0.0068	-0.0038	-0.0046	-0.0053	-13.5
-0.0015	-0.0023	-0.003	-0.0053	-13.5
0.003	0	-0.0046	-0.0053	-13.5
0.0082	0.0022	-0.0053	-0.0015	-13.5
0.0112	0.003	-0.0008	0.0052	-13.5
0.0112	0.0037	-0.0015	0.0067	-13.5
0.0105	0.0015	0.0007	0.003	-13.5
0.009	-0.0008	0.009	0.009	-13.5
0.0067	0.0007	0.0105	0.0157	-13.5
0.003	0.003	0.0082	0.0082	-13.5
-0.003	0.0045	0.0067	0	-13.5
-0.0075	0.0007	0.0075	-0.0008	-13.5
-0.0053	0.0007	0.0097	0.0007	-13.5
-0.0046	0.003	0.0105	-0.0008	-13.5
-0.0038	-0.0008	0.0067	-0.0008	-13.5
-0.0008	-0.0015	0.0022	-0.0015	-13.5
0.0007	-0.003	-0.0053	-0.0046	-13.5
-0.0015	-0.0046	-0.0053	-0.0015	-13.5
-0.0038	-0.0046	-0.003	0.003	-13.5
-0.0015	-0.0046	-0.0046	0.003	-13.5
-0.003	-0.0015	-0.0023	0.006	-13.5
-0.006	0	-0.003	0.006	-13.5
-0.0046	0.0015	-0.0038	0.0045	-13.5
-0.0038	0.0037	-0.003	0.0022	-13.5
-0.0023	0.0022	-0.0023	-0.0008	-13.5
-0.0038	0.003	0.0007	0.0015	-13.5
-0.0038	0.006	0.003	0.0022	-13.5
-0.0023	0.0082	0.0067	0.0015	-13.5
-0.0023	0.009	0.0037	0.0015	-13.5
-0.0015	0.0067	0.0015	-0.0008	-13.5
-0.003	0.003	0.0037	-0.0008	-13.5
-0.0023	-0.0015	0.0007	-0.0015	-13.5
-0.0008	-0.0008	-0.0008	-0.0015	-13.5
0.0007	-0.0008	0.0015	-0.0008	-13.5
0.003	-0.0008	0.003	-0.0008	-13.4
0.0022	-0.0023	0.0045	-0.0023	-13.4
-0.003	-0.0068	0.003	-0.0023	-13.4
-0.0068	-0.0075	0.0007	-0.0038	-13.4
-0.0038	-0.0053	0	-0.0038	-13.4
0.0022	-0.0038	0	-0.0008	-13.4
0.0082	-0.0053	0.0007	-0.0008	-13.4
0.0052	-0.0046	-0.0008	-0.0008	-13.4
0.003	-0.0038	0.0015	-0.0008	-13.4
0.003	-0.0008	0.0045	0.0007	-13.4
0.0022	0.0015	0.0045	0.0022	-13.4
0.0022	0.0007	0.0052	0.0045	-13.4
0.0015	0.0015	0.0015	0.0067	-13.4
0.003	-0.0015	0.0022	0.006	-13.4
0.0015	-0.0023	0.0007	0.0045	-13.4
-0.0008	-0.0083	0.0007	0.003	-13.4
0	-0.0165	0.0007	0.0007	-13.4
0.0007	-0.0173	0.0007	-0.003	-13.4
0.0022	-0.0135	0.0037	-0.003	-13.4
0.003	-0.0075	0.003	-0.0008	-13.4
0.0045	-0.003	0.0045	-0.0008	-13.4
0.0022	-0.0015	0.006	-0.003	-13.4
0.0007	-0.0015	0.0045	-0.0046	-13.4
-0.0008	-0.0008	0.003	-0.0046	-13.4
-0.003	0.0015	0.0015	-0.0053	-13.4
-0.0038	0.0015	0.0015	-0.0068	-13.4
-0.0046	0.003	-0.0008	-0.006	-13.4
-0.0053	0.0045	0.0007	-0.0046	-13.4
-0.0038	0.0015	0.0007	-0.003	-13.4
-0.006	-0.0008	-0.003	-0.0008	-13.4
-0.0113	-0.0008	-0.0023	0.0037	-13.4
-0.0075	-0.0015	-0.0008	0.0037	-13.4
-0.0015	-0.0015	-0.0015	0.003	-13.4
0.0045	0.0007	-0.0023	0.003	-13.4
0.009	0.003	0.0007	0.0022	-13.4
0.009	0.0037	0.0045	0.0015	-13.4
0.0037	0	0.003	-0.003	-13.4
-0.0015	-0.0068	0.0007	-0.0075	-13.4
-0.0008	-0.0105	-0.0015	-0.0053	-13.4
0.0015	-0.0083	-0.0008	-0.003	-13.4
0.0045	-0.0046	-0.0008	-0.0015	-13.4
0.0052	-0.003	-0.0015	-0.0008	-13.4
0.0037	0.0007	-0.0008	0.0007	-13.4
0.0015	0.0022	-0.0008	-0.0015	-13.4
0.003	0.0015	0.0007	-0.0015	-13.4
0.006	0.0045	0.0007	0	-13.4
0.0037	0.0052	0.003	0.0007	-13.4
-0.0023	0.003	0.0045	0	-13.4
-0.003	-0.0008	0.0052	-0.0023	-13.4
-0.0023	0.0015	0.0082	0.0015	-13.4
-0.0046	0.0022	0.006	0.0045	-13.4
-0.0053	-0.0008	-0.0008	0.0007	-13.4
-0.003	-0.0015	-0.0068	0.0007	-13.4
0.0007	-0.0015	-0.0068	-0.0015	-13.4
0.0045	-0.0038	-0.006	-0.006	-13.4
0.0007	-0.0046	-0.0038	-0.003	-13.4
0.0015	-0.0038	0.0082	0.0015	-13.4
0.0037	-0.0038	0.0127	0.0045	-13.4
0.0045	-0.0053	0.0127	0.0045	-13.4
0.006	-0.0046	0.0127	0.0015	-13.4
0.0052	-0.0015	0.0067	0.0015	-13.4
0.0007	0.0007	0.0067	0.0045	-13.4
0.0007	0.0007	0.006	0.0045	-13.4
0	0.0007	0.0067	-0.0008	-13.4
-0.0015	-0.0015	0.009	-0.0038	-13.4
-0.0023	-0.0008	0.0037	-0.003	-13.4
-0.003	0.0007	-0.003	-0.0068	-13.4
-0.003	0.003	-0.0038	-0.003	-13.4
-0.0053	0.0052	-0.0053	0.006	-13.4
-0.0038	0.0052	-0.0083	0.0052	-13.4
-0.0046	0.003	-0.0046	0.0007	-13.4
-0.0015	0.0015	-0.0023	0.0015	-13.4
0.0015	-0.0015	-0.0023	0.0015	-13.4
0.0007	-0.0023	-0.0008	0.003	-13.4
0.0045	-0.003	0	0.0015	-13.4
0.0037	-0.0038	0.0015	0.0007	-13.4
0.0015	-0.0023	0.003	0.0045	-13.4
0.0007	-0.0023	0.0052	0.006	-13.4
-0.0023	0	0.006	0.0045	-13.4
-0.0008	0.0015	0.003	-0.0015	-13.4
-0.0015	0.0015	0.0015	-0.0038	-13.4
-0.003	-0.0008	-0.0008	-0.0038	-13.4
-0.0053	-0.003	0.0022	-0.0023	-13.4
-0.0068	-0.003	0.0045	0	-13.4
-0.0068	0.0007	0.0007	0.0015	-13.4
-0.0046	0.0015	0.0015	-0.0015	-13.4
0.003	0	0.0022	-0.0015	-13.4
0.0045	0.0007	0.0037	0.0007	-13.4
0.0037	-0.0008	0.0037	-0.0053	-13.4
0.0045	0.0007	0.0045	-0.006	-13.4
0.0015	0.0007	0.003	-0.0015	-13.4
0.0052	0	0.0015	0.003	-13.4
0.0067	0	0	0.0067	-13.4
0.0007	0.0007	-0.0015	0.0112	-13.4
-0.003	0.003	0.0022	0.015	-13.4
-0.0068	0.0052	0.003	0.0075	-13.4
-0.0091	0.0052	0.0015	0.0045	-13.4
-0.006	0	-0.0008	0.0015	-13.4
-0.0046	-0.0083	-0.0083	0.0007	-13.4
0.0007	-0.0105	-0.0105	0.006	-13.4
0.0037	-0.0105	-0.0091	0.003	-13.4
0.0067	-0.0098	-0.0046	0.0015	-13.4
0.0067	-0.0083	-0.0008	-0.0008	-13.4
0.0015	-0.0075	-0.003	-0.0023	-13.4
-0.0008	-0.0008	-0.0015	-0.0008	-13.4
-0.0038	-0.0008	-0.0008	-0.0008	-13.4
-0.0068	-0.0015	-0.003	-0.0023	-13.4
-0.0083	-0.003	0.0007	-0.0053	-13.4
-0.0091	-0.006	0.0045	-0.0053	-13.4
-0.0053	-0.0046	0.003	-0.006	-13.4
-0.003	-0.0023	0.0022	-0.0053	-13.4
-0.0008	0.0007	0.0007	-0.0068	-13.4
0.003	0	-0.0015	-0.006	-13.4
0.0022	-0.0008	-0.003	-0.0046	-13.4
0.0015	0.0015	-0.0046	-0.0053	-13.4
-0.0008	0.0007	-0.0015	-0.0023	-13.4
-0.0023	-0.0015	0.0007	0.0015	-13.4
-0.0008	-0.0053	0.0007	0.0037	-13.4
-0.003	-0.0046	0.0052	0.003	-13.4
-0.0046	-0.006	0.0067	0.0022	-13.4
-0.003	-0.0046	0.0052	0.0015	-13.4
0	0.0007	0.0037	0.003	-13.4
0.003	0.003	0.0007	0.0045	-13.4
0.0045	0.0022	0.0015	0.0045	-13.4
0.003	-0.0015	0.003	0.0015	-13.4
0.0045	-0.0023	0.003	0.0007	-13.4
0.0052	-0.0046	0.006	0.0007	-13.4
0.0045	-0.0105	0.0075	-0.0008	-13.4
0.0052	-0.0091	0.003	0.0007	-13.4
0.0045	-0.0015	0.0007	0.0015	-13.4
0.0037	-0.0015	0.0007	0.0007	-13.4
0.006	-0.0023	-0.0008	0	-13.4
0.0067	-0.0023	-0.0008	-0.0008	-13.4
0.0067	-0.0046	-0.003	0.0007	-13.4
0.0075	-0.0015	-0.0008	0.0007	-13.4
0.009	-0.0008	0.0022	0.0015	-13.4
0.009	0.003	0.003	0.0007	-13.4
0.0067	0.0045	0.0082	-0.0015	-13.4
0.0045	0.0007	0.009	-0.0008	-13.4
0.0007	0.0007	0.0067	-0.0015	-13.4
-0.0008	0.0007	0.0037	-0.0023	-13.4
-0.0023	0.0015	0.0015	-0.003	-13.4
-0.0008	0	0.0045	-0.0038	-13.4
-0.0008	-0.0015	0.0015	-0.0046	-13.4
0.0007	0.0007	0	-0.0091	-13.4
0.0015	0.0052	0.0015	-0.0023	-13.4
0.003	0.0067	-0.0008	0.0015	-13.4
0.003	0.0037	-0.0015	0.0037	-13.4
-0.0008	0.003	-0.003	0.0075	-13.4
-0.003	-0.003	-0.0068	0.003	-13.4
-0.0015	-0.0075	-0.0083	0.0007	-13.4
-0.003	-0.006	-0.003	-0.0015	-13.4
-0.0015	-0.0053	0.0015	-0.0015	-13.4
-0.0008	-0.0015	0.0045	0.0015	-13.4
-0.0015	0.0015	0.0097	0.0045	-13.4
-0.0015	0.0045	0.0075	0.003	-13.4
-0.003	0.0052	0.0045	0.0022	-13.4
-0.003	0.0045	0.003	-0.0015	-13.4
-0.003	0.0022	-0.0015	-0.0023	-13.4
-0.0023	-0.0008	-0.0075	0.0007	-13.4
-0.0023	-0.0008	-0.0075	0.0022	-13.4
-0.0053	0	-0.0008	0.0022	-13.4
-0.0053	0	0.003	0	-13.4
-0.0068	0.0015	0.009	0	-13.4
-0.0053	0.0045	0.0082	-0.0038	-13.4
-0.0015	0.0037	0.0067	-0.0053	-13.4
0.0015	0.0045	0.009	-0.0038	-13.4
0.0022	0.0052	0.0052	-0.0023	-13.4
0.003	0.0015	0.0067	0.0007	-13.4
0.003	-0.0015	0.0052	0.0037	-13.4
0.003	-0.0046	0.0037	0.003	-13.4
0.0022	-0.0053	-0.0008	0.0037	-13.4
0	-0.0046	-0.0038	0.003	-13.4
0.0007	-0.0053	0.0007	0.0015	-13.4
-0.0008	-0.003	-0.0015	0.003	-13.4
0.003	0.0037	-0.0008	0.0052	-13.4
0.0045	0.0082	-0.0015	0.0067	-13.4
-0.0015	0.009	-0.0008	0.006	-13.4
-0.0046	0.0105	0.003	0.0052	-13.4
-0.0046	0.0075	0.0015	0.0015	-13.4
-0.0053	-0.0008	0.0007	-0.0008	-13.4
-0.0083	-0.024	-0.0008	-0.0008	-13.4
-0.0068	-0.0488	-0.0046	-0.0008	-13.4
-0.0008	-0.0233	-0.0068	0.003	-13.4
0.0045	0.003	-0.0068	0.003	-13.4
0.003	-0.0023	-0.0046	0.003	-13.4
-0.0008	0.003	-0.0015	0.0015	-13.4
-0.0008	-0.0015	-0.0008	0.0015	-13.4
-0.003	-0.003	0	0.0007	-13.4
-0.0023	0.0007	0.0022	0.003	-13.4
-0.0046	-0.0015	0	0.0045	-13.4
-0.006	0.0015	-0.003	0	-13.4
-0.003	0.003	-0.0046	-0.003	-13.4
0.0007	0.0015	-0.0053	-0.0053	-13.4
0.0022	-0.003	-0.003	-0.0046	-13.4
0.0007	-0.0008	-0.0046	-0.003	-13.4
0.0037	-0.0008	-0.0015	-0.003	-13.4
0.0082	0.0007	0.0015	-0.0015	-13.4
0.009	0.003	-0.0008	-0.0008	-13.4
0.0082	0.0045	-0.0008	-0.0046	-13.4
0.0052	0.003	0.0015	-0.0091	-13.4
0.0052	-0.0015	0.0082	-0.0105	-13.4
0.0015	-0.0008	0.0142	-0.0075	-13.4
-0.0046	-0.0008	0.0195	-0.0038	-13.4
-0.0075	0	0.0195	0.006	-13.4
-0.0023	-0.003	0.0127	0.0105	-13.4
0.006	-0.0046	0.0052	0.0037	-13.4
0.0067	-0.003	0.003	0.0045	-13.4
-0.0008	-0.0046	0.0045	-0.0008	-13.4
-0.003	-0.0053	0.003	-0.0053	-13.4
-0.0015	-0.0046	0.0037	-0.0015	-13.4
-0.0023	-0.0053	0.0045	-0.0083	-13.4
-0.0008	-0.003	0.0015	-0.0053	-13.4
0.0007	0.0022	0.0007	-0.0023	-13.4
0.0007	-0.0008	0.0007	0.0015	-13.4
-0.0008	-0.0008	-0.0015	0.0045	-13.4
-0.003	0	-0.0046	-0.0008	-13.4
-0.0023	-0.0008	-0.0046	-0.0015	-13.4
0	-0.0008	-0.0053	-0.0075	-13.4
-0.0046	-0.003	-0.0046	-0.0083	-13.4
-0.0083	-0.0046	-0.0015	-0.0046	-13.4
-0.006	-0.0053	-0.0023	0.0007	-13.4
0.0007	-0.0015	0	0.003	-13.4
0.0015	-0.0008	0.0007	0.0015	-13.4
0.0022	-0.0008	0	0.0007	-13.4
0.003	-0.0023	0.0015	-0.0023	-13.4
0.0007	-0.0038	0.0045	0.0015	-13.4
-0.003	0	0.0052	0.0045	-13.4
-0.0015	0.0022	0.0015	0.0052	-13.4
-0.003	0.0015	0.0045	0.0037	-13.4
-0.0068	0.003	0.0067	0.0037	-13.4
-0.006	0.0067	0.0022	0.0067	-13.4
-0.006	0.0082	-0.0015	0.0067	-13.4
-0.0046	0.006	-0.0053	0.0082	-13.4
-0.0038	0.0045	-0.0023	0.009	-13.4
-0.0015	0.0015	-0.0038	0.0075	-13.4
0.0022	-0.003	-0.0083	0	-13.4
0.0007	-0.0053	-0.0053	0	-13.4
-0.0015	-0.0008	-0.0038	0.0045	-13.4
0.003	0.0007	-0.0038	0.0052	-13.4
0.0045	-0.0046	-0.0053	0.003	-13.4
0.0052	-0.0053	-0.0053	-0.0008	-13.4
0.0045	-0.0046	0	0.0067	-13.4
0.0037	-0.003	0.0097	0.006	-13.4
0.0052	-0.0015	0.0165	0.0007	-13.4
0.0045	-0.0046	0.0202	0.003	-13.4
0.0015	-0.0046	0.0217	-0.0008	-13.4
0.0007	-0.0046	0.0157	0.0007	-13.4
0	-0.0023	0.0045	0.0007	-13.4
0.0007	-0.0023	-0.003	0	-13.4
-0.0008	-0.0023	-0.0053	-0.0053	-13.4
-0.0008	-0.0038	-0.0053	-0.0075	-13.4
-0.0023	-0.003	-0.006	-0.0053	-13.4
-0.0038	-0.0023	-0.0068	-0.0083	-13.4
-0.0023	-0.0023	-0.0053	-0.0053	-13.4
0	-0.0015	-0.0015	-0.0053	-13.3
0.0022	-0.0015	0	-0.0046	-13.3
0.0045	-0.0023	0.0015	-0.0008	-13.3
0.0037	0.0007	0.0015	-0.0008	-13.3
0.0015	0.0015	0.0015	-0.0008	-13.3
0.003	0.0015	0.0037	-0.003	-13.3
0.0007	-0.0015	0.0052	-0.0053	-13.3
-0.0053	-0.0075	0.0045	-0.0038	-13.3
-0.0068	-0.0068	0	-0.0038	-13.3
-0.003	-0.003	-0.0046	-0.0038	-13.3
0.0007	0	-0.0053	-0.0015	-13.3
0.006	0	-0.0046	-0.0046	-13.3
0.0075	-0.003	-0.0046	-0.0046	-13.3
0.0067	-0.0068	0	-0.003	-13.3
0.012	-0.0053	0.003	-0.0008	-13.3
0.0127	-0.0008	0.003	0.0022	-13.3
0.009	0.0015	0.0052	0.0015	-13.3
0.0067	0.0022	0.0052	-0.0015	-13.3
0.003	0.0052	0.0067	-0.0046	-13.3
0.0015	0.003	0.0082	-0.0053	-13.3
0.0007	0.0022	0.0067	-0.0068	-13.3
-0.0015	0.0037	0.0082	-0.0068	-13.3
-0.003	0.0037	0.003	-0.003	-13.3
-0.0038	0.003	0.0015	-0.003	-13.3
-0.003	0.003	0.0045	-0.0046	-13.3
-0.0038	0.0075	0.003	-0.003	-13.3
-0.003	0.0052	0.0052	0.0007	-13.3
-0.003	0.0015	0.003	0.0015	-13.3
0	0.0007	0.0015	0.003	-13.3
0.003	-0.0015	0.0007	0.0045	-13.3
0.0037	-0.0015	0.0007	0.0067	-13.3
0.0015	-0.0008	0.003	0.0082	-13.3
0.0015	-0.0015	0.0052	0.0067	-13.3
-0.0008	-0.003	0.0067	0.0067	-13.3
-0.003	-0.003	0.003	0.0045	-13.3
-0.0053	-0.0015	0.003	0.0052	-13.3
-0.0083	-0.0008	0.0052	0.0045	-13.3
-0.0098	-0.0008	0.0075	0.0052	-13.3
-0.0113	0.0022	0.0082	0.0082	-13.3
-0.0105	0.0022	0.0037	0.0067	-13.3
-0.0053	0.0045	-0.0008	0.0022	-13.3
-0.0008	0.003	-0.006	-0.0008	-13.3
0.0022	0.0007	-0.0068	-0.0038	-13.3
0.003	0.0037	-0.006	-0.006	-13.3
0.0045	0.0022	-0.0083	-0.0053	-13.3
0.0037	0.0015	-0.0075	-0.0053	-13.3
0.0045	0.003	-0.0068	-0.006	-13.3
0.0052	0.0007	-0.0046	-0.0046	-13.3
0.0037	0.0007	-0.0008	-0.0008	-13.3
0.0022	-0.0053	0	0.0007	-13.3
0	-0.0075	-0.0008	0.0022	-13.3
0	-0.0083	-0.0008	0.003	-13.3
-0.0008	-0.0083	0.0007	0.0007	-13.3
-0.0008	-0.0075	0.0037	-0.0038	-13.3
0.0007	-0.0083	0.0022	-0.0053	-13.3
0.0007	-0.0068	0.0007	-0.003	-13.3
0	-0.0068	0.003	-0.003	-13.3
-0.0015	-0.0075	0.003	-0.0015	-13.3
0	-0.0053	0.003	0.0015	-13.3
0.0022	-0.0015	0.003	0.0052	-13.3
0.0015	0.0007	0.0015	0.0075	-13.3
0.0007	0.0007	0.0052	0.006	-13.3
0.0007	0.0015	0.0067	0.0052	-13.3
-0.0008	-0.003	0.006	0	-13.3
-0.0038	-0.0046	0.0067	-0.0008	-13.3
-0.003	-0.003	0.0082	-0.0038	-13.3
-0.0015	-0.0068	0.0082	-0.0038	-13.3
-0.0053	-0.006	0.006	0.003	-13.3
-0.003	-0.0008	0.003	0.0045	-13.3
0.0052	0.0007	0.0022	0.0075	-13.3
0.0105	-0.0008	0.0067	0.0105	-13.3
0.009	-0.0008	0.0082	0.0045	-13.3
0.0037	-0.0008	0.009	-0.0053	-13.3
-0.0046	0.0007	0.009	-0.0046	-13.3
-0.0098	0.0022	0.0052	-0.003	-13.3
-0.0113	0.0015	0.0007	-0.003	-13.3
-0.0075	0	-0.003	-0.006	-13.3
-0.0038	-0.0038	-0.0053	-0.0068	-13.3
0.0007	-0.003	-0.0038	-0.003	-13.3
0.0037	0.0007	-0.0038	-0.0008	-13.3
0.0022	0.0015	-0.0046	-0.0008	-13.3
-0.0008	-0.0008	-0.0038	-0.0008	-13.3
-0.0008	-0.003	-0.0038	-0.0008	-13.3
0.0015	-0.0038	-0.0068	-0.0008	-13.3
0.0015	-0.0023	-0.0128	0.0007	-13.3
0.0045	0	-0.0195	0.0015	-13.3
0.0045	0.0007	-0.0158	0.0015	-13.3
0.0007	0.0007	-0.0068	0.0022	-13.3
-0.0023	0.003	0.0015	0.0052	-13.3
-0.003	0.0052	0.0105	0.0082	-13.3
0.0015	0.0067	0.012	0.006	-13.3
0.003	0.003	0.0105	0.006	-13.3
0.003	0	0.009	0.0052	-13.3
0.0045	-0.0015	0.006	0.006	-13.3
0.003	-0.0008	0.0052	0.0082	-13.3
0.003	0	0.0075	0.0052	-13.3
0.0045	-0.003	0.0097	0.003	-13.3
0.0052	-0.0023	0.0075	0.0015	-13.3
0.0045	0.0015	0	0.0007	-13.3
0.0045	0.0015	-0.0046	-0.0008	-13.3
0.0045	-0.0008	-0.0053	-0.003	-13.3
0.003	-0.003	-0.0008	-0.0068	-13.3
0	-0.0038	0.0007	-0.0083	-13.3
-0.0023	-0.0038	-0.0015	-0.0083	-13.3
-0.0008	-0.0053	-0.003	-0.0083	-13.3
-0.0008	-0.006	-0.003	-0.0046	-13.3
0.0015	-0.0046	0.0015	-0.003	-13.3
0	-0.0038	0.0045	-0.003	-13.3
-0.0008	-0.0038	0.0067	-0.0046	-13.3
0.0007	-0.0023	0.0067	-0.0046	-13.3
-0.0015	0.0015	0.006	-0.0015	-13.3
-0.003	0.0045	0.0045	-0.0008	-13.3
-0.003	0.0022	0.003	-0.003	-13.3
-0.0015	0.0015	0.0067	-0.003	-13.3
-0.0015	0.0045	0.0037	-0.0015	-13.3
-0.003	0.0045	-0.0008	-0.0046	-13.3
-0.0023	0.0052	-0.003	-0.0046	-13.3
-0.003	0.0052	-0.0053	-0.0023	-13.3
-0.0023	0.0037	-0.003	0.0022	-13.3
-0.0015	-0.0113	-0.003	0.003	-13.3
-0.0015	-0.0458	0	0.0037	-13.3
0.0015	-0.0405	0.0037	0.006	-13.3
0.0007	-0.0015	0.0022	0.0022	-13.3
-0.0008	0.0015	0.0045	-0.0015	-13.3
-0.0015	0.0022	0.0067	-0.0008	-13.3
-0.003	0.003	0.0052	-0.0008	-13.3
-0.0023	-0.0015	0.0015	-0.0008	-13.3
-0.0008	0.0015	0	0	-13.3
0.0015	0.003	0	0.0007	-13.3
0.0045	0.003	0	0.0007	-13.3
0.0052	-0.0015	-0.0008	0.0007	-13.3
0.003	-0.0008	-0.0023	0.0007	-13.3
0	0	-0.003	0.003	-13.3
-0.0008	-0.0008	-0.0008	0.0045	-13.3
0.0007	0.0007	0.0007	0.0045	-13.3
0.0022	0.0015	0.0007	0.0052	-13.3
0	0.0045	0.0022	0.0037	-13.3
-0.0015	0.0052	0.003	0.0007	-13.3
-0.0046	0.0045	0.0045	-0.0015	-13.3
-0.0053	-0.0015	0.0037	-0.0038	-13.3
-0.0046	-0.0075	-0.0008	-0.003	-13.3
-0.0046	-0.0068	-0.0008	-0.0008	-13.3
-0.003	-0.0053	-0.0015	0.0007	-13.3
-0.003	-0.0015	-0.0015	0.0007	-13.3
-0.0008	0.0007	-0.0008	0.0007	-13.3
0.003	0.003	-0.0023	0	-13.3
0.003	0.0052	-0.0015	-0.0015	-13.3
0.0037	0.0067	-0.0015	-0.0015	-13.3
0.006	0.0075	-0.0046	0.0007	-13.3
0.0052	0.0052	-0.0046	0.0045	-13.3
0.0007	0.0045	-0.0015	0.0067	-13.4
-0.003	0.0037	-0.0008	0.0052	-13.4
-0.0068	0.003	0.0007	0.0052	-13.4
-0.015	0.0015	0.003	0.0052	-13.4
-0.0158	0.0007	0.0052	0.0045	-13.4
-0.0098	-0.0008	0.0097	0.006	-13.4
-0.003	0.0015	0.0105	0.0052	-13.4
0.0037	0.0015	0.0112	0.0045	-13.4
0.0075	-0.0008	0.0142	0.0045	-13.4
0.0045	-0.0038	0.009	0.0015	-13.4
0.0052	-0.0046	0.0082	0	-13.4
0.0075	-0.0038	0.0067	-0.0008	-13.4
0.0067	-0.0046	-0.0008	-0.0046	-13.4
0.003	-0.0038	0.0015	-0.0053	-13.4
-0.0023	-0.0015	0.0015	-0.0053	-13.4
-0.0053	0.0007	0	-0.0083	-13.4
-0.0046	0.0022	0.0015	-0.0083	-13.4
-0.003	0.0007	0.0007	-0.0068	-13.4
-0.003	-0.0053	0.0015	-0.0083	-13.4
-0.003	-0.0083	0	-0.0091	-13.4
-0.003	-0.0083	-0.0008	-0.0068	-13.4
-0.0046	-0.0068	-0.0008	-0.0053	-13.4
-0.0046	-0.0038	-0.0015	-0.0053	-13.4
-0.003	-0.0053	-0.0015	-0.0053	-13.4
-0.0008	-0.0053	-0.0023	-0.006	-13.4
0.0007	-0.0008	-0.0046	-0.003	-13.4
0.0045	-0.0023	-0.0023	-0.003	-13.4
0.0045	-0.0083	-0.0008	-0.0008	-13.4
0.0052	-0.0075	-0.0008	0.0022	-13.4
0.012	-0.0083	0	0.0045	-13.4
0.0105	-0.0083	-0.003	0.009	-13.4
0.006	-0.0068	-0.0053	0.0052	-13.4
0.0015	-0.0023	0.0007	0.0052	-13.4
-0.0008	-0.0008	0.0045	0.0082	-13.4
0.0007	-0.0023	0.0022	0.0075	-13.4
0.0015	-0.0023	0.0037	0.0097	-13.4
0.0015	-0.0046	0.006	0.009	-13.4
0.0022	-0.0046	0.006	0.0082	-13.4
0.0015	-0.0091	0.0045	0.0067	-13.4
0.0037	-0.0068	0.0037	0.0052	-13.4
0.003	-0.0015	-0.0008	0.0045	-13.4
0	0.0015	-0.0046	0.003	-13.4
-0.0023	0.0045	-0.0038	0	-13.4
-0.003	0.0045	0.0007	-0.0008	-13.4
0.0015	0.0105	0.006	0.0015	-13.4
0.0022	0.012	0.0067	0.0022	-13.4
0.0007	0.0082	0.003	-0.0008	-13.4
0.0007	0.0037	0.0015	-0.003	-13.4
-0.0015	-0.0015	0.0045	-0.0015	-13.4
0.0007	0.003	0.0045	0	-13.4
0.003	0.0075	0.0037	0	-13.4
0.0045	0.0067	0.0045	-0.0015	-13.4
0.0075	0.0037	0	-0.0038	-13.4
0.0075	0	-0.003	-0.0053	-13.4
0.0052	-0.0015	-0.0075	-0.0046	-13.4
-0.0023	-0.0023	-0.0128	-0.0068	-13.5
-0.0038	-0.0053	-0.0046	-0.0068	-13.5
-0.0015	-0.0091	0.0052	-0.0075	-13.5
-0.0046	-0.0105	0.0127	-0.0091	-13.5
-0.0046	-0.0091	0.0195	-0.0083	-13.5
-0.006	-0.0068	0.0157	-0.0075	-13.5
-0.0046	-0.0053	0.009	-0.0015	-13.5
-0.0015	-0.0038	0.006	0.0045	-13.5
-0.0015	-0.003	0.0045	0.006	-13.5
0.0022	0.0007	0.003	0.0045	-13.5
0.0007	0.0045	0.003	0.0045	-13.5
-0.0015	0.003	0.0007	0.0045	-13.5
-0.0015	0.0037	-0.0015	0.0045	-13.5
-0.0046	0.0045	-0.0015	0.009	-13.5
-0.0053	0.0045	-0.0053	0.012	-13.5
-0.0046	0.0052	-0.006	0.0082	-13.5
-0.0023	0.0037	-0.003	0.0045	-13.5
-0.003	0.003	-0.0015	0.0037	-13.5
-0.0038	0.0045	-0.0023	0.0015	-13.5
-0.0023	0.0015	-0.003	-0.0015	-13.5
-0.0008	-0.003	-0.0046	-0.003	-13.5
-0.0008	-0.0023	-0.0008	-0.0046	-13.5
-0.0008	0	0	-0.0053	-13.5
0.0015	-0.0015	0.0007	-0.0046	-13.5
0.0022	-0.0008	0.0052	-0.0023	-13.5
0.0007	-0.0008	0.0007	-0.0008	-13.5
-0.003	0.0015	0	0.0037	-13.5
-0.0023	0.0015	0.0007	0.0015	-13.5
-0.0023	-0.0015	0	-0.0015	-13.5
-0.0038	-0.0015	0	-0.0008	-13.5
-0.0023	-0.0015	-0.0015	0.0022	-13.5
-0.003	-0.0015	-0.003	0.0037	-13.5
-0.003	-0.0046	-0.0008	0.003	-13.5
-0.003	-0.0053	0.0015	0.0015	-13.5
-0.003	-0.0046	0	0.0045	-13.5
-0.0015	-0.0053	-0.0038	0.0067	-13.5
-0.003	-0.006	-0.003	0.003	-13.5
-0.0015	-0.0075	-0.003	-0.0008	-13.5
-0.0015	-0.0046	0	-0.0023	-13.5
-0.0015	-0.0023	0.0022	-0.0046	-13.5
0.0007	-0.0015	0.0007	-0.0068	-13.5
0.0022	0	0.0022	-0.0083	-13.5
0.0052	-0.0008	0.003	-0.0083	-13.5
0.0067	0	0.0045	-0.0091	-13.5
0.0052	0.0007	0.0037	-0.0083	-13.5
0.006	0.0007	0.003	-0.0053	-13.5
0.0075	-0.0008	0.0045	-0.003	-13.5
0.0075	0.0022	0.0045	-0.003	-13.5
0.0045	0.0067	0.003	-0.0046	-13.5
0.0015	0.0052	-0.0008	-0.0015	-13.5
-0.0008	0.006	-0.003	-0.0015	-13.5
-0.0046	0.0075	-0.003	-0.0008	-13.5
-0.0015	0.0067	-0.0015	0.0015	-13.5
-0.0015	0.0015	-0.0008	-0.0008	-13.5
-0.0038	-0.0315	-0.003	-0.003	-13.5
-0.0015	-0.0533	-0.0015	-0.0023	-13.5
0.0052	-0.0188	0	-0.003	-13.5
0.0045	-0.0008	0.0015	0.0015	-13.5
-0.0015	-0.0046	0.0022	0.0067	-13.5
0	0.003	0.003	0.009	-13.5
0.003	0.0007	0.0037	0.0105	-13.5
0.006	0.0037	0.003	0.0105	-13.5
0.0052	0.0022	0.0075	0.012	-13.5
0.0052	0.0007	0.009	0.0097	-13.5
0.0052	0.0045	0.009	0.0037	-13.5
-0.0038	0.0067	0.006	0.0037	-13.6
-0.0105	0.0105	0.0015	0.003	-13.6
-0.0105	0.0075	-0.0008	0.0022	-13.6
-0.006	0.006	-0.003	0.0052	-13.6
-0.003	0	-0.0046	0.0045	-13.6
-0.003	-0.003	-0.0008	0.0037	-13.6
-0.0008	-0.0008	0.003	0.0022	-13.6
-0.0008	0.0007	0.006	-0.003	-13.6
0.0015	0.0015	0.0052	-0.0038	-13.6
0	0.0022	0.0015	-0.003	-13.6
0.0007	0.0052	-0.0046	-0.0046	-13.6
0.0007	0.0015	-0.0068	-0.003	-13.6
-0.0008	0.0015	-0.006	-0.0038	-13.6
0.0015	0.0007	-0.0053	-0.0038	-13.6
0.003	0	-0.0015	-0.003	-13.6
0.003	-0.0008	0.0007	-0.0038	-13.6
0.0015	-0.003	0.0007	-0.0038	-13.6
-0.0008	-0.0038	0.003	-0.0053	-13.6
-0.0008	-0.0053	0.0045	-0.0008	-13.6
0.0007	-0.006	0.0045	0.0022	-13.6
0.0045	-0.003	0.006	0.0022	-13.7
0.0045	-0.0015	0.0067	0.003	-13.7
0.0022	-0.0008	0.0045	0.0045	-13.7
0.003	0.0007	0.003	0.0022	-13.7
0.0007	-0.0023	0.0037	-0.0015	-13.7
-0.0015	-0.0038	0.0045	0.0007	-13.7
-0.0008	-0.0046	0.006	0.0015	-13.7
-0.003	-0.0053	0.0067	0	-13.7
-0.0053	-0.0008	0.0015	0.0015	-13.7
-0.0068	0.0052	-0.0008	0	-13.7
-0.0068	0.0075	0.0015	0.0015	-13.7
-0.0023	0.0052	0.003	0	-13.7
0.0015	-0.0046	0.0067	-0.0053	-13.7
0.0022	-0.012	0.0082	-0.0083	-13.7
0.0007	-0.0105	0.0082	-0.0113	-13.7
0.0015	-0.0105	0.0082	-0.0113	-13.7
0.003	-0.0083	0.0067	-0.0091	-13.7
0.0007	-0.0053	0.006	-0.0046	-13.7
0	-0.0038	0.0052	-0.0023	-13.7
-0.0023	0	0.0015	0	-13.7
-0.0015	0.003	-0.0008	0.0015	-13.7
0	0.003	0	0.003	-13.7
0.0007	0.0015	-0.0015	0.0052	-13.7
0.0007	0.003	-0.0046	0.0067	-13.7
0.0007	0.003	-0.0053	0.0052	-13.7
0.0007	0.0007	-0.0038	0.0015	-13.7
0.0022	-0.0008	-0.0008	0.0007	-13.7
0.0037	0.0007	0.0007	0.003	-13.7
0.0045	0.0022	0.0007	-0.0008	-13.7
0.0022	0.0052	-0.0008	0.0007	-13.7
-0.0008	0.0067	-0.0038	0.0022	-13.7
-0.003	0.0052	-0.0046	0.0045	-13.7
0	0.0045	-0.0046	0.006	-13.7
0.0007	0.0075	-0.0038	0.0052	-13.7
0	0.0075	-0.003	0.0045	-13.7
0	0.0015	0.0007	0.003	-13.7
-0.0008	-0.006	0.003	0.0015	-13.7
-0.0008	-0.0091	0	0.0015	-13.7
0.0015	-0.006	0.0015	0.0045	-13.7
0.0015	-0.0023	0.0015	0.0037	-13.7
0.0015	-0.003	0.0015	0.003	-13.8
0.0015	-0.0038	0.003	0.0037	-13.8
0.0045	-0.0053	0.0007	0.0022	-13.8
0.0052	-0.0053	0.0007	0.0007	-13.8
0.0045	-0.0068	0.0007	0	-13.8
0.006	-0.0046	0.0045	0.0007	-13.8
0.0067	-0.0015	0.0045	0.0007	-13.8
0.006	-0.0023	0.0015	-0.0015	-13.8
0.0045	-0.0038	0.003	-0.006	-13.8
0.0015	-0.0053	0.0037	-0.0068	-13.8
0.0007	-0.003	0.0052	-0.0075	-13.8
0.0007	-0.0008	0.0082	-0.0105	-13.8
-0.0046	0.0007	0.0045	-0.0098	-13.8
-0.006	-0.0008	0.0015	-0.0098	-13.8
-0.0068	-0.0023	0.0015	-0.0091	-13.8
-0.0083	-0.0015	0.003	-0.0053	-13.8
-0.0068	-0.003	0.003	-0.0038	-13.8
-0.006	0.0007	0.0045	-0.0038	-13.8
-0.0068	0.0007	0.0045	-0.0046	-13.8
-0.006	0.003	0.0045	-0.0015	-13.8
-0.0046	0	0.0052	0.0007	-13.8
-0.0023	-0.0053	0.0037	-0.0015	-13.8
0.0007	-0.0053	0.0015	0.0007	-13.8
0.0015	-0.0008	-0.0015	0.0015	-13.8
0.0015	-0.0015	-0.0053	-0.0015	-13.8
0.0015	-0.0008	-0.006	0.0015	-13.8
0.0015	0.003	-0.0068	0.003	-13.8
0	-0.0008	-0.0046	0.0007	-13.8
0.003	-0.003	-0.0068	0.0015	-13.8
0.006	-0.003	-0.0075	0.0015	-13.8
0.0082	-0.0015	-0.003	0.003	-13.8
0.009	-0.0046	0.0037	0.0015	-13.8
0.0127	-0.0068	0.009	0.0037	-13.8
0.0172	-0.0053	0.0097	0.0105	-13.8
0.0157	-0.003	0.0097	0.0105	-13.8
0.0097	0.0007	0.0082	0.009	-13.9
0.0052	0.0007	0.0045	0.0052	-13.9
0.0022	0.0007	0.0052	0.003	-13.9
0	0.0045	0.0045	0.003	-13.9
0.0007	0.006	0.0015	0.003	-13.9
0	0.0067	-0.0015	0.003	-13.9
-0.0023	0.006	-0.0046	0.003	-13.9
-0.0015	0.0075	-0.0038	0.0045	-13.9
-0.0008	0.0022	-0.0008	0.0022	-13.9
-0.0015	-0.0068	0.0037	-0.003	-13.9
-0.0038	-0.0105	0.0052	-0.0053	-13.9
-0.006	-0.0105	0.003	-0.0046	-13.9
-0.0068	-0.0068	0.0015	-0.003	-13.9
-0.0083	-0.0008	-0.0008	-0.0038	-13.9
-0.0091	-0.0008	-0.0023	-0.006	-13.9
-0.0105	-0.0008	-0.003	-0.0046	-13.9
-0.0105	0.0015	-0.0038	-0.0038	-13.9
-0.0091	0.0022	-0.0053	-0.0046	-13.9
-0.0098	0.0015	-0.0068	-0.003	-13.9
-0.0105	-0.003	-0.0083	0.0007	-13.9
-0.0098	-0.0091	-0.0083	-0.0023	-13.9
-0.0083	-0.0173	-0.0046	-0.0053	-13.9
-0.0015	-0.0165	0.0007	-0.0068	-13.9
0.0022	-0.0105	0.0037	-0.0083	-13.9
0.0015	-0.0091	0.006	-0.0008	-13.9
-0.0008	-0.0068	0.0037	0.0007	-13.9
-0.003	-0.0046	0.0022	0.0015	-13.9
-0.0038	-0.003	0.0007	0.003	-13.9
-0.0046	0.0015	-0.0008	0.003	-13.9
-0.003	0.0022	-0.0015	0.0075	-13.9
-0.0023	0.0082	-0.0023	0.012	-13.9
-0.0008	0.0135	-0.0023	0.0127	-13.9
0.0007	0.012	-0.0008	0.0105	-13.9
0	0.0067	0.0022	0.0067	-13.9
0.0007	-0.0008	0.003	0.0037	-13.9
0.0022	-0.0068	0.003	0.0045	-14
0.0052	-0.0053	0.0045	0.0082	-14
0.0052	0.0037	0.0015	0.0112	-14
0.0022	0.009	0.0007	0.0067	-14
0.0007	0.012	0.0015	-0.0046	-14
-0.003	0.006	-0.0008	-0.0046	-14
-0.003	-0.0075	-0.0008	0.0082	-14
-0.0046	-0.0165	0.0015	-0.0015	-14
-0.0038	-0.0181	0.0037	-0.0105	-14
-0.0038	-0.0105	0.0067	-0.0046	-14
-0.0038	-0.006	0.0067	-0.006	-14
-0.0008	-0.0038	0.0052	-0.0046	-14
-0.0008	0.003	0.0082	-0.0046	-14
0.0015	0.0037	0.0067	-0.0015	-14
0.003	0.003	0.0052	0.003	-14
0.003	0.0052	0.0052	0.003	-14
0.003	0.0007	0.0037	0.0007	-14
0.003	0	0.0022	-0.003	-14
0.0037	0	0.0037	-0.0038	-14
0.003	-0.003	0.0052	-0.0068	-14
0.0007	-0.0008	0.0052	-0.0046	-14
0	-0.0015	0.0045	-0.0023	-14
-0.0015	0.0022	0.003	-0.0008	-14
0	0.0045	0.003	-0.0046	-14
0.0007	-0.003	0.0052	-0.0083	-14
0.0007	-0.0023	0.0052	-0.006	-14
0.0045	-0.0038	0.0037	-0.0053	-14
0.003	-0.0053	0.0052	-0.0038	-14
0.003	0.0015	0.006	-0.006	-14
0.0022	0.012	0.003	-0.0053	-14
0.0007	0.018	0.003	-0.0038	-14.1
0.0037	0.0127	-0.0015	-0.0053	-14.1
0.0007	0.0045	-0.0046	-0.0015	-14.1
0	-0.0038	0	0.0007	-14.1
0	-0.0091	-0.0008	0.0007	-14.1
0	-0.0068	0.0007	0.012	-14.1
0.003	-0.0068	0.0015	0.015	-14.1
0.003	-0.012	-0.0008	0.003	-14.1
0.0037	-0.0128	-0.0038	0.0052	-14.1
0.003	-0.0135	-0.0046	0.0015	-14.1
0.0022	-0.015	-0.0038	-0.0046	-14.1
0.0015	-0.0091	-0.0015	-0.0008	-14.1
0.0007	-0.0008	-0.0015	0	-14.1
-0.0008	0.0052	-0.0015	-0.0015	-14.1
0.0007	0.0045	-0.0015	-0.0038	-14.1
0.0015	0.0022	-0.0015	-0.0008	-14.1
0.003	0.0037	0	0.003	-14.1
0.0045	0.0052	-0.0015	0.0045	-14.1
0.0045	0.0075	-0.0023	0.0045	-14.1
0.0045	0.003	0.0007	0.0015	-14.1
0.0022	0.0007	0.0015	0.0037	-14.1
0.0015	0.0067	0.003	0.0052	-14.1
-0.0008	0.009	0.003	0.0052	-14.1
-0.0023	0.009	-0.0008	0.0075	-14.1
-0.0008	0.0052	-0.0008	0.0052	-14.1
-0.0015	-0.003	0.0007	0.0015	-14.1
-0.0023	-0.0091	0.0022	-0.0038	-14.1
-0.0008	-0.0083	0.0067	-0.0075	-14.1
-0.0015	-0.006	0.0052	0	-14.1
-0.003	-0.0023	0.0037	0.0045	-14.1
-0.0046	0.0045	0.0015	0.0037	-14.1
-0.0046	0.006	0.0007	0.0075	-14.1
-0.0038	0.0105	0.0007	0.0082	-14.1
-0.003	0.0112	-0.0008	0.0075	-14.2
-0.0008	0.0045	0.0015	0.0045	-14.2
0.0015	-0.0068	0	-0.006	-14.2
0.0015	-0.0181	0.003	-0.0113	-14.2
0.0037	-0.0173	0.006	-0.0091	-14.2
0.003	-0.006	0.0022	-0.003	-14.2
0.0015	0.0022	0	-0.0008	-14.2
0.0045	-0.003	-0.0023	-0.0046	-14.3
0.003	-0.0075	-0.0015	-0.0008	-14.3
0.003	-0.0046	0	0.0015	-14.3
0.003	-0.0015	-0.0023	0.0015	-14.3
0.0007	0.003	-0.0023	0.0015	-14.3
0.0007	0.003	-0.003	-0.0015	-14.3
-0.0015	0.0052	-0.0008	-0.0015	-14.3
0	0.0052	0	-0.0008	-14.3
-0.0008	0.0052	0.0007	0.0022	-14.3
-0.0015	0	0.0045	0.0052	-14.3
-0.0015	-0.0143	0.0045	-0.0015	-14.3
-0.0023	-0.0278	0.009	-0.0105	-14.3
-0.0008	-0.0361	0.012	-0.012	-14.3
-0.0008	-0.03	0.012	-0.0083	-14.3
-0.0008	-0.0181	0.0067	-0.0023	-14.3
-0.0008	-0.0105	0.0007	-0.0015	-14.3
-0.0008	-0.003	-0.0008	-0.0015	-14.3
-0.0015	0.003	0.0007	-0.0023	-14.3
-0.003	0.0157	0.0015	0.0007	-14.3
-0.0023	0.0285	0.0015	0.0127	-14.3
-0.0023	0.0375	0.0007	0.0232	-14.4
-0.0038	0.0367	-0.0008	0.0135	-14.4
-0.0038	0.0232	-0.0015	0.0052	-14.4
-0.0015	0.0112	0.0007	-0.0008	-14.4
0.0015	0.0142	0.0015	-0.0046	-14.4
0.003	0.0172	0.0045	-0.0068	-14.4
0.0037	0.009	0.0037	-0.0098	-14.4
0.003	0.0045	0.0015	-0.0075	-14.4
0.003	-0.0248	0.0015	-0.0091	-14.4
0.0045	-0.0653	-0.0008	-0.0068	-14.4
0.0022	-0.0533	0.0015	-0.0046	-14.4
0.0015	-0.0128	0.0015	0	-14.4
0.003	0.0015	0.0007	0.0015	-14.5
0.003	0.0037	0.0015	0	-14.5
0.0015	0.0022	0	0.0045	-14.5
-0.0008	-0.0008	-0.0008	0	-14.5
-0.0023	-0.003	0.0007	-0.003	-14.5
-0.0015	-0.0083	0.0015	-0.003	-14.5
-0.0015	-0.0068	0.0007	-0.0008	-14.5
-0.0038	-0.0015	-0.0015	0.0015	-14.6
-0.0053	0.0045	-0.0015	0.0015	-14.6
-0.0023	0.0022	0	0.0007	-14.6
-0.0008	0.003	0.0015	0.0007	-14.6
0.0015	0.0067	0.0007	0.0022	-14.6
0.0022	0.0045	0	-0.0008	-14.7
-0.0008	0.0015	-0.0015	-0.003	-14.7
-0.0015	-0.0008	-0.0053	0	-14.7
0.0007	0	-0.003	0.0007	-14.7
0.0007	-0.0053	-0.0015	-0.0053	-14.7
-0.0008	-0.0105	0	-0.0068	-14.8
-0.0008	-0.0083	0.0015	-0.006	-14.8
0.0007	-0.0068	0.0015	-0.0015	-14.8
0.0022	-0.003	0.003	0.0045	-14.8
0.0007	0.0015	0.0015	0.0082	-14.8
0.0007	0.003	0	0.0112	-14.9
0.0007	0.0045	0.0015	0.0097	-14.9
-0.0015	0.0015	0.003	0.009	-14.9
-0.0015	-0.0015	0.0037	0.0067	-14.9
-0.0008	0	0.003	0.0045	-14.9
-0.0015	0.0037	0.0015	0.0015	-14.9
-0.003	-0.0008	0.0052	-0.0008	-15
-0.0038	-0.006	0.006	-0.003	-15
-0.003	-0.003	0.0082	-0.0068	-15
-0.0046	0.0015	0.0067	-0.006	-15
-0.003	0.0075	0.003	-0.006	-15
-0.003	0.0067	0.0015	-0.003	-15.1
-0.0008	0.0007	-0.0023	-0.003	-15.1
-0.0008	-0.0053	-0.003	-0.0046	-15.1
-0.0008	-0.0046	-0.0023	-0.0023	-15.2
-0.0008	0.003	-0.0008	0	-15.2
0	0.003	0.0007	0.0015	-15.2
0.0007	0.003	-0.0008	0.003	-15.3
0.0015	-0.0015	-0.0008	0.003	-15.3
0.0015	-0.0098	-0.0015	0.0007	-15.3
0.0007	-0.0083	0.0015	-0.0023	-15.3
0.0015	-0.0091	0.003	-0.0008	-15.3
0.0015	-0.0053	0.003	0.0037	-15.4
0.0007	0.0022	0.003	0.0045	-15.4
0.0007	0.0015	0.0022	0.0022	-15.4
0.0022	0.003	0.0015	0.0052	-15.4
0.0015	0.0037	-0.0008	0.0037	-15.5
0.0007	0.0007	-0.0015	0.0007	-15.5
0.0015	0.003	0	-0.0008	-15.6
0.0015	0.003	0.0015	-0.0046	-15.6
0.003	-0.0008	0.0015	-0.0053	-15.6
0.003	-0.0008	0.0037	-0.0015	-15.7
0.0007	0	0.0045	-0.003	-15.7
0.0007	-0.003	0.0052	-0.0008	-15.8
-0.0015	-0.0046	0.0067	0.0015	-15.8
-0.0015	-0.0023	0.0067	0.0045	-15.8
0.003	-0.0008	0.0075	0.006	-15.9
0.0022	-0.0008	0.003	0.0067	-15.9
0.0007	0.0007	0.0007	0.0052	-15.9
0.0015	0.0007	0.0007	0.0075	-16
0	0.0037	-0.0008	0.0082	-16
0.0007	0.0082	0.0007	0.0082	-16.1
0	0.0142	-0.0008	0.0082	-16.1
-0.003	0.0157	-0.0008	0.003	-16.1
-0.0015	0.0045	-0.0008	-0.003	-16.2
-0.0008	-0.0105	-0.0008	-0.0128	-16.2
0.0015	-0.0181	0.0022	-0.0135	-16.3
0.0022	-0.0105	0.0007	-0.0075	-16.3
0.0015	-0.006	-0.0023	-0.0046	-16.3
0.0007	-0.0046	-0.0046	0.0015	-16.4
0.003	0	-0.006	0.0052	-16.4
0.0045	0.0015	-0.0053	0.0045	-16.5
0.003	-0.003	-0.0046	-0.0023	-16.5
0.003	-0.0113	-0.0008	-0.003	-16.6
0.0037	-0.0091	0.0007	-0.0053	-16.6
0.0037	-0.0091	0.0015	-0.0083	-16.7
0.003	-0.0091	0.0007	-0.0068	-16.7
0.003	-0.006	-0.0008	-0.006	-16.8
0.0045	-0.0068	0.0022	-0.003	-16.8
0.003	-0.0053	0.0015	-0.0038	-16.9
0.003	-0.0023	0.0022	-0.0023	-16.9
0.0015	0.0015	0.003	-0.0038	-17
-0.0015	0.0015	0.0052	-0.0046	-17
-0.0046	0.003	0.0045	-0.0015	-17.1
-0.0053	0.009	0.0015	0.0015	-17.1
-0.006	0.0097	0.0007	0.0015	-17.1
-0.0068	0.0082	0.0007	0.0022	-17.2
-0.003	0.006	0.0007	0.0067	-17.2
-0.003	0.0022	0.0007	0.0052	-17.3
0	-0.0015	0.0007	0.006	-17.3
0.0015	0.0037	0.0015	0.0067	-17.4
0.0022	0.003	0.0015	0.0022	-17.4
0.0045	-0.0038	0.0037	0.0007	-17.5
0.003	-0.0105	0.0052	0	-17.5
0.0015	-0.0128	0.0082	-0.0008	-17.6
0.0037	-0.0053	0.009	0	-17.6
0.003	0.0007	0.0052	-0.0015	-17.7
0.0015	0.0045	0.003	-0.0008	-17.7
0.0015	0.0052	0.0022	0.003	-17.8
-0.0015	0.0052	0	0	-17.8
-0.0023	0.006	0	-0.003	-17.9
-0.003	0.0052	-0.0008	-0.0023	-17.9
-0.0046	0.0082	-0.0008	0.0007	-18
-0.0046	0.0097	0.0007	0.0045	-18
-0.0046	0.0037	-0.0008	0.0037	-18
-0.0053	-0.0053	0	0.003	-18.1
-0.006	-0.0128	0.0015	0.0015	-18.2
-0.0068	-0.024	0.003	-0.0038	-18.2
-0.0068	-0.0256	0.0052	-0.0008	-18.3
-0.006	-0.015	0.0052	0.0022	-18.4
-0.0046	-0.0068	0.0037	0.0015	-18.4
-0.003	-0.0038	0.0007	0.0037	-18.5
-0.0023	-0.0053	0.0015	0.0015	-18.5
0.0007	-0.0068	0.0022	0.003	-18.6
0.0015	-0.0053	0.0007	0.0067	-18.7
-0.0023	-0.0023	0.0015	0.0067	-18.8
-0.0038	0.0015	0.0015	0.0067	-18.8
-0.0046	0.0075	0.0007	0.003	-18.9
-0.0038	0.0082	0.0007	0.0015	-18.9
-0.003	0.006	-0.0015	0	-19
-0.003	0.003	-0.0046	-0.003	-19.1
-0.0015	-0.0023	-0.0046	-0.0038	-19.2
-0.0008	-0.0015	-0.0015	-0.0068	-19.2
0.0015	-0.0083	0.0015	-0.012	-19.3
0.003	-0.0091	0.0052	-0.0098	-19.4
0.0015	-0.0046	0.0067	-0.0053	-19.4
0.0015	-0.0053	0.0052	-0.0015	-19.5
0.0022	-0.0046	0.0037	-0.003	-19.6
-0.0008	-0.0046	0.0007	-0.0053	-19.7
0.0015	-0.0008	-0.003	-0.0023	-19.8
0.0015	0.0022	-0.0015	-0.0015	-19.8
0.0007	0.0052	0.0015	-0.0046	-19.9
0.0015	0.0127	0.0015	-0.003	-20
0.0015	0.0112	0.0015	0.0045	-20.1
0.0015	0.0067	0.0015	0.0127	-20.2
0.0015	0.006	0.0022	0.0097	-20.3
0.003	0.0045	0	0.012	-20.3
0.0022	0.0075	-0.0023	0.0157	-20.4
0.0022	0.0105	-0.0023	0.0127	-20.5
0.0045	0.0067	-0.0046	0.0112	-20.6
0.0022	0.0022	-0.0053	0.0007	-20.7
0.0037	-0.0015	-0.0038	-0.0046	-20.8
0.0045	0.0015	-0.0015	-0.0015	-20.8
0.0052	0.0045	-0.0015	-0.003	-20.9
0.0082	0.0015	-0.003	-0.003	-21
0.0052	-0.0023	-0.0008	-0.0083	-21.1
0.0045	-0.0091	0.003	-0.0068	-21.2
0.0037	-0.0098	0.0015	-0.003	-21.3
0.003	-0.0105	0.0022	-0.0015	-21.4
0.003	-0.0091	0.0052	0.0037	-21.5
0.0037	-0.0038	0.003	0.003	-21.6
0.0015	-0.0046	0.0015	0.0007	-21.7
-0.0015	-0.0053	0.0052	-0.003	-21.8
-0.0038	-0.0068	0.0067	-0.0091	-21.9
-0.0046	-0.0105	0.0045	-0.0128	-22
-0.0053	-0.0075	0.0045	-0.0143	-22.1
-0.003	-0.0015	0.0045	-0.015	-22.2
0	0.003	0.0007	-0.012	-22.3
0.0007	0.0045	0.0015	-0.0068	-22.4
-0.0008	0.0052	0.003	-0.0046	-22.5
-0.0008	0.0007	0.003	-0.0053	-22.6
-0.0008	-0.006	0.0067	-0.003	-22.7
0.0007	-0.0068	0.0052	-0.0008	-22.8
0.0022	-0.0038	0.003	0.0052	-22.9
0.0037	0.003	0.0015	0.0082	-23
0.0015	0	0	0.0082	-23.1
-0.0008	0.0007	0.0007	0.0165	-23.3
-0.0015	0.0052	-0.0008	0.015	-23.4
-0.0015	0.0022	-0.0008	0.0142	-23.4
-0.003	0.0045	-0.0023	0.015	-23.6
-0.0053	0.0067	-0.003	0.0142	-23.7
-0.0068	0.0082	-0.0015	0.0127	-23.8
-0.006	0.0067	-0.0053	0.006	-23.9
-0.0046	0.0045	-0.0046	0.0052	-24
-0.0046	0.0052	-0.0015	-0.0008	-24.2
-0.0038	0.0015	-0.003	-0.0046	-24.3
-0.0023	-0.0008	-0.0008	-0.0046	-24.4
0.0015	-0.003	0.0007	-0.006	-24.5
0.0007	-0.0015	0.0007	-0.003	-24.6
0.0015	-0.0023	0.0015	-0.0053	-24.8
0.003	-0.0091	0	-0.0105	-24.8
0.0015	-0.0203	-0.0008	-0.0091	-25
0.0022	-0.0293	0	-0.0075	-25.1
0.0015	-0.0248	0.0015	-0.003	-25.2
0.0022	-0.0181	0.0015	-0.0053	-25.3
0	-0.0128	-0.003	-0.0053	-25.4
-0.003	-0.0068	-0.0023	0.0045	-25.6
-0.0015	-0.0068	0.0015	0.012	-25.7
-0.0008	-0.0046	0.0015	0.0165	-25.8
-0.0008	-0.0008	0.0007	0.012	-25.9
-0.0008	0	0.0007	0.0045	-26
-0.0008	0.0045	0.0007	0.0045	-26.1
0.0007	0.0022	0.0015	0.0045	-26.3
-0.0008	-0.0053	0.0015	0	-26.4
-0.0023	-0.0098	0.0007	-0.0053	-26.5
-0.0008	-0.003	0.0015	-0.0075	-26.6
-0.0015	0.012	0.003	-0.0038	-26.7
0.0007	0.0232	0.0045	0.003	-26.9
0.003	0.0367	0.006	0.0112	-27
0.0007	0.0382	0.0045	0.0105	-27.1
0.0022	0.0255	0.0045	-0.003	-27.2
0.0022	0.003	0.006	-0.012	-27.3
0.003	-0.0218	0.009	-0.0075	-27.5
0.0052	-0.0203	0.0082	-0.0068	-27.5
0.0045	-0.0158	0.0052	-0.0091	-27.7
0.0007	-0.0181	0.003	-0.0098	-27.8
-0.0008	-0.0181	0.0015	-0.0023	-27.9
-0.0008	-0.021	0.0045	0.0052	-28
-0.0008	-0.0218	0.0015	0.0052	-28.1
-0.0015	-0.0113	0.0015	0.0052	-28.3
-0.0015	0	0.0022	0.0015	-28.4
-0.0023	0.0037	-0.0008	0.0007	-28.5
-0.003	0.0007	-0.0008	0.0015	-28.6
-0.0023	0.0022	-0.0008	-0.0023	-28.8
-0.0008	0.0082	0.0007	-0.0083	-28.8
-0.0015	0.0127	0.0007	-0.0105	-29
-0.003	0.018	0.0015	-0.0091	-29.1
-0.0046	0.0202	0.0037	-0.0143	-29.2
-0.0046	0.0202	0.0045	-0.0158	-29.3
-0.0015	0.012	0.0045	-0.0188	-29.4
-0.0015	-0.0091	0.0052	-0.0203	-29.6
0	-0.0195	0.006	-0.012	-29.7
-0.0015	-0.0143	0.003	-0.0038	-29.8
-0.0008	-0.0158	0	-0.0008	-29.9
-0.0008	-0.0173	0	0.0015	-30.1
-0.003	-0.0218	-0.003	0.0045	-30.2
-0.0008	-0.0225	-0.003	0.0067	-30.3
-0.0008	-0.0158	-0.0015	0.0045	-30.4
-0.0015	-0.0113	-0.003	-0.0015	-30.5
-0.0008	-0.0053	-0.003	0.003	-30.6
0.0007	-0.0023	-0.0038	0.0127	-30.7
-0.0008	-0.0015	-0.003	0.0165	-30.9
-0.0008	0.0037	0	0.0232	-31
0.0022	0.0187	0.0015	0.0337	-31.1
0.003	0.0292	0.0022	0.0397	-31.2
0.0015	0.0232	0.0015	0.039	-31.3
0.0007	0.0165	0.003	0.0352	-31.4
0.0022	0.0112	0.0045	0.0277	-31.5
0.003	0.012	0.006	0.0202	-31.6
0.0037	0.0142	0.0045	0.0082	-31.8
0.0067	0.003	0.0045	-0.006	-31.9
0.0067	0.003	0.0052	-0.0105	-32
0.0052	0.012	0.0067	-0.0165	-32.1
0.0045	0.0105	0.0097	-0.0173	-32.2
0.0037	0.0105	0.0082	-0.0143	-32.3
0.003	0.0067	0.0045	-0.012	-32.4
0.0022	0.0007	0.0007	-0.0091	-32.6
0.0007	-0.0053	0.0007	-0.0091	-32.6
-0.0015	-0.0105	0.0007	-0.012	-32.8
-0.0015	-0.0181	0.0007	-0.0188	-32.9
-0.0015	-0.027	0.0015	-0.0173	-33
-0.0015	-0.0315	0.0007	-0.015	-33.1
0.0007	-0.0293	-0.0008	-0.0143	-33.2
0.0007	-0.0181	0.0007	-0.0105	-33.3
0	-0.0046	0.0015	-0.015	-33.4
0	0.0067	0.0015	-0.0203	-33.5
0.0007	0.015	0.0007	-0.0225	-33.7
0.0015	0.018	-0.0015	-0.0218	-33.8
0.0045	0.0082	-0.0046	-0.0158	-33.8
0.0045	-0.0008	-0.0046	-0.0083	-34
0.003	0.0015	-0.0015	0.003	-34.1
0.0052	0.0075	0.0007	0.0165	-34.2
0.0052	0.0052	0.0007	0.0217	-34.3
0.003	-0.0008	0.0007	0.0277	-34.4
0.003	-0.0091	0.003	0.0277	-34.5
0.0007	-0.0053	0	0.0345	-34.7
-0.0008	0.018	-0.0023	0.0457	-34.8
-0.0008	0.0292	-0.003	0.0457	-34.8
0.0007	0.0345	-0.0053	0.045	-35
-0.003	0.0225	-0.0053	0.027	-35.1
-0.0046	-0.0015	-0.0053	0.0097	-35.1
-0.0053	-0.0128	-0.0046	-0.0068	-35.3
-0.0046	-0.0285	0.0022	-0.0218	-35.4
-0.003	-0.0263	0.0022	-0.021	-35.5
-0.003	-0.0098	0.0015	-0.021	-35.6
0	-0.0091	-0.0008	-0.0195	-35.7
0.0007	-0.0068	-0.003	-0.0128	-35.8
-0.0008	-0.012	-0.0015	-0.0158	-35.9
-0.0015	-0.0195	0.0007	-0.0225	-36
-0.0015	-0.0135	0.003	-0.0203	-36.1
-0.0015	-0.0046	0.0007	-0.0203	-36.2
-0.0015	-0.0053	0.0015	-0.0195	-36.3
-0.0015	-0.0128	0.003	-0.0181	-36.5
-0.0008	-0.0218	0.003	-0.0165	-36.5
0.003	-0.0203	0.003	-0.0068	-36.6
0.0015	-0.0068	0.003	-0.003	-36.8
0.0007	0.003	0.0007	0.0015	-36.9
0.0015	0.0067	0.0007	0.0015	-36.9
0.0015	0.0142	0.003	0.0007	-37.1
0.003	0.021	0.003	0.0007	-37.2
0.0045	0.0127	0.0037	-0.0053	-37.3
0.003	0.0007	0.0045	-0.0068	-37.4
0	-0.0068	0.0045	-0.0091	-37.5
0.0007	0	0.0015	-0.0015	-37.6
0.0037	0.015	-0.0023	0.0045	-37.8
0.0015	0.0165	0	0.0037	-37.8
-0.0008	0.0067	0.0007	0.0022	-38
0	-0.003	0.0022	0.0015	-38.1
-0.0008	-0.0135	0.0067	0.0037	-38.2
-0.0015	-0.0203	0.0067	0.0195	-38.3
-0.0008	-0.0143	0.0045	0.0322	-38.4
-0.0023	-0.0083	0.0045	0.0322	-38.5
-0.0023	-0.0105	0.0015	0.0345	-38.6
-0.0023	-0.0105	-0.0015	0.0255	-38.7
-0.0038	-0.0091	0.0007	0.0142	-38.8
-0.0038	-0.0143	0.003	0	-39
-0.003	-0.0218	0.0045	-0.0135	-39.1
0.0007	-0.0195	0.0067	-0.0128	-39.2
0	0.0067	0.0045	-0.0083	-39.3
-0.0015	0.0285	0	-0.0091	-39.4
-0.0008	0.039	-0.0015	-0.0195	-39.5
-0.0008	0.0337	-0.0015	-0.0428	-39.6
0.0007	0.0037	0.003	-0.0638	-39.7
0.0007	-0.0083	0.006	-0.0428	-39.8
-0.0015	-0.0105	0.0007	-0.012	-40
-0.0008	-0.0105	-0.0008	0.0097	-40.1
-0.0015	-0.003	0.0007	0.0292	-40.2
-0.0015	-0.0008	0.0007	0.0292	-40.3
-0.0008	0.0127	0.003	0.0277	-40.4
0	0.024	0.0037	0.0307	-40.5
0.0022	0.0367	0.0037	0.0367	-40.6
0.0015	0.0405	0.0007	0.0367	-40.7
0.0015	0.0135	0.0015	0.024	-40.8
0.0022	-0.0158	0.0052	0.024	-41
0.0037	-0.024	0.0052	0.0337	-41
0.0037	-0.006	0.0052	0.012	-41.2
0.0022	-0.0091	0.0045	-0.0135	-41.3
0.003	-0.0105	0.0015	-0.015	-41.4
0.0007	0.0105	-0.0008	-0.0173	-41.5
-0.003	0.0105	0	-0.0135	-41.6
-0.0053	-0.0105	-0.003	-0.0128	-41.7
-0.0068	-0.0346	-0.0038	0.0127	-41.8
-0.0053	-0.0383	-0.0008	0.0517	-41.9
-0.0038	-0.0353	-0.003	0.0435	-42
-0.0023	-0.0248	-0.0015	0.0045	-42.2
-0.0015	-0.0008	-0.0008	-0.0165	-42.3
0.0007	0.0075	0	-0.0091	-42.4
0.0007	-0.0105	-0.0015	-0.0083	-42.5
0.0022	-0.0375	-0.0046	-0.0308	-42.6
0.0015	-0.042	-0.0008	-0.042	-42.7
0	-0.0278	0.0015	-0.0428	-42.8
0.0007	-0.0218	0.0067	-0.0465	-42.9
0.0007	-0.0173	0.006	-0.0308	-43
0.0007	-0.006	0.0052	-0.0248	-43.2
0.0037	-0.0046	0.009	-0.024	-43.2
0.0052	-0.003	0.006	-0.0195	-43.4
0.0045	-0.003	0.0052	-0.003	-43.5
0.0045	0.0052	0.0045	0.0285	-43.6
0.0045	0.0217	0.0015	0.021	-43.7
0.0022	0.0247	0.0015	0.006	-43.8
0.0022	0.027	0.0022	0	-43.9
0.003	0.0195	0.0015	-0.0105	-44
0	0.027	0.0022	-0.0038	-44.1
0.0007	0.0532	0.0015	0.0022	-44.2
0.0015	0.0652	-0.0008	0.0157	-44.3
-0.0008	0.0502	-0.0008	0.018	-44.4
0.0007	0.0165	-0.0008	0.0097	-44.5
0.0052	-0.0091	0.0015	0.0105	-44.6
0.006	-0.0091	0.003	0.0067	-44.7
0.0052	-0.0143	0.0007	0.0135	-44.8
0.003	-0.0165	0.0007	0.0292	-44.9
0.0007	-0.0015	0.0015	0.0322	-45
-0.0023	-0.0015	0.0022	0.0142	-45.1
-0.0023	0.0007	0.0015	0.006	-45.2
-0.0023	0	0.0045	0.0015	-45.3
-0.0008	0.0015	0.0052	0.0045	-45.5
-0.0008	0.0075	0.0015	0.0037	-45.6
-0.0008	-0.003	0.0015	-0.0091	-45.6
-0.0015	-0.0068	0	-0.0083	-45.7
-0.003	-0.0091	-0.003	-0.0181	-45.9
-0.0015	-0.003	-0.0053	-0.0165	-45.9
-0.0046	0.0007	-0.003	-0.0188	-46
-0.0046	-0.012	0.0045	-0.0203	-46.1
-0.0023	-0.0128	0.006	-0.0008	-46.3
-0.0008	-0.0083	0.006	0.0187	-46.4
0	0	0.0015	0.0292	-46.4
0.0007	-0.0053	-0.0023	0.003	-46.6
0	-0.0188	-0.003	-0.015	-46.7
-0.0008	-0.03	-0.0023	-0.0165	-46.8
-0.0008	-0.0158	0.0015	-0.0068	-46.8
-0.0008	0.0172	0.0022	-0.0008	-47
-0.003	0.0315	0.0082	-0.0091	-47.1
-0.0038	0.033	0.0045	-0.0046	-47.2
-0.0023	0.0195	-0.0008	-0.0038	-47.3
-0.0015	0.0022	-0.0015	0.0105	-47.4
-0.0046	-0.021	-0.0053	0.0315	-47.5
-0.0046	-0.042	-0.0046	0.033	-47.6
-0.0015	-0.048	-0.0008	0.0307	-47.7
-0.0008	-0.054	0.003	0.024	-47.7
-0.0008	-0.0525	0.0007	0.0127	-47.9
0.0022	-0.048	0.0007	-0.0046	-48
0.003	-0.0285	0.0045	-0.0128	-48.1
0.0007	-0.0128	0.0015	-0.024	-48.2
0.0007	-0.0046	0.003	-0.042	-48.2
-0.003	0.0127	0.0007	-0.0398	-48.4
-0.006	0.0255	-0.0015	-0.0315	-48.5
-0.0046	0.0292	-0.003	-0.0218	-48.6
-0.0046	0.0307	-0.003	-0.0083	-48.6
-0.0038	0.0427	-0.0008	0.0067	-48.7
-0.0046	0.0547	-0.0015	0.0495	-48.9
-0.0008	0.0427	0.0037	0.1147	-49
0.003	0.018	0.0052	0.135	-49.1
0.0022	-0.006	0.0045	0.0667	-49.1
0.0007	-0.0158	0	0.015	-49.2
-0.0008	-0.0015	-0.0053	-0.0038	-49.4
0.0015	-0.0068	-0.003	-0.0285	-49.5
0.0045	-0.0143	-0.0008	-0.0278	-49.6
0.003	-0.015	0.0015	-0.0368	-49.6
0.003	-0.0218	0.0045	-0.0368	-49.7
0.0022	-0.0233	0.0052	-0.03	-49.8
0.003	-0.0233	0.0052	-0.0278	-49.9
0.003	-0.0083	0.0037	-0.0181	-50
0.003	-0.0046	0.003	-0.0278	-50.1
0.0022	-0.0075	0.0007	-0.0278	-50.2
-0.0008	0.0067	-0.0038	-0.0203	-50.3
0	0.0187	-0.003	-0.0165	-50.4
0.0007	0.015	-0.0023	-0.012	-50.5
-0.0008	0.012	-0.0008	-0.012	-50.6
0.0037	0.0157	0.0015	-0.0083	-50.7
0.0052	0.015	0.0037	-0.0068	-50.8
0.0045	0.0135	0.0045	-0.006	-50.9
0.0045	0.0082	0.0045	-0.0068	-51
0.0052	0.0082	0.0052	-0.0075	-51.1
0.0045	0.0067	0.009	-0.006	-51.2
0.003	-0.0008	0.0067	-0.0068	-51.3
0	-0.0068	0.0052	-0.0053	-51.3
0	-0.0046	0.0037	-0.0053	-51.5
0.0007	0.0015	0.0015	-0.0105	-51.5
-0.0008	-0.0008	0.0037	-0.0113	-51.6
0.0015	-0.0008	0.0007	-0.0098	-51.7
0.0015	0	0.0015	-0.0091	-51.8
-0.0008	-0.003	0.0007	-0.003	-51.9
-0.0023	-0.0008	0	0.0052	-52
-0.0015	0.0105	0.0015	0.0172	-52.1
-0.0015	0.0247	0.0022	0.0277	-52.2
-0.0023	0.024	0.0037	0.033	-52.3
-0.0015	0.015	0.0007	0.015	-52.4
-0.0015	0.0045	-0.0015	-0.0046	-52.5
-0.0038	0.0007	-0.0008	-0.0046	-52.6
-0.0046	-0.0105	0.0015	-0.0053	-52.7
-0.0015	-0.0165	0.0045	0.0045	-52.8
0.0007	0.0015	0.0015	0.0135	-52.9
-0.0015	-0.0008	-0.0023	0.0217	-53
-0.0008	-0.0135	-0.0015	0.0157	-53.1
-0.003	-0.0165	0.0007	0.0112	-53.2
-0.0008	-0.0143	0.0007	0.0165	-53.3
0.0007	-0.0128	0.0015	0.0165	-53.4
0.0015	-0.0233	0.003	0.021	-53.5
0.0045	-0.0233	0.0022	0.0112	-53.6
0.0045	-0.0135	0	0.0052	-53.6
0.0045	-0.0128	-0.0008	-0.0113	-53.7
0.0045	-0.0203	-0.0008	-0.0293	-53.8
0.0052	-0.024	-0.003	-0.0293	-53.9
0.003	-0.0203	-0.0015	-0.0315	-54
0.0015	-0.0143	-0.0008	-0.0308	-54.1
-0.0008	-0.0083	-0.0015	-0.0315	-54.2
0	0.0022	-0.0008	-0.027	-54.3
-0.0015	0.024	-0.0015	-0.0113	-54.4
-0.0015	0.039	-0.0015	0.012	-54.5
0.0015	0.033	-0.0008	0.0262	-54.5
0.0007	0.003	0.0015	0.0255	-54.6
-0.0008	-0.0233	0.003	0.018	-54.7
-0.0008	-0.027	0.003	0.009	-54.8
0	-0.0315	0.0022	0.0045	-54.9
0.0022	-0.0308	0.0007	0.0052	-55
0.0015	-0.0195	0.0015	0.0105	-55.1
0	-0.015	0.003	0.0045	-55.2
-0.003	-0.0053	0.0052	0.0082	-55.3
-0.0038	0.018	0.0037	0.0195	-55.4
-0.0046	0.039	0.003	0.0292	-55.4
-0.0053	0.0397	0.0045	0.027	-55.5
-0.0053	0.0217	0.003	0.0045	-55.6
-0.0015	-0.0038	0.0067	-0.0053	-55.7
-0.0008	-0.027	0.0045	-0.0165	-55.8
0.0007	-0.0293	0.0007	-0.0218	-55.9
-0.0023	-0.0181	0	-0.0195	-56
-0.0053	0.003	0.0007	-0.0098	-56.1
-0.0023	0.0337	0.006	-0.0015	-56.2
-0.0008	0.06	0.0052	0.0007	-56.3
-0.0015	0.0592	0.0045	0.0307	-56.4
-0.003	0.0375	0.0045	0.066	-56.5
-0.0053	0.0142	0.0015	0.0532	-56.6
-0.0046	-0.0053	0.0015	-0.0015	-56.7
-0.0023	-0.012	-0.0008	-0.0083	-56.7
-0.0046	-0.0158	-0.0015	-0.0181	-56.8
-0.0008	-0.0338	0.0007	-0.0443	-56.9
0.0007	-0.0428	-0.0015	-0.0285	-57.1
0.0007	-0.0383	-0.0008	-0.0353	-57.1
0.0037	-0.03	0.0007	-0.033	-57.2
0.0015	-0.0195	-0.0008	-0.0293	-57.3
0.003	-0.0091	0.0015	-0.0285	-57.4
0.003	0.0022	0.0007	-0.0233	-57.5
0.0022	0.0105	-0.0008	-0.027	-57.6
0.0015	0.0202	-0.0015	-0.0158	-57.6
0.0007	0.0225	-0.0023	-0.0075	-57.7
0.0015	0.0217	0.0015	0.0135	-57.8
0.0015	0.021	-0.0008	0.024	-57.9
0.003	0.0045	-0.0015	0.027	-58
0.003	-0.0008	-0.0015	0.0397	-58.1
0.0007	-0.0008	-0.0023	0.0427	-58.1
0	-0.0188	0.0015	0.0232	-58.2
-0.0008	-0.0278	0.003	0.0045	-58.3
0.0007	-0.0285	0.0045	-0.0053	-58.4
0	-0.0315	0.003	-0.0195	-58.5
0.0007	-0.0195	-0.0008	-0.0143	-58.6
-0.0008	0.0015	-0.0015	-0.012	-58.7
-0.0008	0.0157	-0.0008	-0.0068	-58.8
-0.0015	0.0255	0.0007	0.003	-58.9
0	0.027	0.0015	-0.0015	-59
-0.0008	0.0292	0.003	-0.0038	-59
-0.0015	0.0292	0.0045	-0.0068	-59.1
-0.0015	0.018	0.0015	-0.0068	-59.2
-0.0023	0.0112	0.003	-0.0098	-59.3
-0.0015	0.0045	0.0045	0.0037	-59.4
-0.0015	-0.0023	0.0052	0.0157	-59.4
-0.0015	-0.0165	0.0045	-0.0105	-59.5
-0.003	-0.027	0.003	-0.0203	-59.6
-0.0015	-0.0091	0.0067	-0.006	-59.7
0.0015	-0.0008	0.0037	0.0052	-59.8
0.0037	-0.003	0.003	0.018	-59.9
0.0045	-0.0068	0.003	0.021	-59.9
0.0052	-0.0158	0.0015	0.0202	-60
0.0052	-0.0053	0.0045	0.0262	-60.1
0.0045	0.0135	0.0015	0.0315	-60.2
0.003	0.0255	0.0015	0.0345	-60.3
0.003	0.0232	0.0037	0.0225	-60.3
0.0007	-0.0008	0.0045	0.003	-60.5
-0.0023	-0.0225	0.0045	0.0007	-60.5
-0.0015	-0.0105	0.003	0.0052	-60.6
0.0007	0.0007	0.0022	-0.0188	-60.7
-0.0023	-0.0181	0.0007	-0.0398	-60.8
-0.0015	-0.033	0.0007	-0.0443	-60.8
-0.0038	-0.0428	-0.0008	-0.045	-60.9
-0.0053	-0.0458	0.0015	-0.0256	-61
-0.0015	-0.0278	0.0015	-0.012	-61.1
-0.0038	-0.0105	-0.0023	-0.012	-61.2
-0.0046	0.003	-0.0053	-0.012	-61.2
-0.0008	0.0292	-0.0053	-0.0091	-61.3
-0.0008	0.0217	-0.0015	-0.003	-61.4
-0.0008	0.0067	0.0007	0.0157	-61.5
0.0015	0.009	0.0022	0.0082	-61.6
0.003	0.0052	0.003	-0.0023	-61.6
0.0037	0.0157	0.0015	0.0225	-61.7
0.0037	0.0127	-0.0015	0.0142	-61.8
0.0037	0.0082	-0.0015	0.0112	-61.9
0.003	0	-0.0015	0.0142	-61.9
0.0022	-0.0218	-0.0008	0.009	-62.1
0.0037	-0.015	0.0015	0.0195	-62.1
0.0045	0.0015	0.0007	0.0172	-62.1
0.003	-0.0053	0	0.009	-62.2
0.0015	-0.0105	-0.0015	-0.0075	-62.3
0.0007	-0.0053	0.0007	-0.0203	-62.4
0.0037	0.015	0.0022	-0.0256	-62.5
0.003	0.0502	-0.0023	-0.0128	-62.6
0	0.06	-0.0008	0.0142	-62.6
0.0015	0.0337	0.0007	0.0195	-62.7
-0.0008	-0.012	0.0007	0.0052	-62.8
-0.003	-0.0233	0.0045	-0.0046	-62.8
-0.0053	-0.0165	0.0037	0.012	-62.9
-0.0053	-0.0368	0.003	0.0277	-63
-0.0023	-0.054	0.0037	0.024	-63
-0.0038	-0.057	0.003	0.0255	-63.1
-0.003	-0.0511	0.003	0.0165	-63.2
-0.0015	-0.0278	0.0037	0.0052	-63.3
-0.0008	0.0165	0.0015	0.0007	-63.4
-0.0015	0.0337	-0.003	0.003	-63.4
-0.0038	0.0322	-0.0068	0.0022	-63.5
-0.0023	0.0322	-0.003	-0.03	-63.6
-0.0015	0.0255	0.0007	-0.0428	-63.6
0	0.0165	0.0037	-0.0361	-63.7
0.0007	0.0255	0.0067	-0.0165	-63.8
-0.0008	0.0472	0.0052	0.0045	-63.9
-0.0008	0.0375	0.0037	0.0127	-63.9
-0.0015	0.0217	0.0015	0.0262	-64
-0.0053	-0.0008	0	0.0135	-64.1
-0.0053	-0.015	0.0015	0.0082	-64.2
-0.0068	-0.0203	0.0015	0.0052	-64.3
-0.0046	-0.0233	0.0022	-0.0091	-64.3
-0.0008	-0.0165	0.0015	-0.0135	-64.4
0.0007	-0.0248	0.0007	-0.024	-64.4
0.0015	-0.027	0.0007	-0.027	-64.5
0.0007	-0.0218	0.0007	-0.024	-64.6
-0.0008	-0.0098	0.0007	-0.0158	-64.7
0	-0.0046	0.0015	-0.0105	-64.8
0.0007	-0.0091	-0.0008	-0.0083	-64.8
0.0007	-0.0105	-0.0015	-0.0046	-64.9
0.0007	-0.0105	-0.0023	-0.0046	-65
-0.0008	-0.0098	-0.0015	-0.0038	-65.1
0.0007	-0.0143	-0.0008	-0.0128	-65.1
0.0015	-0.0128	0.0007	-0.0158	-65.2
0.0067	-0.015	0.0045	-0.0165	-65.3
0.0112	-0.0083	0.0052	-0.0053	-65.3
0.012	0.012	0.0045	0.015	-65.4
0.0112	0.0037	0.0052	0.0195	-65.5
0.0082	-0.0165	0.0045	0.0172	-65.5
0.0052	-0.0046	0.003	0.027	-65.6
0.0045	0.018	-0.0023	0.0375	-65.7
0.0015	0.0307	-0.003	0.027	-65.7
-0.0015	0.0247	-0.0015	0.0217	-65.8
-0.0015	0.0195	-0.0015	0.0322	-65.9
-0.0015	0.0337	-0.0015	0.0157	-66
-0.0008	0.0307	-0.0008	-0.0158	-66
-0.003	0.027	-0.003	-0.0105	-66.1
-0.0075	0.018	-0.0068	-0.0143	-66.2
-0.0046	-0.0143	-0.0053	-0.0361	-66.2
-0.0015	-0.0361	-0.0023	-0.0346	-66.3
-0.0008	-0.0383	0.0022	-0.033	-66.4
0.0007	-0.0315	0.0052	-0.0293	-66.4
0.0022	-0.0225	0.0045	-0.0293	-66.5
0.0015	-0.0158	0.0052	-0.0188	-66.6
0.0015	-0.0218	0.0067	0.0007	-66.6
0.0045	-0.0203	0.0067	0.0195	-66.7
0.0045	0.0007	0.0052	0.0427	-66.7
0.0067	0.0105	0.0052	0.054	-66.8
0.0052	0.015	0.0045	0.057	-66.9
0.0015	0.0232	0.0045	0.0472	-67
0.0015	0.0232	0.0045	0.0405	-67
-0.0023	0.0232	0.006	0.036	-67.1
-0.0038	0.0277	0.0067	0.0217	-67.1
-0.0046	0.027	0.0037	0.0045	-67.2
-0.0068	-0.0023	0.0015	-0.0143	-67.3
-0.006	-0.0398	0.0022	-0.0233	-67.3
-0.0038	-0.0375	0.0045	-0.0143	-67.4
-0.0015	-0.0188	0.003	-0.0075	-67.5
0.0007	-0.0105	0.0022	-0.0181	-67.5
0.0007	-0.0091	0.0015	-0.0143	-67.6
-0.0008	-0.0218	0.0007	-0.0165	-67.7
-0.0008	-0.0105	0.0015	-0.0105	-67.7
0.0007	0.0052	0.0007	0.0112	-67.8
0.0022	0.0142	0.0015	-0.0091	-67.9
0.0045	0.033	0.0007	-0.0158	-67.9
0.0022	0.021	-0.0023	-0.006	-68
-0.0008	-0.0068	-0.003	-0.0248	-68
-0.0015	-0.015	-0.0046	-0.0278	-68.1
-0.0015	-0.0143	-0.003	-0.0413	-68.2
-0.0008	-0.0068	-0.003	-0.0518	-68.3
-0.0008	-0.0091	-0.0023	-0.0368	-68.3
-0.0008	-0.0165	0.0007	-0.0315	-68.4
0.0007	-0.0091	0	-0.0256	-68.4
0.0007	-0.0113	-0.0015	-0.0181	-68.5
0.0007	-0.0323	-0.0015	0.0007	-68.6
0.0015	-0.0135	-0.0015	0.0352	-68.7
0.0015	0.0082	-0.0008	0.0585	-68.7
0.0007	0.0045	0.0007	0.0727	-68.8
0.0007	0.0097	0.0007	0.0667	-68.9
0.0007	0.0097	0.0007	0.048	-68.9
0	0.0165	-0.0015	0.036	-69
-0.0015	0.024	-0.0046	0.0187	-69
-0.0023	0.0322	-0.0038	0.0232	-69.1
-0.0038	0.0442	-0.0015	0.0202	-69.2
-0.0038	0.0457	0.0037	0.0045	-69.3
-0.0046	0.0397	0.0045	0.0045	-69.3
-0.006	0.0202	0.003	0	-69.4
-0.003	-0.0015	0.003	-0.0105	-69.4
-0.0038	-0.0083	0.003	-0.0165	-69.5
-0.003	-0.0256	0.0045	-0.0158	-69.6
0.0022	-0.0518	0.0045	-0.0173	-69.7
0.0045	-0.0638	0.003	-0.0263	-69.7
0.0045	-0.0511	0.003	-0.0188	-69.8
0.0045	-0.0233	0.003	-0.0098	-69.8
0	-0.012	0.0045	-0.0165	-69.9
0.003	-0.0068	0.0045	-0.0098	-70
0.0037	0.0045	0.003	0.003	-70
0.0037	0.0082	0.003	0.0067	-70.1
0.006	0.0045	0.0015	0.012	-70.2
0.0045	0.0097	-0.003	0.0187	-70.2
0.0052	0.009	-0.003	0.027	-70.3
0.0022	-0.0008	-0.0023	0.021	-70.3
0	-0.0158	-0.0008	0.0052	-70.4
0.0007	-0.0195	0.003	-0.0023	-70.5
0.0015	-0.015	0.0007	-0.012	-70.6
0	-0.0256	-0.0008	-0.015	-70.7
-0.0008	-0.0143	-0.0008	-0.0181	-70.7
-0.0015	0.0082	0.0015	-0.0315	-70.7
-0.0015	0.0202	0.0045	-0.0346	-70.8
-0.0008	0.0315	0.003	-0.0353	-70.9
-0.0008	0.0127	-0.0008	-0.0368	-71
-0.0046	-0.0008	0.0007	-0.0218	-71
-0.0038	0.0015	0.0007	0.0067	-71.1
-0.0015	-0.0181	0.0007	0.018	-71.2
-0.0015	-0.0278	0.0015	0.0202	-71.2
0.0007	0.009	0.0045	0.0135	-71.3
-0.0008	0.0427	0.006	0.006	-71.4
-0.0038	0.0412	0.0045	0.0127	-71.4
-0.006	0.0135	0.003	-0.0218	-71.5
-0.0083	-0.0015	0.003	-0.0533	-71.6
-0.0068	0.0007	0.0052	-0.039	-71.7
-0.0046	-0.0278	0.0052	-0.0256	-71.7
-0.0008	-0.0375	0.0067	-0.0143	-71.8
0.0007	-0.0233	0.009	0.0097	-71.9
-0.0008	-0.0165	0.0045	0.0195	-71.9
-0.0038	0.0127	0	0.0382	-72
-0.0038	0.0405	-0.0015	0.0585	-72
-0.0046	0.0292	0	0.0547	-72.1
-0.0038	0.0412	0.0045	0.057	-72.2
0.0015	0.0667	0.003	0.042	-72.3
0.0007	0.0525	0.0007	0.0112	-72.3
0.003	0.0277	-0.0015	-0.003	-72.4
0.0015	-0.003	-0.0046	-0.0068	-72.5
-0.0008	-0.042	-0.0091	-0.0008	-72.5
0.0015	-0.0728	-0.0075	0.0112	-72.6
0.003	-0.0668	-0.0015	0	-72.7
0.0067	-0.0443	-0.0008	-0.003	-72.7
0.0067	-0.033	0.003	0.0037	-72.8
0.0052	-0.0173	0.0067	0.027	-72.9
0.0045	0.012	0.0075	0.0352	-72.9
0.0015	0.0232	0.0037	0.0112	-73
-0.0008	0.018	0	-0.0015	-73.1
-0.0038	0.03	0.0037	-0.003	-73.1
-0.0015	0.0495	0.0052	0.0067	-73.2
0	0.0727	0.006	-0.0008	-73.3
-0.0015	0.0615	0.006	-0.015	-73.4
0	0.0195	0.003	-0.0256	-73.4
-0.0008	-0.0068	0.0015	-0.0308	-73.5
0	-0.0353	-0.0008	-0.0368	-73.6
0	-0.0511	-0.0008	-0.0428	-73.7
0.0007	-0.0653	-0.0015	-0.0428	-73.8
0.0015	-0.075	-0.0008	-0.045	-73.8
0.003	-0.0653	0.0007	-0.0405	-73.9
0.003	-0.054	0.0007	-0.027	-73.9
0.0007	-0.0353	0.0015	-0.012	-74
0	-0.0173	-0.0008	-0.0091	-74.1
0.003	0.003	0.0007	-0.0188	-74.2
0.003	0.0097	0.0007	-0.0353	-74.3
-0.0015	0.015	0.0007	-0.0173	-74.3
-0.0015	0.021	0.0022	-0.003	-74.4
-0.0046	0.0202	0	0.0075	-74.5
-0.0046	0.0165	0.0007	0.0232	-74.6
-0.0008	-0.0075	-0.0008	0.0292	-74.6
-0.0023	-0.0308	-0.0015	0.0465	-74.7
-0.0015	-0.0346	-0.0008	0.0645	-74.8
-0.0008	-0.0083	-0.0008	0.0817	-74.8
-0.0015	0.0262	0.0022	0.0615	-74.9
-0.0015	0.0405	0.003	0.0315	-75
-0.0015	0.0405	0.0022	0.0045	-75.1
-0.0008	0.012	-0.0008	-0.0233	-75.2
-0.0023	0.006	-0.0038	-0.0203	-75.2
-0.0023	0.012	-0.0023	-0.0195	-75.3
-0.0008	-0.0008	-0.0053	-0.0218	-75.4
0.003	0.0015	-0.003	-0.0195	-75.4
0.0075	-0.021	-0.0015	-0.0165	-75.5
0.0082	-0.0263	-0.0038	-0.0218	-75.6
0.0067	-0.0105	-0.0015	-0.0256	-75.6
0.0075	-0.021	0.0007	-0.0203	-75.7
0.0052	-0.03	0.0045	-0.0128	-75.8
0.003	-0.0218	0.0082	-0.0008	-75.9
0.0015	0.0007	0.0075	-0.003	-76
-0.0008	-0.0091	0.0067	0.0105	-76.1
-0.003	-0.0263	0.006	0.0135	-76.1
-0.003	-0.0173	0.006	-0.0023	-76.2
0.0015	0.0067	0.0052	-0.0008	-76.3
0.0037	0.018	0.003	-0.0203	-76.4
0.003	0.0007	0.0022	-0.0353	-76.5
0.0015	0.0105	0.003	-0.024	-76.5
0.0022	0.027	0.003	0.0007	-76.6
0.003	0.0435	0.0045	0.0202	-76.7
0.0015	0.0577	0.0045	0.0345	-76.8
-0.0015	0.0855	0.0045	0.0577	-76.9
-0.0053	0.0975	0.0045	0.0697	-77
-0.0015	0.0592	0.0052	0.075	-77.1
0.0007	0.0345	0.0052	0.0765	-77.2
-0.0015	0.0037	0.0022	0.048	-77.3
-0.003	-0.027	-0.0008	0.006	-77.3
-0.0053	-0.0315	-0.003	-0.0075	-77.4
-0.006	-0.048	-0.0046	-0.0188	-77.5
-0.0053	-0.057	-0.0046	-0.0233	-77.6
-0.0008	-0.0443	-0.003	-0.0338	-77.7
0.0007	-0.0323	-0.003	-0.0503	-77.8
0.0007	-0.0195	-0.0023	-0.0465	-77.9
0.0037	-0.021	0.0015	-0.0338	-77.9
0.0052	-0.0256	0.0045	-0.0256	-78
0.003	-0.0293	0.0022	-0.0405	-78.1
-0.0015	-0.0436	-0.0015	-0.0443	-78.2
0	-0.0458	-0.003	-0.0533	-78.3
0.0007	-0.0511	-0.0015	-0.057	-78.4
0.0007	-0.048	0.0007	-0.0315	-78.5
0.0015	-0.033	0.0007	-0.012	-78.6
0.0007	0.0105	-0.0008	0.0157	-78.7
0.0007	0.0652	-0.0008	0.0652	-78.8
-0.003	0.078	0.0007	0.1027	-78.8
-0.0046	0.0847	0.003	0.06	-78.9
-0.0046	0.0915	0.006	0.045	-79
-0.0038	0.0855	0.006	0.0397	-79.1
-0.003	0.0247	0.003	-0.0008	-79.2
-0.0015	-0.0278	0.0007	-0.0091	-79.3
-0.0008	-0.0203	0.0007	-0.033	-79.4
-0.0015	-0.0338	0.0007	-0.03	-79.5
-0.0008	-0.033	0.0007	-0.0218	-79.6
-0.0015	-0.0105	0.0015	-0.003	-79.7
-0.0023	0.0127	0.0015	0.027	-79.7
-0.0015	0.0307	0.003	0.0187	-79.8
-0.0008	0.0292	0.0052	-0.0046	-79.9
0.0015	0.009	0.0052	-0.0225	-80
0.003	-0.0278	0.0045	-0.0278	-80.1
0.0045	-0.0465	0.003	-0.027	-80.2
0.0015	-0.0653	0	-0.0308	-80.3
0.0022	-0.0765	0.0015	-0.045	-80.4
0.0037	-0.0728	0.0037	-0.0623	-80.5
0.0045	-0.0615	0.003	-0.078	-80.6
0.0045	-0.039	0.0015	-0.0825	-80.6
0.003	-0.0278	-0.0015	-0.0645	-80.7
-0.0008	0.003	0.0007	-0.0173	-80.8
-0.0015	0.0232	0.0022	0.003	-80.9
-0.003	0.0367	0.0022	0.003	-81
-0.0015	0.0615	0.003	0.0255	-81.1
0.0007	0.084	0.0015	0.0645	-81.2
0.0015	0.0735	0.0045	0.0982	-81.3
0.0007	0.0067	0.0015	0.0952	-81.4
-0.0015	-0.0225	0	0.1005	-81.5
0.0007	-0.039	0.0022	0.099	-81.5
-0.0008	-0.0638	0.0052	0.0892	-81.6
-0.0008	-0.0503	0.0052	0.0825	-81.7
0.0015	-0.0405	0.0015	0.0705	-81.8
0.003	-0.0285	-0.0008	0.0555	-81.9
0.0007	-0.0008	-0.0008	0.0075	-82
-0.0008	0.0337	-0.0008	-0.024	-82.1
-0.0015	0.054	0.0007	-0.0353	-82.2
-0.0046	0.0412	-0.0015	-0.0383	-82.3
-0.0046	0.0045	-0.0015	-0.0173	-82.4
-0.0046	-0.0165	0.0015	-0.0158	-82.5
-0.0015	-0.012	0.0045	-0.027	-82.6
0.0015	0.0067	0.0052	-0.03	-82.7
0.0007	0.0315	0.0052	-0.0195	-82.8
0.0007	0.0405	0.0045	-0.012	-82.8
0	0.0487	0.0015	-0.0091	-82.9
-0.0046	0.0667	0.0007	-0.0046	-83
-0.0075	0.0705	0.0007	-0.0143	-83.2
-0.0046	0.039	0.0022	-0.0195	-83.2
-0.003	0.0082	0.0007	-0.0181	-83.3
-0.0008	-0.027	-0.003	-0.0181	-83.4
-0.0008	-0.0713	0	-0.0278	-83.5
-0.003	-0.084	-0.0008	-0.0375	-83.6
-0.0015	-0.075	-0.0008	-0.0338	-83.7
0.0007	-0.0728	0.0015	-0.0308	-83.7
0.0022	-0.0743	0	-0.0233	-83.8
0.003	-0.0518	-0.0008	-0.0181	-83.9
0.0037	-0.0346	-0.0015	-0.0248	-84.1
0.003	-0.0128	-0.0008	-0.0195	-84.2
0.0015	0.0337	0.0015	0.0045	-84.2
0.0015	0.0675	0.0015	0.0075	-84.3
0.0007	0.0742	0.0007	0.012	-84.4
-0.0023	0.0457	0.003	0.0742	-84.5
-0.0023	0.0405	0.003	0.1095	-84.6
-0.003	0.0967	-0.0023	0.0495	-84.7
-0.0053	0.1005	-0.0015	0.0307	-84.8
-0.0046	0.0532	-0.0008	0.0217	-84.9
-0.003	-0.0105	-0.0015	-0.0128	-85
0.0007	-0.0788	-0.0015	-0.0128	-85.1
0.0052	-0.1028	-0.0038	-0.039	-85.1
0.0067	-0.1335	-0.003	-0.0548	-85.2
0.0082	-0.1388	-0.0008	-0.0825	-85.3
0.0067	-0.1178	0.003	-0.099	-85.4
0.0045	-0.0863	0.0022	-0.0968	-85.5
0.003	-0.0105	0	-0.0795	-85.5
0.0007	0.0615	-0.0038	-0.0165	-85.6
0	0.1275	-0.0046	0.0232	-85.7
0.0015	0.174	0.0007	0.0705	-85.8
0.003	0.1762	0.0007	0.1162	-85.9
0.003	0.1612	0.0037	0.1462	-86
0.0037	0.09	0.003	0.1462	-86.1
0.003	-0.0181	0.0007	0.12	-86.2
0.0067	-0.0495	0.0045	0.0817	-86.3
0.0082	-0.0555	0.003	0.0367	-86.3
0.009	-0.0743	0.003	0.0195	-86.4
0.009	-0.0765	0.003	-0.021	-86.5
0.0037	-0.0706	0.0007	-0.0346	-86.6
-0.0015	-0.0263	0.0007	-0.0203	-86.7
-0.0046	0.0165	0.0015	-0.03	-86.8
-0.0053	0.018	0.0007	-0.024	-86.9
-0.0053	0.0345	0.0015	-0.0338	-86.9
-0.0083	0.057	0.003	-0.039	-87
-0.0091	0.0547	0.003	-0.0375	-87.1
-0.0053	0.0457	0.0052	-0.0578	-87.2
-0.003	0.0105	0.0082	-0.0585	-87.3
-0.0008	-0.0173	0.0075	-0.0511	-87.3
0	-0.0458	0.0067	-0.039	-87.4
0.003	-0.0713	0.006	-0.0353	-87.5
0.0015	-0.078	0.0045	-0.0338	-87.6
0.0015	-0.0743	0.003	-0.0203	-87.7
0.0037	-0.0443	0.0015	-0.0128	-87.8
0.0015	-0.0293	0	-0.0015	-87.9
-0.0008	-0.0263	-0.0008	0.0007	-88
-0.0038	-0.0308	0.0007	0.0015	-88
-0.0023	-0.0405	0.0052	-0.0038	-88.1
-0.0008	-0.0473	0.0045	0.0007	-88.2
-0.0023	-0.054	0.0007	0.0142	-88.3
-0.0038	-0.042	0.0007	0.0015	-88.4
-0.003	-0.006	0.0007	-0.0158	-88.5
-0.0068	0.033	-0.0015	-0.0195	-88.6
-0.0105	0.0577	-0.003	0.0045	-88.6
-0.0053	0.087	-0.0068	0.0352	-88.7
-0.0046	0.1042	-0.0075	0.048	-88.8
-0.0046	0.0802	-0.006	0.03	-88.9
-0.0046	0.0502	-0.0046	-0.0105	-89
-0.003	0.0127	-0.003	-0.027	-89
-0.0015	-0.027	-0.0015	-0.0458	-89.1
-0.0008	-0.054	-0.0008	-0.027	-89.2
0.003	-0.0623	0.0007	0.0217	-89.3
0.0045	-0.0405	0.003	0.0382	-89.4
0.0045	-0.0346	0.0007	0.039	-89.4
0.0007	-0.0218	0.0007	0.0172	-89.5
0	-0.0053	0.0045	0.018	-89.6
0.0037	0	0.006	0.0157	-89.7
0.006	0.0082	0.0082	-0.0053	-89.8
0.0052	-0.0083	0.0082	-0.0008	-89.8
0.0037	-0.0278	0.0082	0.006	-89.9
0.0045	-0.0135	0.0082	0.0067	-90
0.0045	0.0165	0.0052	0.0142	-90.1
0.0007	-0.0008	0.0007	0.0315	-90.1
-0.0023	-0.0368	0	0.0397	-90.2
-0.0008	-0.039	0.0015	0.0607	-90.3
-0.0008	-0.0053	0.0022	0.0615	-90.4
0	0.018	0.0007	0.042	-90.5
0.0022	0.0195	-0.0015	0.0285	-90.5
-0.0008	0.0232	-0.0015	-0.0098	-90.6
-0.003	0.0832	-0.0015	-0.0278	-90.7
-0.0038	0.1462	-0.0015	-0.0098	-90.8
-0.0015	0.12	0	-0.0165	-90.9
0.0007	0.069	0.0037	-0.042	-90.9
0.0007	-0.0278	0.0045	-0.0525	-91
0.0015	-0.0833	0.003	-0.057	-91.1
-0.0008	-0.0691	0.0022	-0.027	-91.2
-0.0008	-0.0555	0.0015	-0.015	-91.2
-0.0015	-0.0195	-0.0008	-0.0293	-91.3
-0.003	-0.0315	-0.003	-0.0233	-91.4
0.0007	-0.0225	-0.003	-0.012	-91.4
0.0007	-0.0143	-0.0015	-0.0128	-91.6
0.0007	-0.027	0.0007	-0.0308	-91.6
0	-0.0623	0.0045	-0.0518	-91.7
0.0015	-0.1388	0.0045	-0.0691	-91.8
0.0075	-0.0878	0.0052	-0.0405	-91.8
0.0067	0.0442	0.0052	-0.0105	-91.9
0.003	0.1192	0.003	0	-92
-0.0023	0.165	0.003	0.072	-92.1
-0.0046	0.2175	0.0037	0.114	-92.2
-0.0023	0.2182	0.003	0.0967	-92.3
-0.0046	0.1515	0.003	0.0795	-92.3
-0.0038	0.012	0.0045	0.0262	-92.4
-0.0053	-0.0893	0.003	0.0112	-92.5
-0.003	-0.126	0.003	-0.012	-92.6
0.0022	-0.1635	0.003	-0.0533	-92.7
0.0037	-0.15	-0.0023	-0.0675	-92.7
0.003	-0.159	-0.0053	-0.1028	-92.8
0.0022	-0.1478	-0.0023	-0.108	-92.9
0.003	-0.0998	-0.0008	-0.108	-93
0.0045	-0.0615	0.0022	-0.0623	-93
0.0052	0.0202	0.0015	0.006	-93.2
0	0.1005	-0.003	0.0585	-93.2
-0.0015	0.1327	0.0007	0.1477	-93.2
0.0007	0.1597	0.0052	0.1395	-93.3
-0.0008	0.1845	0.0052	0.0862	-93.4
-0.0023	0.1005	0.0052	0.0645	-93.5
-0.003	-0.0195	0.006	0.0352	-93.6
-0.0015	-0.0706	0.006	0.0367	-93.6
0.0045	-0.0788	0.0037	0.027	-93.7
0.0015	-0.0278	0.0015	0.0037	-93.8
-0.0023	0.0307	-0.0023	-0.0165	-93.9
-0.003	0.0375	-0.0015	-0.0195	-94
-0.003	-0.0015	0.0015	-0.0165	-94
-0.003	-0.0773	0.0022	-0.0518	-94.1
-0.0008	-0.1238	0.0015	-0.0555	-94.2
0.003	-0.1298	0.0045	-0.0368	-94.3
0.0037	-0.1328	0.0067	-0.024	-94.3
0.0045	-0.105	0.006	0.0187	-94.4
0.0037	-0.0278	0.0037	0.054	-94.5
0.0052	0.0765	0.0015	0.063	-94.5
0.0075	0.1687	0.0022	0.0367	-94.7
-0.0008	0.1732	0	0.0007	-94.7
-0.003	0.156	-0.0023	-0.0511	-94.8
0.0015	0.0997	-0.0015	-0.1043	-94.9
0.003	-0.0293	-0.0008	-0.1028	-94.9
0.003	-0.1178	0.0007	-0.0878	-95
0.0045	-0.1493	0.0007	-0.081	-95.1
0.0045	-0.1403	0.0007	-0.06	-95.1
-0.0008	-0.1178	0.0015	-0.0248	-95.2
0.0007	-0.048	0.0045	0.018	-95.3
0.0007	0.0405	0.0045	0.0345	-95.4
-0.0008	0.0675	0.0007	0.0165	-95.4
-0.003	0.1035	-0.0008	0.0315	-95.5
-0.0053	0.1282	-0.0008	0.0255	-95.6
-0.0046	0.0817	0.0007	0.012	-95.6
-0.0046	-0.006	0.0015	0.033	-95.7
-0.0046	-0.0765	0.0022	0.057	-95.8
0.0007	-0.0856	0.0007	0.1072	-95.9
0.0037	-0.0465	-0.0015	0.0855	-95.9
0.0022	0.0097	-0.0023	0.0877	-96
-0.0053	0.0915	-0.0046	0.1065	-96.1
-0.0068	0.1372	-0.0046	0.0892	-96.2
-0.0008	0.153	-0.0008	0.1005	-96.2
0	0.1777	0.0015	0.0555	-96.3
-0.003	0.1402	0.0015	0.0255	-96.3
-0.0008	0.0577	0.003	-0.0038	-96.4
0.0015	-0.0128	0.0015	-0.0225	-96.5
0.0007	-0.0585	-0.0008	-0.0195	-96.6
0.0015	-0.0691	-0.0023	-0.0375	-96.6
0.0015	-0.0691	-0.003	-0.042	-96.7
-0.0023	-0.0833	-0.0015	-0.0668	-96.8
-0.0015	-0.099	0.0015	-0.0795	-96.8
-0.0023	-0.0908	0.0015	-0.0721	-96.9
-0.0015	-0.0675	0.0045	-0.0608	-97
0.0007	-0.0683	0.0045	-0.0495	-97.1
0.0007	-0.0668	0.0037	-0.0443	-97.1
0.0037	-0.0608	0.003	-0.0443	-97.2
0.0022	-0.0728	0.0022	-0.0503	-97.2
0.0037	-0.0983	0.003	-0.0518	-97.3
0.0052	-0.1163	0.003	-0.0398	-97.4
0.0052	-0.1358	0.0045	-0.0278	-97.5
0.0052	-0.1628	0.0045	-0.0285	-97.6
0.0045	-0.1523	0.0015	-0.0143	-97.6
0.0045	-0.1365	0.0022	0.0015	-97.7
-0.0015	-0.0818	-0.0015	0.012	-97.8
-0.0015	0.0067	-0.0015	0.0292	-97.9
-0.0008	0.0757	0.0007	0.0382	-97.9
-0.0046	0.198	-0.0023	0.03	-98
-0.003	0.2647	0.0007	0.0015	-98.1
-0.0038	0.279	-0.003	0.0097	-98.2
-0.003	0.2572	-0.0046	0.0457	-98.3
0.0007	0.168	-0.0015	0.0502	-98.3
0.003	0.168	-0.0015	0.0517	-98.4
0.003	0.1627	-0.0008	0.0337	-98.5
-0.0015	0.0787	-0.0038	0.006	-98.6
-0.0046	0.0202	-0.003	-0.0015	-98.6
-0.0053	0	-0.0023	-0.0046	-98.7
-0.0068	-0.0218	0	-0.012	-98.8
-0.003	-0.0563	0.0022	-0.0518	-98.9
-0.0015	-0.0795	0.0007	-0.0795	-99
-0.0008	-0.108	0.0007	-0.0645	-99.1
-0.0008	-0.1253	-0.0008	-0.0721	-99.1
0.0007	-0.1335	0.0015	-0.0795	-99.2
0.0067	-0.153	0.003	-0.0668	-99.3
0.0082	-0.159	0.003	-0.0338	-99.3
0.006	-0.1463	0.0045	-0.0083	-99.4
0.0045	-0.165	0.0052	-0.0181	-99.5
0.0067	-0.183	0.0082	0.0165	-99.5
0.0112	-0.1163	0.0082	0.0712	-99.6
0.0067	0.0007	0.0097	0.1275	-99.7
0.0045	0.0832	0.0082	0.1192	-99.8
0.0015	0.1747	0.003	0.087	-99.9
-0.0008	0.285	0.0022	0.1162	-99.9
-0.0046	0.3045	-0.0008	0.0825	-100
-0.0203	0.252	-0.0046	0.0375	-100
-0.027	0.1327	-0.0068	-0.0083	-100.1
-0.0181	0.012	-0.0091	-0.0203	-100.2
-0.0128	-0.0053	-0.0046	0.012	-100.3
-0.0038	-0.0218	0.0022	0.0157	-100.4
-0.003	-0.0405	0.0045	0.0195	-100.4
-0.0046	-0.0398	0.0022	-0.0128	-100.5
-0.0008	-0.0383	0.003	-0.033	-100.6
-0.0008	-0.0346	0.0045	-0.0503	-100.7
0.0015	-0.0473	0.0052	-0.0555	-100.8
0.0037	-0.0638	0.0052	-0.0188	-100.8
0.0067	-0.0623	0.0045	0.0007	-100.9
0.0045	-0.0405	0.0052	-0.0038	-101
0.003	-0.045	0.0015	-0.0023	-101.1
0.003	-0.0436	0.0015	0.0082	-101.2
0.0022	-0.033	0.0022	0.0022	-101.3
0.003	-0.0413	0.0015	-0.0023	-101.3
0.003	-0.063	0.0015	-0.021	-101.4
0.006	-0.0893	0.0007	-0.0083	-101.5
0.0052	-0.093	0.003	0.0067	-101.6
0.003	-0.0833	0.0015	-0.0165	-101.7
0	-0.048	-0.0015	-0.033	-101.7
0.003	0.012	-0.0008	-0.0473	-101.8
0.009	0.0555	-0.0015	-0.0458	-101.9
0.003	0.0802	-0.003	-0.0398	-102
0.0007	0.0855	-0.003	-0.021	-102.1
0.0037	0.057	-0.0023	-0.0053	-102.2
0.0037	0.0555	-0.0015	0.0075	-102.2
0.0052	0.0352	0.003	-0.003	-102.3
0.009	-0.0263	0.0052	-0.045	-102.4
0.0067	-0.0495	0.0022	-0.0473	-102.5
0.003	-0.0443	0.0037	-0.048	-102.6
0	-0.0413	0.0015	-0.0308	-102.6
-0.0015	-0.0225	0.0037	0.009	-102.7
-0.0008	0.03	0.0037	0.0367	-102.8
-0.0008	0.045	0.0022	0.0577	-102.8
0	-0.003	0.0037	0.06	-102.9
0.0007	-0.0263	0.0015	0.0502	-103
0.0045	-0.0256	0.0075	0.03	-103.1
0.0082	-0.0293	0.0105	0.0262	-103.1
0.0052	0.0255	0.006	0.018	-103.2
-0.0008	0.0915	0.0015	0.0165	-103.3
-0.0053	0.1102	0.0007	0.0277	-103.4
-0.0023	0.129	0.0007	0.0165	-103.5
0.0007	0.141	0	0.003	-103.5
-0.0075	0.1042	-0.003	-0.0428	-103.6
-0.0068	0.0157	-0.003	-0.054	-103.7
-0.0008	-0.0143	0.0045	-0.015	-103.8
-0.0008	-0.0293	0.006	0.0262	-103.8
0.0007	-0.078	0.006	0.0352	-103.9
-0.003	-0.0848	0.0015	0.024	-104
-0.0053	-0.0728	-0.006	0.045	-104
-0.0046	-0.0443	-0.0053	0.0547	-104.1
-0.0015	-0.0278	-0.0015	0.0367	-104.1
0.003	-0.0315	0.003	0.0255	-104.2
0.003	-0.0511	0.003	0.015	-104.3
0.003	-0.045	0.0022	-0.0225	-104.4
0.0007	-0.027	0.0045	-0.0465	-104.4
-0.0008	0.0097	0.0022	-0.0443	-104.5
-0.003	0.075	0.0015	-0.0285	-104.6
-0.0068	0.069	0.0007	-0.0346	-104.6
-0.0046	0.0307	-0.0015	-0.0555	-104.7
-0.0023	-0.0038	-0.0015	-0.048	-104.8
-0.0015	-0.042	-0.0015	-0.024	-104.8
-0.0008	-0.063	-0.0008	0.024	-104.9
0.0007	-0.0788	0.0015	0.0345	-104.9
0.0022	-0.0953	0.0052	-0.0113	-105.1
0.0037	-0.075	0.0052	-0.015	-105.1
0.0045	-0.0038	0.0052	-0.006	-105.2
0.0045	0.0495	0.0045	-0.0158	-105.2
0.0022	0.0817	0.003	-0.012	-105.3
0.003	0.0795	-0.0008	0.0262	-105.3
0.0007	0.0727	0.003	0.0735	-105.4
-0.0015	0.0802	0.0067	0.0967	-105.4
-0.003	0.063	0.0045	0.1282	-105.5
-0.0038	0.0345	0.0052	0.1192	-105.6
-0.0008	0.0037	0.0052	0.0502	-105.7
0.0007	-0.0105	0.006	-0.0188	-105.7
0.0015	-0.033	0.0067	-0.0503	-105.8
0.0045	-0.054	0.0045	-0.0495	-105.8
0.0052	-0.048	0.0015	-0.0706	-105.9
0.0015	-0.0458	0.0007	-0.0938	-105.9
0	-0.0315	-0.0008	-0.0691	-106
0	-0.0181	-0.0008	-0.0428	-106.1
0.0007	-0.0256	-0.0015	-0.0533	-106.1
-0.0008	-0.0533	-0.003	-0.057	-106.2
-0.0038	-0.0518	-0.0023	-0.0398	-106.3
-0.0053	-0.0113	-0.0038	-0.0188	-106.3
-0.0053	0.009	-0.0008	0.003	-106.4
-0.0068	0.0217	0.0015	0.0262	-106.4
-0.0046	0.033	-0.0008	0.0517	-106.5
-0.0015	0.0375	0.003	0.0727	-106.6
-0.0015	0.0157	0.003	0.081	-106.6
0	-0.0278	0.0007	0.0555	-106.7
0	-0.0443	0.0015	0.018	-106.7
0	-0.027	-0.0008	0.0082	-106.8
-0.003	0	-0.0046	-0.0008	-106.8
-0.003	0.0037	-0.0068	-0.021	-106.9
0.0007	0.0142	-0.0068	-0.0248	-107
-0.0015	0.0142	-0.0015	-0.0353	-107
-0.0015	0.0015	-0.0015	-0.0495	-107.1
-0.003	0.0127	-0.003	-0.0683	-107.1
-0.0023	-0.0135	-0.003	-0.0856	-107.2
0.0007	-0.06	-0.0023	-0.0758	-107.2
0.0007	-0.111	-0.0015	-0.0706	-107.3
0.003	-0.1365	0	-0.0511	-107.4
0.0045	-0.0691	0.0037	-0.0083	-107.5
0.0015	0.021	0.003	0.0052	-107.5
0.0007	0.0975	0.0067	0.033	-107.5
0.0052	0.1335	0.0097	0.0817	-107.6
0.003	0.1425	0.0052	0.0652	-107.6
-0.0046	0.114	0.003	0.0465	-107.7
-0.003	0.0457	-0.0008	0.06	-107.7
-0.0008	0.024	0	0.0945	-107.8
0.0037	0.0307	0.0037	0.1312	-107.8
0.0052	0.0742	0.0045	0.1267	-107.9
0.0007	0.0967	0.0045	0.108	-108
0.0022	0.06	0.006	0.048	-108
0.0007	0.063	0.0037	-0.0113	-108
-0.0008	0.0412	0.0015	-0.0405	-108.1
-0.0023	-0.0068	-0.0015	-0.0563	-108.1
-0.0046	-0.0608	-0.003	-0.0773	-108.2
-0.003	-0.1155	-0.0023	-0.078	-108.2
-0.003	-0.129	0.0007	-0.0555	-108.3
-0.0015	-0.1313	0.0015	-0.0615	-108.4
-0.0015	-0.075	-0.0023	-0.0263	-108.4
-0.0038	-0.0038	-0.0053	0.012	-108.5
-0.0046	0.033	-0.0083	0.003	-108.5
-0.0008	0.0315	-0.0053	-0.0346	-108.5
0	-0.0113	-0.003	-0.0593	-108.6
0.003	-0.0361	-0.0023	-0.0675	-108.6
0.0045	-0.0878	0.0007	-0.0818	-108.7
0.0045	-0.1478	0.0037	-0.0788	-108.7
0.0052	-0.1673	0.0045	-0.0706	-108.8
0.0015	-0.1185	0.0037	-0.0346	-108.8
0.0022	-0.0105	0.0075	0.0187	-108.9
0.003	0.0802	0.0105	0.0562	-108.9
-0.0008	0.1237	0.0082	0.0645	-109
-0.0008	0.1125	0.0052	0.069	-109
-0.0008	0.0877	0.0015	0.072	-109.1
-0.0008	0.0247	0.0045	0.0352	-109.1
0.0015	0.0067	0.0075	0.0217	-109.2
-0.0015	0.0787	0.006	0.0127	-109.2
-0.0068	0.123	0.0045	0.0172	-109.3
-0.0023	0.1222	0.0052	0.0495	-109.3
-0.0023	0.081	0.0007	0.0645	-109.4
-0.006	0.0412	-0.003	0.0457	-109.4
-0.0038	-0.0113	-0.0015	0.0127	-109.4
0.0007	-0.0383	0	0.0277	-109.5
0.0045	-0.0353	0.0015	0.024	-109.5
0.0067	-0.0436	0.003	0.0262	-109.5
0.0067	-0.042	0.003	0.0045	-109.6
0.0052	-0.0503	0.0015	-0.0323	-109.6
0.0022	-0.0428	0.003	-0.0075	-109.7
0.0015	-0.0248	0.003	0.006	-109.7
0.003	0.0007	0.0007	0.0277	-109.7
0.003	-0.012	-0.0023	0.0195	-109.8
0	-0.048	-0.0038	-0.0098	-109.8
0.0007	-0.0473	-0.0038	-0.0428	-109.8
0	-0.0743	0.0007	-0.075	-109.8
0.003	-0.09	0.006	-0.0735	-109.9
0.0052	-0.0728	0.006	-0.0871	-109.9
0.0022	-0.0495	0.003	-0.105	-110
0	-0.0113	0.0007	-0.1013	-110
-0.0008	0.0097	-0.0008	-0.0691	-110
-0.0008	0.0352	0	-0.0495	-110.1
-0.0008	0.0412	0.0022	-0.0323	-110.2
-0.0008	-0.0346	0.0022	0	-110.2
0.0007	-0.135	0	0.0307	-110.2
0.0015	-0.132	0.0007	0.0315	-110.3
0.003	-0.057	-0.0008	0.0495	-110.3
0	0.009	-0.0038	0.0757	-110.3
0.0007	0.0592	-0.0053	0.0232	-110.3
0.0015	0.1147	-0.0053	0.009	-110.4
-0.0046	0.1987	-0.0075	0.018	-110.4
-0.0083	0.1725	-0.006	-0.0128	-110.5
-0.006	0.0877	-0.0023	-0.0398	-110.5
-0.0015	0.0712	-0.0008	-0.0233	-110.5
0	0.0825	-0.0015	0.024	-110.6
-0.0015	0.078	-0.0023	0.042	-110.6
-0.0053	0.0225	-0.003	0.0427	-110.7
-0.0053	-0.0135	-0.0015	0.072	-110.7
-0.003	-0.0128	0.0007	0.1155	-110.7
-0.0023	-0.021	-0.0008	0.144	-110.7
-0.0015	-0.0383	-0.0008	0.1117	-110.8
-0.0015	-0.042	-0.0015	0.021	-110.8
-0.003	-0.0375	0.003	-0.0263	-110.9
0.0007	-0.057	0.0067	-0.0675	-110.9
0.0007	-0.1013	0.0067	-0.0743	-110.9
0.0052	-0.1253	0.012	-0.0615	-111
0.0067	-0.1006	0.0157	-0.0706	-111
0.0037	-0.0833	0.0165	-0.042	-111.1
0.0067	-0.0503	0.018	-0.0091	-111.1
0.0075	0.0517	0.0195	0.0855	-111.1
0.0045	0.1357	0.0172	0.1365	-111.2
-0.0023	0.1582	0.009	0.1087	-111.2
-0.0046	0.129	0.0045	0.1102	-111.2
-0.0023	0.1162	0.003	0.1042	-111.2
-0.0053	0.1162	0.0015	0.075	-111.2
-0.0046	0.042	-0.0023	0.0465	-111.3
-0.003	-0.0323	-0.0053	0.033	-111.3
-0.003	-0.0593	-0.006	-0.024	-111.4
-0.0038	-0.0728	-0.0105	-0.108	-111.4
-0.0053	-0.0825	-0.0098	-0.1658	-111.4
-0.0015	-0.12	-0.0068	-0.2048	-111.5
0.003	-0.1463	-0.006	-0.2115	-111.5
0.003	-0.1283	-0.0068	-0.1928	-111.6
-0.0008	-0.1065	-0.0091	-0.1703	-111.6
0.0007	-0.039	-0.0105	-0.1396	-111.6
0.0037	0.0405	-0.0083	-0.0638	-111.6
0.0067	0.1012	-0.0083	0.0427	-111.6
0.0082	0.1267	-0.0068	0.1155	-111.6
0.0045	0.078	-0.0023	0.1485	-111.7
0.0037	0.0502	0	0.1402	-111.7
0.003	0.0382	0.0015	0.1327	-111.7
-0.0023	0.0165	0.003	0.156	-111.7
-0.003	0.0217	0.0052	0.1365	-111.8
-0.0008	0.0232	0.0067	0.084	-111.8
-0.0008	0.0075	0.0045	0.0502	-111.8
-0.0023	-0.0068	0.0045	0.0015	-111.9
-0.0015	-0.0346	0.0052	-0.066	-111.9
0.0007	-0.066	0.0052	-0.1125	-111.9
-0.0008	-0.0975	0.0045	-0.1313	-112
-0.0023	-0.1478	0.0037	-0.1515	-112
-0.0015	-0.1448	0.0015	-0.1343	-112
-0.0008	-0.0825	0.0007	-0.0803	-112
0.0015	0.0217	0.0007	-0.0443	-112.1
-0.0008	0.102	-0.0008	0.0045	-112.1
-0.0023	0.1425	0.0037	0.048	-112.1
-0.0015	0.1762	0.0067	0.0667	-112.1
-0.003	0.1237	0.0052	0.0825	-112.2
0.0015	0.0105	0.003	0.0457	-112.2
0.0052	-0.0818	0.0015	-0.0195	-112.3
0.0037	-0.111	-0.0015	-0.048	-112.3
0	-0.0833	-0.0046	-0.0323	-112.3
0.0015	-0.0353	-0.0053	-0.0323	-112.4
0.0045	0.0127	-0.0068	-0.0458	-112.4
0.0015	0.0067	-0.0068	0.0052	-112.5
0.0022	-0.0165	-0.0015	0.0277	-112.5
-0.003	-0.0083	-0.0046	0.0277	-112.5
-0.0098	0.012	-0.0046	0.063	-112.5
-0.0068	0.0427	-0.0008	0.0817	-112.6
-0.006	0.081	-0.0015	0.1042	-112.6
-0.0068	0.1132	0.0007	0.066	-112.7
-0.0083	0.0877	0.0022	0.0165	-112.7
-0.0098	0.03	0.0022	0.0112	-112.7
-0.0068	0.003	0.0067	-0.033	-112.8
-0.0038	-0.0285	0.0067	-0.057	-112.8
0	-0.0383	0.006	-0.0293	-112.9
0.003	-0.0181	0.0082	0.012	-112.9
0.0067	-0.0046	0.009	0.0435	-113
0.009	-0.015	0.0097	0.0765	-113
0.0097	-0.057	0.0082	0.0945	-113
0.0097	-0.0765	0.0067	0.0802	-113.1
0.0105	-0.0698	0.0052	0.054	-113.1
0.0105	-0.033	0.0045	-0.0203	-113.2
0.0045	0.0075	0.0015	-0.09	-113.2
0.0007	0.0165	-0.0015	-0.0803	-113.3
-0.0015	0.0217	-0.003	-0.0593	-113.3
-0.003	0	-0.0038	-0.0511	-113.4
-0.0008	-0.0165	-0.0015	-0.027	-113.4
0.0007	-0.0083	0.0022	-0.0105	-113.4
0.0015	-0.0091	0.0045	-0.021	-113.5
0.0007	-0.0181	0.0015	-0.0593	-113.5
0.0022	-0.0315	0.0037	-0.0825	-113.6
0.003	-0.0278	0.0082	-0.078	-113.6
0.003	-0.0098	0.0082	-0.0443	-113.7
0.0045	0.0165	0.0082	-0.0091	-113.7
0.003	0.0457	0.0037	0.0075	-113.8
0.003	0.0405	-0.0008	0.024	-113.9
0.003	0.015	0	0.0555	-113.9
0.003	0.0067	0.0022	0.0937	-113.9
0.003	0.0045	0.003	0.0937	-114
0.0015	0.0142	0.003	0.0382	-114.1
0	0.0262	0.0022	0.0105	-114.1
0.0007	-0.0008	0.0022	0.0202	-114.2
0	-0.0323	0.0007	0.0075	-114.3
-0.0015	-0.0518	0.0007	-0.012	-114.3
0.0007	-0.0698	0.0007	-0.0278	-114.3
0	-0.0645	0	-0.042	-114.4
-0.0038	-0.0293	-0.0008	-0.045	-114.4
-0.0068	-0.003	-0.0008	-0.0113	-114.5
-0.0053	0.0135	0.0007	0.0202	-114.6
-0.0023	0.0517	0	0.0322	-114.6
-0.0046	0.0682	0.0015	0.03	-114.7
-0.0046	0.054	0.0007	0.018	-114.8
-0.0038	0.057	-0.0008	-0.0008	-114.8
-0.0053	0.0435	-0.0038	-0.0143	-114.8
-0.0015	0.0217	-0.0068	-0.0038	-114.9
-0.0008	0.018	-0.0053	-0.003	-115
-0.0015	0.0022	-0.0053	-0.0405	-115.1
-0.0008	-0.0361	-0.006	-0.0968	-115.1
-0.0015	-0.1021	-0.0053	-0.1275	-115.2
0	-0.1463	-0.0023	-0.1253	-115.2
0.0007	-0.1305	0.0007	-0.0908	-115.3
-0.006	-0.0548	-0.0038	-0.0256	-115.4
-0.006	0.0142	-0.0015	0.0502	-115.5
0.0007	0.0315	0.0052	0.0922	-115.5
0	0.054	0.0075	0.1192	-115.6
-0.0008	0.0427	0.009	0.1192	-115.7
0	0.0165	0.0097	0.0825	-115.7
-0.0008	0.0307	0.009	0.0652	-115.8
0.0037	-0.0128	0.0067	0.0127	-115.8
0.006	-0.0983	0.0007	-0.0256	-115.9
0.0052	-0.1328	-0.0015	-0.0683	-116
-0.0015	-0.1223	-0.0023	-0.1313	-116.1
-0.0046	-0.0518	-0.0046	-0.1163	-116.1
-0.003	0.1155	-0.0046	-0.0608	-116.1
-0.0075	0.2572	-0.0046	0.0037	-116.2
-0.0053	0.2557	0.0015	0.0735	-116.3
-0.003	0.2025	0.0097	0.156	-116.3
-0.0008	0.1222	0.0142	0.2205	-116.4
0.0007	0.0802	0.0157	0.2265	-116.5
0.0007	0.06	0.0165	0.186	-116.5
0.0022	0.012	0.015	0.1177	-116.6
0.0007	0.0045	0.012	0.0442	-116.6
0	-0.0158	0.0082	-0.0165	-116.7
-0.003	-0.0353	0.0045	-0.078	-116.7
-0.0015	-0.0578	0.003	-0.129	-116.8
0.0007	-0.078	0.0045	-0.1538	-116.9
-0.0008	-0.0698	-0.0015	-0.15	-116.9
0.0007	-0.0585	-0.003	-0.126	-117
0.0045	-0.0495	-0.0053	-0.0938	-117
0.006	-0.042	-0.006	-0.0488	-117.1
0.006	-0.0225	-0.0068	0.018	-117.1
0.0067	-0.0346	-0.0068	0.0405	-117.2
0.0045	-0.06	-0.006	0.0165	-117.3
0.0052	-0.0908	-0.0038	0.0217	-117.3
0.0052	-0.1043	-0.0008	0.003	-117.4
0.0007	-0.0638	-0.0008	-0.0068	-117.5
0	-0.0128	0.0015	-0.0038	-117.5
-0.003	0.039	0.0015	0.0007	-117.6
-0.0015	0.0727	-0.0015	0.0277	-117.6
-0.0015	0.0697	-0.0038	0.018	-117.7
-0.0046	0.027	-0.0038	0.0112	-117.8
-0.0015	0.0067	-0.0008	0.0232	-117.8
-0.0008	0.0007	0.0022	0.03	-117.9
0	-0.0293	0.0015	0.0097	-117.9
0	-0.0248	0	-0.0083	-118
0.0007	-0.003	-0.0008	-0.0278	-118.1
0	0.0315	0	-0.054	-118.1
0.0007	0.024	0.0045	-0.0615	-118.2
0.003	-0.0173	0.006	-0.066	-118.3
-0.0008	-0.0218	0.003	-0.0278	-118.3
0.0007	-0.0091	0	-0.0113	-118.4
0.0015	-0.0023	-0.0015	0.0007	-118.4
0.0022	-0.0181	0	0.0232	-118.5
0.0007	-0.0308	0.0015	-0.003	-118.5
0.0015	-0.0308	0.0015	-0.0046	-118.6
-0.0008	-0.0315	-0.0023	-0.0181	-118.7
-0.0023	-0.0398	-0.003	-0.0293	-118.7
-0.0015	-0.033	-0.0008	-0.0105	-118.8
-0.0046	-0.0113	0.0015	0.0082	-118.8
-0.0053	-0.0256	0.0015	0.0382	-118.8
-0.0046	-0.0203	0.0022	0.0525	-118.9
-0.0038	-0.0053	0.0037	0.0645	-119
-0.0038	0.0157	-0.0015	0.093	-119
-0.0038	0.0667	-0.0008	0.0915	-119.1
-0.0015	0.09	0.0007	0.0517	-119.1
0.0007	0.0705	0.0015	0.0195	-119.2
0.0015	0.024	0.0045	-0.0203	-119.3
-0.0015	-0.0015	0.0007	-0.0518	-119.3
-0.0015	0.0015	0	-0.06	-119.3
-0.0015	0.003	0.0007	-0.0405	-119.4
-0.0023	0.0105	0.0015	-0.0015	-119.5
0	0.0307	0.0037	0.0127	-119.5
0.0007	0.0225	0.0022	0.0555	-119.6
0.0022	0.0195	0.0052	0.0615	-119.6
0.0045	0.0307	0.0015	0.0405	-119.7
0.0045	0.0202	0.0015	0.0397	-119.7
0.0052	0	0.0015	-0.0308	-119.8
0.0037	-0.0353	0	-0.0428	-119.8
0.0022	-0.0488	0	-0.0023	-119.9
0.0015	-0.03	-0.0046	-0.0075	-119.9
-0.0015	-0.0143	-0.0008	-0.0158	-120
-0.0023	-0.0068	0.0015	-0.0413	-120.1
0	0	0.0007	-0.0713	-120.1
-0.0008	-0.0023	0.0045	-0.078	-120.2
-0.0008	-0.003	0.0045	-0.075	-120.2
0.0007	-0.0053	0.0045	-0.0758	-120.3
0.003	-0.033	0.0045	-0.0578	-120.3
0.0037	-0.0405	0.0052	-0.024	-120.4
0.0007	-0.0143	0.0045	0.003	-120.4
-0.0008	0.0142	0.0045	0.033	-120.5
0	0.0382	0.0045	0.0652	-120.6
-0.0008	0.054	0.0007	0.0772	-120.6
-0.0015	0.0457	0.0015	0.0742	-120.7
-0.003	0.0127	0.003	0.0637	-120.7
-0.0008	-0.0143	0.0045	0.0577	-120.7
0.0007	-0.0278	0.0015	0.048	-120.8
-0.0015	-0.0181	-0.0023	0.0202	-120.8
-0.0015	-0.0195	0.0007	0.0007	-120.9
0.0007	-0.0256	0.0007	-0.0158	-120.9
0.0015	-0.0293	-0.0008	-0.0361	-121
-0.0008	-0.0615	-0.003	-0.0511	-121
0.0037	-0.1006	-0.003	-0.0578	-121.1
0.0082	-0.1028	-0.003	-0.0443	-121.1
0.0082	-0.0878	-0.0068	-0.0346	-121.1
0.009	-0.048	-0.006	-0.03	-121.1
0.0097	0.036	-0.003	-0.0158	-121.2
0.0082	0.0652	0.0007	-0.006	-121.2
0.0067	0.075	0.0067	0.0157	-121.3
0.0045	0.1365	0.0082	0.009	-121.3
0	0.1627	0.0067	0.0067	-121.4
-0.0008	0.108	0.0045	0.042	-121.4
-0.0008	0.0465	0.0052	0.0622	-121.5
-0.003	0.036	0.006	0.0682	-121.5
-0.0046	0.0067	0.0067	0.0517	-121.5
-0.003	-0.0195	0.0082	0.027	-121.5
-0.0015	-0.0368	0.009	-0.0008	-121.6
-0.0008	-0.0548	0.0067	-0.027	-121.6
-0.0023	-0.0383	0.0045	-0.0458	-121.7
-0.0046	-0.0173	0.0015	-0.0525	-121.7
-0.0068	0.0097	-0.0008	-0.0293	-121.7
-0.0091	0.0172	-0.0008	-0.012	-121.8
-0.0091	0.0165	-0.0015	-0.0105	-121.8
-0.0091	0.009	-0.0015	0.0082	-121.9
-0.0091	-0.0105	-0.0008	0.0405	-121.9
-0.0083	-0.0315	0	0.042	-121.9
-0.0083	-0.06	-0.0015	0.0345	-122
-0.0046	-0.0773	-0.0015	0.0345	-122
0.0007	-0.0795	-0.0008	0.012	-122
0.0022	-0.033	-0.0023	-0.039	-122
0.0022	0.0142	-0.0046	-0.0713	-122.1
0.0007	0.0187	-0.006	-0.078	-122.1
0.0015	0.018	-0.0023	-0.06	-122.1
0.0015	0.0135	0.0037	-0.027	-122.2
0.0007	-0.0053	0.0052	0.009	-122.2
0.003	-0.0135	0.0067	0.0517	-122.2
0.0015	-0.0068	0.0082	0.03	-122.2
0.003	-0.0158	0.0097	0.021	-122.2
0.0067	-0.0203	0.0105	0.0345	-122.3
0.0067	-0.0135	0.0082	0.0337	-122.3
0.006	0.024	0.0045	0.054	-122.3
0.003	0.0607	0.0022	0.012	-122.3
-0.0008	0.0675	-0.0015	-0.03	-122.3
0	0.0367	-0.0046	-0.0375	-122.3
0.0007	0.0022	-0.0068	-0.0495	-122.3
-0.0008	-0.0195	-0.0083	-0.0436	-122.4
0.0007	-0.0398	-0.003	-0.0308	-122.4
0.0007	-0.0315	-0.003	-0.0338	-122.4
0.0007	-0.0465	0	-0.0383	-122.4
0.0007	-0.0436	0	-0.0278	-122.4
-0.0008	-0.0165	-0.0008	-0.0293	-122.4
0.0007	-0.0068	0.0037	-0.0315	-122.4
0.0007	0.021	0.003	-0.0165	-122.4
-0.0008	0.0397	0.0037	0.0105	-122.5
-0.0008	0.0097	0.0015	0.0255	-122.5
0	-0.0165	-0.0008	0.0465	-122.5
0.0007	0.0157	-0.0008	0.0615	-122.5
0.0007	0.0495	-0.0046	0.033	-122.5
-0.003	0.03	-0.0053	0.0067	-122.5
-0.0015	-0.0046	-0.0053	-0.0053	-122.5
-0.0008	-0.0346	-0.003	-0.0256	-122.5
0.0022	-0.0563	-0.0008	-0.0555	-122.5
0.0015	-0.03	0.0007	-0.0585	-122.5
-0.003	-0.0143	0.0052	-0.0083	-122.5
-0.0015	0.0165	0.0075	0.054	-122.5
0.0007	0.0382	0.009	0.1102	-122.5
0	0.0052	0.0097	0.117	-122.5
0	0.0112	0.0075	0.1095	-122.5
-0.0023	0.0202	0.0067	0.1192	-122.5
-0.0023	0.027	0.0067	0.0982	-122.5
-0.0015	0.0367	0.0045	0.0532	-122.5
-0.0008	0.0195	0.0007	-0.0015	-122.5
-0.0015	0.0015	-0.0008	-0.033	-122.5
-0.0008	-0.0091	0	-0.0683	-122.5
0	-0.012	0.0015	-0.0818	-122.5
0.0015	-0.0143	0.0007	-0.0825	-122.5
0.003	-0.0218	-0.0008	-0.063	-122.5
0.0045	-0.0278	0.0015	-0.0315	-122.5
0.0037	-0.0233	0.0015	-0.0458	-122.4
0	-0.0128	0.0007	-0.0346	-122.4
0.003	-0.0023	0.0007	-0.0158	-122.4
0.0045	-0.0128	0.0015	-0.0165	-122.4
0.003	-0.0361	0.0015	-0.0323	-122.4
0.0052	-0.039	0.0007	-0.0278	-122.4
0.0045	-0.048	-0.0008	-0.0278	-122.4
0.003	-0.0285	0.0007	-0.0256	-122.4
-0.0008	0.0037	0.0007	0.0165	-122.4
-0.003	0.0045	-0.0008	0.033	-122.4
-0.0053	0.027	-0.003	0.0405	-122.3
-0.0046	0.057	-0.0046	0.0442	-122.3
-0.003	0.0427	-0.0046	0.0352	-122.3
-0.0053	0.0382	-0.0008	0.0255	-122.3
-0.0053	0.0427	0.003	0.027	-122.3
-0.0068	0.0352	0.003	0.0007	-122.3
-0.0075	0.024	0.0067	-0.0188	-122.2
-0.006	0.006	0.0052	-0.0091	-122.2
-0.0053	-0.0083	0.003	-0.027	-122.2
-0.0046	-0.042	0.0022	-0.0308	-122.2
-0.0015	-0.0503	-0.0008	-0.0293	-122.1
0.0007	-0.0353	-0.0015	-0.0308	-122.1
0.0007	-0.0293	0.003	-0.0278	-122.1
0.0045	-0.0143	0.0045	-0.0308	-122.1
0.0067	0.0007	0.0045	-0.0233	-122
0.0045	0.0262	0.0022	-0.006	-122
0.0022	0.0472	0.0015	0.0082	-122
0.0022	0.0367	0.0067	0.0157	-122
0.0045	0.0142	0.0112	0.018	-122
0.0067	-0.0346	0.0135	0.0217	-121.9
0.006	-0.0548	0.012	0.0382	-121.9
0.0022	-0.0225	0.009	0.0525	-121.9
0.003	-0.0023	0.0082	0.0592	-121.9
0.0045	0.0427	0.0075	0.0472	-121.8
0.0037	0.063	0.0067	0.0202	-121.8
0.0007	0.0322	0.0015	-0.0105	-121.8
-0.0008	-0.0068	-0.0023	-0.0346	-121.7
0.0007	-0.0458	-0.0053	-0.0218	-121.7
0.0007	-0.0473	-0.0046	-0.0105	-121.7
0.0015	-0.0083	-0.0015	0.0007	-121.6
-0.0015	0.0262	0.0007	0.0255	-121.6
-0.0008	0.033	0.0037	0.0472	-121.5
0.0007	0.0225	0.0045	0.0592	-121.5
-0.0015	-0.0105	0.0015	0.03	-121.5
0.003	-0.0555	0.0015	-0.0015	-121.5
0.0052	-0.0915	0.0007	-0.0068	-121.4
0.006	-0.0765	0.0007	-0.0181	-121.4
0.003	-0.0068	0	-0.021	-121.4
-0.0008	0.0352	-0.0015	-0.0053	-121.3
-0.0015	0.0667	-0.003	-0.0098	-121.3
-0.006	0.0862	-0.006	-0.0143	-121.3
-0.0075	0.0382	-0.006	-0.0068	-121.2
-0.0091	0.0157	-0.006	0.0007	-121.2
-0.0046	0.015	-0.0038	-0.003	-121.1
-0.0015	-0.006	0	0.0015	-121.1
-0.0008	-0.0023	-0.0015	0.0105	-121.1
-0.0015	-0.0053	0	0.0165	-121.1
-0.0015	-0.0158	0.0007	0.003	-121
-0.0015	-0.0233	-0.0008	-0.024	-121
0.0007	-0.0128	0.0015	-0.0256	-120.9
0.0015	0.0022	-0.0008	-0.0338	-120.9
0.0015	0.0067	-0.0015	-0.0248	-120.8
0.0015	0.0082	-0.0015	-0.0128	-120.8
0.0007	0	-0.0015	-0.0233	-120.7
0.0022	-0.0105	0	-0.027	-120.7
0.0045	-0.0458	0	-0.0248	-120.6
0.006	-0.0833	0.0015	-0.0218	-120.6
0.0067	-0.1028	0.003	-0.0375	-120.6
0.0052	-0.1103	0.0037	-0.0495	-120.5
0.0037	-0.0825	0.0037	-0.0278	-120.5
0.0015	-0.0165	0.0045	-0.003	-120.4
0.0015	0.0742	0.0067	0.0082	-120.4
0.0015	0.114	0.003	0.006	-120.3
-0.0008	0.111	-0.0008	0.0082	-120.3
0	0.0675	0.0007	0.0232	-120.2
-0.0008	-0.0015	0.0022	0.0412	-120.2
0.0007	-0.027	0.0067	0.0517	-120.2
0.003	-0.0188	0.006	0.0585	-120.1
-0.0015	0.0105	0.0022	0.063	-120
-0.0068	0.0555	-0.0015	0.0517	-120
-0.0083	0.1012	-0.0023	0.0412	-119.9
-0.006	0.0877	0.0015	0.0285	-119.8
-0.0046	0.0352	0.0007	0.0067	-119.8
-0.0046	-0.0083	0.0007	-0.024	-119.7
-0.0046	-0.0458	0.0007	-0.0623	-119.7
-0.0038	-0.0623	0	-0.066	-119.6
-0.003	-0.0645	0	-0.0675	-119.6
-0.0008	-0.0735	-0.0015	-0.0593	-119.5
-0.0015	-0.0615	-0.0015	-0.042	-119.5
-0.0015	-0.0225	-0.003	-0.0503	-119.4
-0.0015	-0.0278	-0.0046	-0.0293	-119.3
-0.0008	-0.039	-0.0038	-0.0165	-119.3
0.0007	-0.0135	-0.003	-0.0053	-119.3
0.0007	0.012	-0.0015	0.033	-119.2
0.003	0.0202	-0.0008	0.0367	-119.1
0.0022	0.021	-0.0015	0.048	-119.1
0.0037	0.027	-0.0008	0.0472	-119
0.0067	0.003	0.0022	0.045	-118.9
0.006	-0.0218	0.0067	0.0742	-118.9
0.0067	-0.057	0.0097	0.063	-118.8
0.0067	-0.0893	0.0082	0.039	-118.8
0.003	-0.0608	0.0067	0.036	-118.7
-0.0008	-0.0113	0.0067	0.0465	-118.7
-0.0038	0.0532	0.0037	0.015	-118.6
-0.0038	0.102	0.0022	-0.0443	-118.5
-0.003	0.141	0.0007	-0.0608	-118.4
-0.0046	0.1402	-0.003	-0.039	-118.4
-0.0053	0.0637	-0.0046	0.009	-118.4
-0.003	0.0127	-0.003	0.0202	-118.3
-0.0053	-0.0105	-0.0015	0.0292	-118.2
-0.0038	-0.0105	0	0.024	-118.2
-0.003	0.003	0.0007	0.015	-118.1
-0.0046	-0.0203	-0.003	0.0217	-118
-0.0008	-0.0091	-0.0015	0.0037	-118
-0.0008	0.0082	-0.0023	-0.0158	-117.9
-0.0008	0.009	0.0007	-0.039	-117.9
0	-0.0091	0.0015	-0.042	-117.8
-0.0015	-0.0308	0	-0.0405	-117.7
-0.003	-0.0398	0	-0.042	-117.7
-0.0008	-0.054	-0.0015	-0.0495	-117.6
0.003	-0.0615	0.0022	-0.054	-117.5
0.0045	-0.0706	0.0075	-0.042	-117.5
0.0067	-0.0555	0.0097	-0.0368	-117.4
0.0067	-0.0533	0.0105	-0.0225	-117.4
0.0075	-0.0428	0.006	-0.0083	-117.3
0.0045	-0.0038	0.0052	0.0082	-117.2
0.0007	0.024	0.003	0.03	-117.2
0.0045	0.0555	0.0015	0.042	-117.1
0.0052	0.0532	0.0015	0.0255	-117
0.0052	0.018	0.0007	0.0045	-117
0.0022	-0.0053	-0.0008	-0.0165	-116.9
0.0007	-0.0091	-0.0046	-0.0263	-116.9
-0.0046	0.0157	-0.0046	-0.0091	-116.8
-0.0068	0.048	-0.003	-0.0105	-116.7
-0.0038	0.069	-0.0008	0.0165	-116.6
-0.0015	0.054	0.0007	0.0457	-116.6
-0.0008	0.027	0.0045	0.063	-116.5
0.0015	0.0165	0.0075	0.0652	-116.5
0.003	-0.0128	0.006	0.0345	-116.4
0.0045	-0.0585	0.0022	0.0255	-116.3
0.0045	-0.0908	0.0007	0.0172	-116.2
0.0022	-0.0938	0	0.0142	-116.2
0.0007	-0.0608	0.003	-0.0278	-116.1
0.0037	-0.0143	0.0067	-0.081	-116.1
0	0.0217	0.0052	-0.054	-116
-0.0015	0.042	0.003	-0.0293	-115.9
0	0.0555	0.0022	-0.0165	-115.8
-0.0023	0.036	0.0022	0.0022	-115.8
-0.0015	0.0045	0.0067	0.0015	-115.7
0.0007	-0.0015	0.0045	0.0217	-115.7
0.003	0.006	0.003	0.0307	-115.6
0.0045	0.0045	0.0015	0.0345	-115.5
0.003	-0.0083	0.0015	0.0465	-115.5
0.003	-0.006	0.0067	0.06	-115.4
0.0052	-0.0361	0.0052	0.0412	-115.3
0.0022	-0.057	0.0007	0.0127	-115.2
-0.003	-0.0188	-0.0015	0.0232	-115.2
-0.0023	0.0285	-0.0038	0.0157	-115.1
-0.0008	0.1027	-0.0008	0.0217	-115.1
-0.003	0.1095	-0.0015	0.033	-115
-0.0046	0.0652	-0.0038	0.0277	-114.9
-0.0053	0.0367	-0.0046	0	-114.9
-0.006	-0.0256	-0.003	-0.0293	-114.8
-0.0046	-0.042	-0.0015	-0.0405	-114.8
-0.003	-0.039	-0.003	-0.0593	-114.7
-0.003	-0.048	-0.003	-0.0645	-114.6
-0.0015	-0.0443	-0.0008	-0.0691	-114.6
0	-0.0436	0.0015	-0.0555	-114.5
-0.0008	-0.0353	0.003	-0.0413	-114.4
0.0007	-0.0323	0.0045	-0.048	-114.4
0.0015	-0.0015	0.0045	-0.0413	-114.3
0	0.0292	0.0015	-0.0233	-114.3
-0.0008	0.0255	0.0015	0.0082	-114.2
-0.0008	0.027	0.0015	0.0277	-114.2
0.0007	0.0157	0.0015	0.0195	-114.1
-0.0008	-0.0263	0.0045	0.0255	-114
0.0007	-0.0511	0.0075	0.0105	-114
0.0007	-0.0361	0.0067	-0.0375	-113.9
-0.0008	-0.0285	0.0045	-0.015	-113.9
-0.0053	-0.0143	0.0007	-0.0015	-113.8
-0.0068	0.0097	0.0007	0.0022	-113.7
-0.0046	0.0345	0.0007	0.033	-113.7
-0.0046	0.039	0.0007	0.042	-113.6
0.0007	0.0255	0.003	0.0667	-113.5
0.0052	0.0292	0.0022	0.0645	-113.4
0.0052	0.0112	0.0015	0.0577	-113.4
0.003	-0.0293	0	0.0262	-113.4
-0.0008	-0.0953	-0.003	-0.0158	-113.3
0.0015	-0.1275	-0.003	-0.0548	-113.2
0.0015	-0.096	-0.0023	-0.0915	-113.1
0.0015	-0.0465	-0.0015	-0.063	-113.1
0.0045	0.018	0.0007	-0.039	-113
0.0052	0.087	0.003	-0.0233	-113
0.003	0.0967	0.0015	0.009	-112.9
0.0015	0.0555	-0.0015	0.0555	-112.8
0.0022	0.0555	0.0007	0.0705	-112.8
0.0015	0.0442	0.0037	0.0622	-112.7
0.003	0.0277	0.0037	0.036	-112.7
0.0007	0.0442	0.0007	0.0097	-112.6
-0.0015	0.0427	-0.0023	-0.0046	-112.5
-0.0008	0.012	-0.0015	-0.0383	-112.5
-0.0023	-0.0203	0.0007	-0.0405	-112.5
-0.0023	-0.024	0.0022	-0.033	-112.4
-0.003	-0.0413	0.0015	-0.0263	-112.4
-0.0015	-0.0615	0.0015	-0.0143	-112.3
-0.0015	-0.057	0	0.003	-112.2
-0.0008	-0.0405	0.003	0.033	-112.2
0.003	-0.0338	0.0067	0.0202	-112.1
0.0045	-0.0015	0.0075	0.003	-112.1
0.003	0.0457	0.0045	0.0127	-112.1
0.0015	0.0585	0.0015	0.018	-112
0.0007	0.0495	0.003	-0.0023	-112
0.0015	0.0255	0.0022	-0.0158	-111.9
0.0015	-0.0015	0.0007	-0.003	-111.8
0.0022	-0.0113	0.0015	0.009	-111.8
0.003	-0.0181	0.003	0.0217	-111.7
0.0007	-0.0143	0.0022	0.012	-111.7
-0.0008	0.0082	0.0007	0.0097	-111.6
0.0007	0.003	-0.0008	0.0202	-111.6
0.0007	0.0097	-0.003	0.0052	-111.6
-0.003	0.0172	-0.006	-0.0143	-111.5
-0.006	0.0082	-0.0046	-0.027	-111.5
-0.0053	-0.0023	-0.0023	-0.0248	-111.4
-0.0038	-0.0128	0.0007	-0.0091	-111.4
-0.0008	-0.0218	0.0037	-0.0091	-111.3
0.003	-0.063	0.0045	-0.024	-111.2
0.003	-0.084	0.0052	-0.0383	-111.2
0.0007	-0.0713	0.0045	-0.0615	-111.2
-0.0023	-0.0323	0.0015	-0.0608	-111.1
-0.003	0.0345	0.0015	-0.0383	-111.1
-0.0038	0.081	0.0015	-0.015	-111
-0.0038	0.0877	0.0007	-0.0053	-111
-0.003	0.0667	-0.003	0.0052	-110.9
-0.0008	0.0142	-0.006	0.03	-110.9
0.0007	-0.0278	-0.0046	0.0592	-110.8
0	-0.0338	-0.0046	0.0667	-110.8
0.003	-0.0346	0.0007	0.0517	-110.7
0.003	-0.0083	0.0037	0.0555	-110.7
0.0045	0.0045	0.0022	0.0517	-110.7
0.0037	-0.0068	0.0045	0.0255	-110.7
0.0007	0.0015	0.0045	0.0142	-110.6
0	0.0172	0.0045	0.0007	-110.6
-0.0008	0.0322	0.0045	-0.0046	-110.5
-0.0015	0.0292	0.003	0.0045	-110.5
-0.0015	-0.0008	0.0037	0.018	-110.4
0	-0.0091	0.0015	0.0382	-110.4
-0.0008	0.0225	0.0007	0.0375	-110.4
-0.0015	0.0082	0	0.0015	-110.3
0.0015	-0.0495	0	-0.0383	-110.3
0.003	-0.0525	0	-0.0458	-110.3
0	-0.0248	-0.0023	-0.0218	-110.2
-0.0008	-0.0346	0.0007	-0.015	-110.2
-0.0023	-0.0315	0.0037	-0.03	-110.2
-0.003	-0.003	0.0045	-0.0383	-110.1
-0.0008	0.009	0.0015	-0.033	-110.1
-0.0008	0.0075	-0.003	-0.0256	-110
0.0007	0.0157	-0.0015	-0.042	-110
0.003	0.039	0.0007	-0.0195	-110
0.003	0.0435	0.0015	-0.0008	-109.9
0.003	0.0255	0.003	-0.0046	-109.9
0.0052	0.0045	0.003	0.0142	-109.8
0.0067	-0.0233	0.0037	0.0127	-109.8
0.006	-0.0436	0.0015	0.0232	-109.8
0.0037	-0.0593	0.0007	0.0165	-109.8
0.0015	-0.0893	0	0.009	-109.8
0	-0.078	-0.0008	0.009	-109.7
0.0007	-0.0203	-0.0008	-0.0158	-109.7
-0.0008	0.0217	-0.0008	-0.015	-109.7
-0.0008	0.0427	-0.0008	-0.024	-109.6
-0.0015	0.075	-0.003	-0.0248	-109.6
-0.003	0.0712	-0.003	-0.0173	-109.5
0.0007	0.0382	0.0007	-0.0173	-109.5
0.0015	0.0225	0.0052	-0.03	-109.5
0.0045	-0.039	0.0075	-0.078	-109.4
0.0052	-0.1088	0.0067	-0.063	-109.4
0.0022	-0.1058	0.0037	-0.0143	-109.4
-0.0053	-0.024	-0.0008	0.0232	-109.4
-0.0091	0.0637	0.0007	0.0907	-109.4
-0.0015	0.132	0	0.1327	-109.3
-0.0046	0.183	0	0.1582	-109.3
-0.003	0.1717	0.0045	0.1597	-109.3
0	0.1162	0.006	0.1035	-109.3
-0.003	0.0525	0.0052	0.0495	-109.2
-0.0023	0.0022	0.0045	-0.0038	-109.2
-0.0046	-0.039	0.003	-0.039	-109.2
-0.003	-0.0803	0.0007	-0.0165	-109.1
-0.0023	-0.0803	0.0007	-0.024	-109.1
-0.0008	-0.0638	0	-0.0615	-109.1
0.0007	-0.0698	-0.0008	-0.063	-109.1
0.0015	-0.0795	0	-0.078	-109
0.0045	-0.093	-0.0015	-0.0863	-109
0.0082	-0.1095	-0.0008	-0.0675	-109
0.009	-0.0945	-0.0008	-0.0533	-109
0.0097	-0.0398	0.0015	-0.0428	-108.9
0.0045	0.0427	0.0015	-0.0218	-108.9
0.0015	0.0825	0.0007	-0.0158	-108.9
0.0022	0.084	0.0015	-0.0293	-108.9
0.0015	0.0592	0.0015	0.0135	-108.9
0.003	-0.0015	0.0007	0.0405	-108.8
0.0015	-0.0233	0.0007	0.036	-108.8
0.003	-0.057	0.0037	0.0435	-108.8
0.003	-0.1006	0.0052	0.0405	-108.8
0.0015	-0.099	0.0067	0.0472	-108.8
-0.0015	-0.0511	0.0045	0.045	-108.7
-0.0091	0.0195	-0.0015	0.0532	-108.7
-0.0075	0.0765	-0.0023	0.0742	-108.7
-0.0068	0.1387	-0.0023	0.0472	-108.6
-0.0068	0.132	-0.0015	0.0045	-108.6
-0.0068	0.0705	-0.0023	-0.0256	-108.6
-0.006	0.0007	-0.0038	-0.0405	-108.6
-0.0015	-0.0683	-0.0023	-0.0383	-108.5
0.0015	-0.1223	0.0007	-0.0428	-108.5
0.0037	-0.1275	0.003	-0.0405	-108.5
0.003	-0.0405	0.0015	-0.0308	-108.5
0.0022	0.045	0.0007	-0.0405	-108.5
-0.0008	0.0855	0	-0.0473	-108.5
-0.0015	0.0825	-0.0008	-0.0308	-108.5
0.0007	0.033	0.0015	-0.0203	-108.5
-0.0008	-0.0278	0.0015	-0.0113	-108.4
0.0007	-0.0533	0.0015	-0.0105	-108.4
0.003	-0.0256	-0.0015	0	-108.4
0.0015	0.0052	-0.0008	0.0352	-108.4
