File Name: 6Nsen.log
Channel 1: 'RF', 20500 values, engineering units: mV, no filters.
Channel 2: 'BF', 20500 values, engineering units: mV, no filters.
Channel 3: 'VM', 20500 values, engineering units: mV, no filters.
Channel 4: 'ST', 20500 values, engineering units: mV, no filters.
Channel 5: 'FX', 1025 values, engineering units: deg, no filters, extrapolated from 50 to 1000 samples per second.

-0.0015	0.0022	0.0052	-0.0293	-77.5
-0.0068	0.009	0.009	0.009	-77.5
-0.0053	0.0067	0.0052	-0.0083	-77.5
-0.0038	0.003	-0.0015	-0.0278	-77.4
-0.0038	0.0007	-0.0046	-0.0315	-77.4
-0.0038	-0.0008	-0.0068	-0.042	-77.4
-0.003	-0.0015	-0.0068	-0.0495	-77.4
-0.0015	-0.0008	-0.0046	-0.0383	-77.4
-0.0015	0.0007	-0.0046	-0.0143	-77.4
-0.0008	0.0007	-0.0008	0.0442	-77.3
0.0045	0.0015	-0.0008	0.051	-77.3
0.006	0.0007	-0.0008	0.0345	-77.3
0.003	0.0022	-0.0008	0.0247	-77.3
0.003	0.003	-0.003	0.0082	-77.2
0.0067	-0.0015	-0.0015	0	-77.2
0.009	-0.0023	-0.0023	-0.006	-77.2
0.009	-0.0015	0.0015	-0.0083	-77.2
0.0075	-0.0008	0.0045	-0.0015	-77.1
0.0052	-0.0008	0.0067	0.0052	-77.1
0.0045	-0.0008	0.0052	0.009	-77.1
0.003	0.0015	-0.0008	0.0045	-77.1
0.003	0.0007	0	0.0052	-77.1
0.0015	0	0.0007	0.0165	-77.1
-0.0008	-0.0008	0.0015	0.033	-77
-0.0008	0.0007	0.0015	0.0517	-77
-0.0008	0.0007	0.0007	0.0577	-77
-0.0008	-0.0015	0.0015	0.0637	-77
-0.0008	-0.0008	0.0007	0.075	-77
-0.0008	-0.0015	-0.0015	0.0877	-77
0.0007	-0.0015	-0.0046	0.102	-77
0.0022	0.003	-0.0038	0.1117	-77
0.0007	0.0052	0.0007	0.1177	-77
-0.0046	0.0037	0.003	0.1282	-77
-0.0038	-0.0015	0.0045	0.1447	-77
-0.0023	-0.0015	0.003	0.1477	-77
-0.0046	-0.003	0.0007	0.144	-77
-0.0008	-0.003	-0.0015	0.144	-77
-0.003	-0.0015	-0.0023	0.1402	-77
-0.0053	-0.003	0.0015	0.1492	-76.9
-0.0046	-0.0008	0.0022	0.1597	-76.9
-0.003	0	0.0007	0.1537	-76.9
-0.0015	-0.0008	0.003	0.1402	-76.9
-0.003	0	0.0015	0.1237	-76.9
-0.0053	-0.0023	0.0015	0.1042	-76.9
-0.0068	-0.0015	0.0022	0.0877	-76.9
-0.0046	-0.0015	0.0007	0.0615	-76.9
-0.0023	-0.0038	0.0045	0.0292	-76.9
-0.0015	-0.003	0.0052	0.0255	-76.9
0.0007	-0.003	0.006	0.0217	-76.9
0	-0.0023	0.0075	0.018	-76.9
-0.0008	-0.003	0.0052	0.0195	-76.8
-0.0015	-0.0015	0.0045	0.0202	-76.8
-0.0046	-0.0015	0.0037	0.0285	-76.8
-0.003	-0.0008	0.003	0.0202	-76.8
-0.0008	0.0015	0.003	0.0232	-76.8
0.0007	0.0007	0.0015	0.0247	-76.8
0.0007	0	0.0007	0.027	-76.8
0.0045	-0.003	-0.0015	0.0292	-76.8
0.0052	-0.0053	-0.003	0.018	-76.8
0.003	-0.006	-0.003	0.0232	-76.8
0.0015	-0.0068	-0.003	0.0382	-76.8
0	-0.0046	-0.0015	0.0495	-76.8
0.0007	0.0037	-0.0008	0.0427	-76.7
0.0007	0.0067	0	0.0345	-76.7
0.0037	0.0015	0.0007	0.0255	-76.7
0.006	-0.0046	-0.0015	0.0165	-76.7
0.0022	-0.012	-0.003	0.024	-76.7
0.0022	-0.0158	-0.0008	0.0442	-76.7
0.0015	-0.0165	-0.0008	0.0585	-76.7
0.0007	-0.0158	0.0015	0.045	-76.7
0.0022	-0.0128	0.003	0.0322	-76.6
0.0007	-0.0135	0.003	0.0142	-76.6
0.0015	-0.0098	0.003	-0.0068	-76.6
0.003	-0.0068	0.0015	-0.015	-76.6
0.003	-0.0038	0.003	-0.0256	-76.6
0.0045	-0.0015	0.003	-0.033	-76.6
0.0075	-0.003	0.0045	-0.0428	-76.6
0.0045	-0.0015	0.0052	-0.033	-76.6
0.0015	-0.0008	0.0037	-0.0233	-76.5
-0.0008	-0.0015	0.0045	-0.0233	-76.5
-0.003	-0.0008	0.0007	-0.0203	-76.5
-0.0038	0.0007	0	-0.0203	-76.5
0.0007	-0.0008	0.0007	-0.0128	-76.5
0.0015	0	0.0015	-0.0105	-76.5
0	0.0015	0.0015	-0.0083	-76.5
-0.0015	0.0015	-0.0008	-0.0015	-76.5
-0.0053	0.0015	0.003	0.003	-76.5
-0.006	0	0.0052	-0.0008	-76.5
-0.0083	-0.0008	0.0082	-0.0008	-76.5
-0.0083	-0.0008	0.0082	-0.0038	-76.5
-0.0053	-0.0015	0.003	-0.0053	-76.5
-0.0038	-0.0015	0.0067	0.0045	-76.5
-0.0015	0	0.0067	0.0052	-76.5
-0.0008	0.0045	0.0045	0.0007	-76.4
0.0015	0.006	0.003	-0.0046	-76.4
0.0045	0.0045	0.0015	-0.0053	-76.4
0.003	0.0015	0.003	-0.0008	-76.4
0.0015	0.0015	0.003	0.0045	-76.4
0.0022	0.003	0.0045	0.009	-76.4
0.0015	0.0045	0.0037	0.015	-76.4
-0.0008	0.0045	0.0007	0.0195	-76.4
0.0015	0.0037	-0.0015	0.018	-76.4
0.003	0.003	-0.0023	0.0142	-76.4
0.003	0	-0.0023	0.0135	-76.4
0.0015	0	-0.0023	0.015	-76.3
-0.0015	-0.003	0.0007	0.012	-76.3
-0.0015	-0.0046	-0.0008	0.012	-76.3
-0.0015	-0.0046	-0.003	0.0105	-76.3
0.0007	-0.006	-0.0023	0.0142	-76.3
0.0015	-0.0053	-0.003	0.0157	-76.3
0.0015	-0.0046	-0.0023	0.0142	-76.3
0.0022	-0.0023	-0.0038	0.0645	-76.3
0.0015	-0.0015	-0.0008	0.1837	-76.3
-0.0008	-0.0038	0.003	0.2362	-76.3
-0.0008	-0.0015	0.0022	0.1837	-76.3
0.0007	-0.0008	0.0052	0.1635	-76.3
0.003	0.0007	0.0045	0.1162	-76.3
0.0052	0	0.0045	0.0802	-76.2
0.0022	-0.0015	0.0045	0.0607	-76.2
0.0015	-0.0038	-0.0008	0.0217	-76.2
0.003	-0.0053	-0.0015	0.0135	-76.2
0.003	-0.0038	0	-0.015	-76.2
0.0037	-0.0046	0.0007	-0.0233	-76.2
0.0015	-0.0046	0.0022	-0.0346	-76.2
-0.0015	-0.0046	0.0037	-0.0405	-76.2
-0.0046	-0.0046	0.0045	-0.0428	-76.2
-0.0053	-0.003	0.0045	-0.0503	-76.2
-0.006	-0.003	0.0082	-0.0525	-76.2
-0.0053	-0.003	0.0075	-0.0653	-76.2
-0.003	-0.0008	0.006	-0.0668	-76.2
-0.0023	-0.0008	0.009	-0.0773	-76.2
-0.003	0	0.0052	-0.078	-76.2
-0.003	-0.0008	0.0052	-0.0706	-76.2
-0.003	-0.0008	0.0052	-0.0623	-76.2
-0.0053	-0.0023	0.0015	-0.0511	-76.2
-0.0053	-0.0015	-0.0015	-0.0443	-76.2
-0.0046	0.0015	-0.0023	-0.033	-76.2
-0.0046	0.0007	-0.0008	-0.024	-76.2
-0.0015	0.0007	-0.0023	-0.0181	-76.2
-0.0008	0	-0.0023	-0.0173	-76.2
0.0015	0.0007	-0.0023	-0.0173	-76.2
0.003	0.0015	-0.0023	-0.0143	-76.2
0.0007	0.0007	-0.003	-0.0173	-76.2
-0.003	0.0015	-0.003	-0.0285	-76.2
-0.0038	0.0015	0.0015	-0.0368	-76.2
-0.0015	0.0015	0.0015	-0.0405	-76.2
0.0022	-0.0008	0.003	-0.0383	-76.2
0.0045	0.0007	0.0022	-0.0346	-76.2
0.0045	-0.0008	0.0022	-0.03	-76.2
0.003	-0.0008	0.003	-0.0218	-76.2
0	0.0007	0.0007	-0.0158	-76.2
-0.0023	0.0015	-0.0008	-0.012	-76.2
-0.0015	0.0015	-0.0023	-0.0053	-76.2
-0.0046	0.0007	-0.0015	0.0007	-76.2
-0.0053	0.0015	-0.0008	0.0015	-76.2
-0.0046	-0.0008	-0.0038	0.0067	-76.3
-0.0053	-0.003	-0.0023	0.0082	-76.3
-0.0015	-0.003	-0.0015	0.0037	-76.3
-0.0015	-0.003	-0.0008	0.0075	-76.3
-0.0015	-0.003	0.0015	0.0142	-76.3
0.0015	-0.0023	0.0007	0.0195	-76.3
0.0037	-0.0015	0.0022	0.0247	-76.3
0.0075	-0.0023	0.0015	0.024	-76.3
0.009	-0.003	-0.003	0.0217	-76.3
0.0105	-0.0015	-0.0015	0.018	-76.3
0.0097	-0.0008	0.0015	0.0195	-76.4
0.0097	0.0015	0.0045	0.021	-76.4
0.0127	0.0015	0.0052	0.015	-76.4
0.0105	-0.0008	0.0052	0.0127	-76.4
0.0067	0.0007	0.0067	0.0127	-76.4
0.0067	0.0007	0.0052	0.0142	-76.5
0.0052	0.0015	0.003	0.015	-76.5
0.0022	0.0015	0.0007	0.018	-76.5
-0.0008	0.0022	-0.0008	0.0127	-76.5
-0.0015	0.0007	0.0007	0.0037	-76.5
-0.0023	-0.0015	-0.0046	0.0045	-76.5
-0.0015	-0.0046	-0.0068	0.0067	-76.5
-0.0015	-0.0046	-0.0083	0.0082	-76.5
0.0007	-0.0015	-0.0068	0.0052	-76.5
0.0007	-0.003	-0.0038	0.003	-76.6
-0.0015	-0.0015	-0.003	0.0037	-76.6
-0.0053	-0.0015	0.0015	0.0045	-76.6
-0.0083	-0.0015	0.0015	0.0037	-76.6
-0.0083	0.0007	0.0015	0.0037	-76.6
-0.0068	-0.0008	0.0045	0.006	-76.7
-0.0075	0.0007	0.0052	0.009	-76.7
-0.0083	0.003	0.0075	0.0082	-76.7
-0.0046	0.0015	0.0037	0.0127	-76.7
-0.0046	0.0007	0.0015	0.0157	-76.8
-0.0023	0.0022	0.0007	0.0135	-76.8
0.0007	0	-0.0008	0.0135	-76.8
0.003	-0.0008	-0.0008	0.009	-76.8
0.0052	0.0007	-0.0015	0.006	-76.8
0.0045	0.0007	-0.0053	0.0067	-76.9
0.0045	0.0015	-0.006	0.0067	-76.9
0.003	0	0.0007	0.0067	-76.9
0.0015	0.0007	0.0037	0.0075	-76.9
0.0015	0.0015	0.0075	0.006	-77
-0.0015	0.0015	0.0105	0.0045	-77
-0.003	-0.0008	0.0112	0.0067	-77
-0.0038	-0.0015	0.012	0.0082	-77
-0.0038	-0.0023	0.009	0.009	-77
-0.0046	-0.003	0.0052	0.0135	-77
-0.0046	-0.0038	0.0015	0.018	-77.1
-0.0038	-0.0023	-0.0023	0.0202	-77.1
-0.0023	0.0015	-0.0068	0.0172	-77.1
0.0007	-0.0008	-0.0053	0.012	-77.1
0.003	0.0015	-0.0015	0.0082	-77.1
0.0037	0.0007	-0.0015	0.003	-77.2
0.0022	-0.0008	-0.0046	0.0015	-77.2
0.003	-0.0008	-0.0053	0.003	-77.2
0.0045	-0.0015	-0.0038	0.0037	-77.3
0.0015	-0.0008	-0.0008	0.0075	-77.3
0.0007	-0.003	0.006	0.009	-77.3
0.0007	-0.0038	0.0067	0.0127	-77.3
0.003	-0.0053	0.0067	0.018	-77.4
0.0037	-0.0053	0.0052	0.0195	-77.4
0.0015	-0.0046	0.0007	0.021	-77.4
0.0007	-0.0053	0.0007	0.021	-77.4
-0.0008	-0.0053	-0.0015	0.0195	-77.4
-0.0008	-0.0046	-0.0023	0.0157	-77.5
0.0015	-0.0053	0	0.0135	-77.5
0.0015	-0.003	0.0015	0.0052	-77.5
0.0007	0.0007	0.0045	-0.0068	-77.5
-0.0008	0	0.0067	-0.0128	-77.5
0	-0.0023	0.0045	-0.0165	-77.6
0.003	-0.003	0.0007	-0.0135	-77.6
0	0.0007	-0.0023	-0.0105	-77.6
0.0007	0.0045	-0.0023	-0.0128	-77.6
0.003	0.0045	-0.0008	-0.015	-77.7
0.003	0.0052	-0.0015	-0.0105	-77.7
0.0045	0.0045	-0.0015	-0.003	-77.7
0.0037	0.003	0.0007	0.0022	-77.8
0.0022	0.0045	0.0037	0.009	-77.8
0.0045	0.0045	0.0022	0.0127	-77.8
0.006	0.003	-0.0008	0.0142	-77.8
0.0045	0.0015	-0.0038	0.0127	-77.9
0.003	0.0015	-0.0068	0.009	-77.9
0.0022	0.0015	-0.003	0.0022	-77.9
0.0007	0.0015	-0.0023	-0.0015	-77.9
0.0015	0.0007	0.0007	0.003	-78
-0.0015	0	0.0052	0.0022	-78
-0.006	-0.0015	0.0067	0.0015	-78
-0.0068	-0.006	0.0052	0.0045	-78
-0.0075	-0.0053	0.0052	0.0015	-78
-0.0068	-0.0038	0.0052	0.0022	-78
-0.0046	-0.0068	-0.0008	-0.0008	-78
-0.0046	-0.0091	-0.0038	-0.0143	-78
-0.003	-0.0113	-0.003	-0.0195	-78
-0.003	-0.012	0.0015	-0.0165	-78.1
-0.003	-0.0083	0.0082	-0.0135	-78.1
-0.0015	-0.0068	0.0097	-0.0098	-78.1
-0.0008	-0.0068	0.0105	-0.0023	-78.1
0.0015	-0.0053	0.009	0.0052	-78.1
0.0022	-0.0046	0.0075	0.0067	-78.1
0.0007	-0.0015	0.0067	0.009	-78.2
-0.003	-0.0008	0.0082	0.0052	-78.2
-0.0053	0	0.0082	-0.0046	-78.2
-0.0046	0.0007	0.0052	-0.0128	-78.2
-0.0046	0.0007	0.0045	-0.012	-78.2
-0.0046	0.0007	0.0007	-0.003	-78.3
-0.0038	-0.0015	-0.0008	0.003	-78.3
-0.0023	0	-0.0038	0.006	-78.3
0.0007	0.0007	-0.0068	0.009	-78.3
0.0015	-0.0008	-0.0046	0.012	-78.3
0.003	-0.0008	-0.003	0.0105	-78.3
0.0022	0.003	-0.0015	0.006	-78.3
0.0007	0.0045	0	0.0045	-78.3
0.0015	0.0015	-0.0038	0.0142	-78.3
0.0007	0.003	-0.0015	0.0127	-78.3
0.0007	-0.0008	-0.0008	-0.0008	-78.3
0.003	-0.0008	0	-0.0053	-78.3
0.0052	-0.0008	0.003	-0.0188	-78.4
0.0037	-0.0008	-0.0008	-0.0278	-78.4
0.003	0.0015	-0.003	-0.027	-78.4
0.0015	0.0015	-0.0038	-0.0278	-78.4
-0.0008	0.0015	-0.0008	-0.027	-78.4
0.0007	-0.0008	0.003	-0.033	-78.4
0.0015	-0.003	0.0007	-0.0346	-78.4
0.0015	-0.0053	0.003	-0.0413	-78.5
0.0022	-0.0046	0.0045	-0.0473	-78.5
0.0015	-0.0038	0.0052	-0.0405	-78.5
0.003	-0.0038	0.003	-0.0361	-78.5
0.003	-0.0038	0.0007	-0.033	-78.5
0.003	-0.0015	0.003	-0.0293	-78.5
0.003	-0.0023	0.0022	-0.0443	-78.5
-0.0015	-0.0046	0.006	-0.0788	-78.5
-0.0015	-0.0038	0.0052	-0.1313	-78.5
-0.0008	-0.0008	0.0022	-0.1726	-78.5
0.0007	0.0037	0.0015	-0.1726	-78.5
0.0052	0.0052	0	-0.1688	-78.5
0.006	0.0007	-0.0008	-0.1388	-78.5
0.006	-0.003	-0.0008	-0.0795	-78.5
0.0052	-0.0053	0.0052	-0.024	-78.5
0.0037	-0.0091	0.0045	0.024	-78.5
0.003	-0.0105	0.0015	0.0615	-78.5
0.0007	-0.0083	0.003	0.105	-78.5
-0.0015	-0.0038	0.0015	0.1387	-78.5
-0.0046	0.0007	0.003	0.15	-78.5
-0.0023	0.003	0.0022	0.1342	-78.5
-0.0015	0.0067	0.003	0.1065	-78.5
-0.0023	0.0067	0.0045	0.0787	-78.5
-0.0008	0.0045	0.003	0.0472	-78.5
-0.0008	0.0052	0.0015	0.0172	-78.5
0.0015	0.0052	-0.0015	-0.0165	-78.5
0.0022	0.0045	-0.0008	-0.0511	-78.5
0.0007	0.003	0.0037	-0.0803	-78.5
0	0.0007	0.0037	-0.0893	-78.5
0.0015	0.003	0.0045	-0.0848	-78.5
0.0015	0.0052	0.0082	-0.0803	-78.5
-0.0023	0.003	0.0067	-0.0721	-78.5
-0.0015	0.0052	0.0052	-0.0773	-78.5
-0.0015	0.006	0.0067	-0.093	-78.5
-0.0015	0.0045	0.0082	-0.1298	-78.5
-0.0015	0.003	0.0082	-0.1778	-78.5
-0.003	0.0007	0.0045	-0.21	-78.5
-0.0023	-0.0008	-0.0008	-0.249	-78.5
-0.0046	-0.0038	-0.0023	-0.291	-78.5
-0.003	-0.0075	-0.0053	-0.3045	-78.5
-0.003	-0.0083	-0.003	-0.3158	-78.5
-0.0038	-0.0068	-0.0008	-0.3188	-78.6
-0.0038	-0.0068	0	-0.3075	-78.6
-0.0046	-0.006	0.0015	-0.2836	-78.6
-0.0046	-0.0068	0	-0.2438	-78.6
-0.0038	-0.006	0.0015	-0.2198	-78.6
-0.0008	-0.0068	0.0015	-0.186	-78.6
-0.003	-0.006	-0.0008	-0.1493	-78.6
-0.0023	-0.0008	0.0007	-0.1275	-78.6
-0.0023	0.0007	-0.0023	-0.1703	-78.6
-0.0046	0.0007	-0.0008	-0.2881	-78.6
-0.0008	-0.0015	-0.0008	-0.3368	-78.7
0	-0.0015	0.0015	-0.3105	-78.7
-0.0015	-0.0023	0.0052	-0.2618	-78.7
-0.0015	-0.0015	0.0045	-0.1785	-78.7
-0.0008	-0.0015	0.0037	-0.1028	-78.7
0.0037	-0.0008	0.0022	-0.0233	-78.7
0.0045	-0.0008	-0.0015	0.0517	-78.7
0.0045	-0.0008	-0.0023	0.1087	-78.7
0.0052	-0.0008	-0.003	0.15	-78.7
0.0052	-0.003	-0.003	0.165	-78.8
0.006	-0.003	0.0015	0.1815	-78.8
0.0052	-0.003	0.0045	0.2002	-78.8
0.0015	-0.0023	0.0045	0.2212	-78.8
0	-0.0008	0.0037	0.2445	-78.8
0.0007	-0.0008	0.0045	0.2677	-78.8
0.003	-0.0008	0.006	0.2895	-78.8
0.0052	0	0.0075	0.306	-78.8
0.0067	-0.0015	0.0052	0.3195	-78.8
0.0105	-0.0046	0.003	0.33	-78.8
0.0105	-0.003	0.0045	0.3367	-78.8
0.0105	-0.0008	0.0037	0.3322	-78.8
0.009	-0.0015	0.0052	0.3195	-78.8
0.006	-0.0046	0.0052	0.3142	-78.8
0.0037	-0.0046	0.0007	0.312	-78.8
0.0022	-0.0053	-0.0023	0.306	-78.8
0.0022	-0.0068	-0.0053	0.3075	-78.8
0.0007	-0.003	-0.0053	0.303	-78.8
-0.0008	-0.0008	-0.0046	0.2947	-78.8
0.0015	-0.0015	-0.0068	0.2925	-78.8
0	0	-0.0023	0.2895	-78.8
-0.0046	0.0007	0	0.2872	-78.8
-0.0053	-0.0008	0	0.2745	-78.8
-0.0046	-0.0008	0.0015	0.2572	-78.8
-0.006	0.0007	-0.0008	0.243	-78.8
-0.0068	0.006	-0.003	0.2295	-78.8
-0.0083	0.0105	-0.003	0.2212	-78.8
-0.0083	0.009	-0.0023	0.21	-78.8
-0.0083	0.0015	-0.0023	0.2017	-78.8
-0.0075	-0.003	-0.0038	0.1927	-78.8
-0.0046	-0.0068	-0.003	0.1792	-78.8
-0.0015	-0.0053	0	0.1695	-78.8
-0.0008	-0.0053	0.003	0.1575	-78.8
0.003	-0.0053	0.0007	0.1417	-78.8
0.003	-0.0038	-0.0023	0.1267	-78.8
0.0007	-0.0053	-0.003	0.1215	-78.8
0.0007	-0.0008	-0.006	0.114	-78.8
0.0015	0.0037	-0.0053	0.0982	-78.8
0.003	0.003	-0.003	0.072	-78.8
0.0052	0.0045	-0.0023	0.0487	-78.8
0.0052	0.0052	-0.0008	0.027	-78.8
0.003	0.0015	-0.0008	0	-78.9
0.0015	-0.0023	0.0015	-0.003	-78.9
0.0015	-0.0083	0.003	0.0345	-78.9
0.0045	-0.0105	0.0037	0.0937	-78.9
0.0037	-0.0091	0.0067	0.123	-78.9
0.0015	-0.0083	0.0052	0.135	-78.9
-0.0008	-0.0046	0.006	0.1372	-78.9
-0.003	-0.0015	0.006	0.1237	-78.9
-0.0053	0.0007	0.0052	0.099	-78.9
-0.0053	0.003	0.006	0.0645	-78.9
-0.0038	0.0045	-0.0008	0.042	-78.8
0.0015	0.0045	-0.003	0.012	-78.8
0.003	0.0007	-0.0053	-0.0158	-78.8
0.003	-0.0015	-0.0046	-0.0383	-78.8
0.0015	-0.0008	0.0007	-0.066	-78.8
-0.0015	-0.0008	0.0052	-0.0856	-78.8
-0.0046	-0.0008	0.0082	-0.1013	-78.8
-0.0053	-0.003	0.009	-0.1133	-78.8
-0.0046	-0.0038	0.0067	-0.1193	-78.8
-0.0015	-0.003	0.0067	-0.1238	-78.8
0.0007	-0.0053	0.0052	-0.1283	-78.8
0	-0.0046	0.0052	-0.1283	-78.8
0.0007	-0.0015	0.003	-0.126	-78.8
0.0007	-0.0008	0	-0.123	-78.8
0.0007	-0.0008	0.0015	-0.12	-78.8
-0.0008	-0.0008	0.0022	-0.1223	-78.8
-0.0015	0.0007	0.0022	-0.1245	-78.8
-0.0015	0.0007	0.0045	-0.1238	-78.8
-0.0038	0.003	0.0015	-0.1185	-78.8
-0.0038	0.0045	0.0015	-0.1118	-78.8
-0.0015	0.003	0.0007	-0.105	-78.8
-0.0008	0.0022	0.0007	-0.1013	-78.8
-0.0023	0.0015	0.0037	-0.1043	-78.8
-0.003	0	0.003	-0.1088	-78.8
-0.0053	-0.0015	0.0037	-0.1103	-78.8
-0.0053	-0.0046	0.003	-0.1103	-78.9
-0.0053	-0.0053	0	-0.105	-78.9
-0.003	-0.0068	0.0007	-0.099	-78.9
0	-0.0068	0.0015	-0.0968	-78.9
0.0007	-0.0053	0.0022	-0.0945	-78.9
0.0007	-0.0068	-0.0008	-0.0915	-78.9
0.0007	-0.006	-0.0023	-0.0856	-78.9
0	-0.003	0.0007	-0.0818	-78.9
0.0007	-0.0038	0.0022	-0.075	-78.9
0	-0.0015	0.003	-0.0691	-78.9
-0.0008	-0.0008	0.0015	-0.0645	-78.9
-0.0015	-0.0023	0.0007	-0.0563	-78.9
-0.0008	-0.0015	-0.003	-0.0511	-78.9
0.0015	0.0015	-0.003	-0.0503	-78.9
0.0007	0.003	-0.0015	-0.0525	-78.9
-0.0008	0.0015	-0.0046	-0.0533	-78.9
-0.0008	0.0015	-0.003	-0.0503	-78.9
-0.0008	0.0045	-0.0038	-0.0436	-78.9
0.0007	0.0142	-0.0053	-0.021	-78.9
0.0007	0.0142	-0.0023	0.0157	-78.9
0.0015	0.0052	0	0.036	-78.9
0.0037	-0.0008	0.0045	0.0457	-78.9
0.0045	-0.0083	0.0045	0.0487	-78.9
-0.0008	-0.0098	0.0037	0.0405	-78.9
-0.0015	-0.0091	0.0052	0.0367	-78.9
-0.0015	-0.0091	0.0097	0.0232	-78.9
-0.003	-0.006	0.0097	0.0157	-78.9
-0.0015	-0.0046	0.009	0.0105	-78.9
-0.0008	-0.0015	0.0105	-0.003	-78.9
0.0015	0.0007	0.0067	-0.0098	-78.9
0.0045	0.0015	0.0037	-0.0165	-78.9
0.003	0.0015	0.0022	-0.0203	-78.9
0.0022	0.003	0.0037	-0.027	-78.9
0.0015	0.003	0.0022	-0.0263	-78.9
-0.0008	0.0037	-0.0008	-0.0263	-78.9
0.0007	0.0045	0.0007	-0.0256	-78.8
-0.0008	0.0045	-0.0015	-0.0195	-78.8
-0.0015	0.0052	-0.0053	-0.0233	-78.8
0.0007	0.0045	-0.0053	-0.027	-78.8
0.0015	0.003	-0.006	-0.0293	-78.8
0.003	-0.0008	-0.003	-0.03	-78.8
0.003	-0.003	-0.0008	-0.0293	-78.8
0.0037	-0.003	0	-0.027	-78.8
0.0037	-0.0015	0	-0.0233	-78.8
0.0015	-0.0015	0.0007	-0.0218	-78.8
0.0037	-0.0023	0.0045	-0.0165	-78.8
0.0045	-0.0046	0.0045	-0.015	-78.8
0.0015	-0.0046	0.0045	-0.0098	-78.8
0.0015	-0.0038	0.0022	-0.0023	-78.8
0.0007	-0.0068	0.0015	0.0045	-78.8
-0.0008	-0.006	0.0045	0.0082	-78.8
-0.0008	-0.0068	0.0052	0.0052	-78.8
-0.0008	-0.0068	0.006	0.0015	-78.8
0.0015	-0.006	0.0045	0.0015	-78.8
0.0052	-0.0053	0.0007	0.0052	-78.9
0.0082	-0.0053	0.0015	0.0067	-78.9
0.009	-0.0046	0.0037	0.0127	-78.9
0.0075	-0.0046	0.003	0.0202	-78.9
0.0045	-0.0038	0.006	0.0277	-78.9
0.006	-0.0015	0.006	0.0307	-78.9
0.0052	-0.0008	0.009	0.027	-79
0.0007	-0.0015	0.009	0.0232	-79
0.0007	-0.0038	0.0045	0.0165	-79
0.0007	-0.003	0.0022	0.009	-79
0	-0.0023	-0.0038	0.009	-79
0.0015	-0.0015	-0.0038	0.0105	-79.1
0.0037	-0.003	-0.0008	0.0052	-79.1
0.0015	-0.0068	0.0007	0.003	-79.1
-0.0015	-0.0083	0.003	0.0015	-79.1
-0.003	-0.0053	0	0.0007	-79.1
-0.0023	-0.003	-0.0023	0.0007	-79.1
-0.0015	-0.0008	-0.0015	0.003	-79.1
-0.003	0.0022	0.0007	0.0022	-79.1
-0.0053	0.0022	0.0007	0.003	-79.1
-0.0038	-0.0015	0.0015	0.003	-79.1
-0.0053	-0.006	0.0052	-0.0008	-79.1
-0.0091	-0.0075	0.0067	-0.006	-79.1
-0.0098	-0.0053	0.006	-0.0165	-79.1
-0.0068	-0.0038	0.0067	-0.021	-79.1
-0.003	-0.0008	0.0037	-0.0233	-79.1
0	0.0007	0.003	-0.0218	-79.1
0.0015	0.003	-0.0023	-0.0203	-79.1
0.0007	0.0052	-0.0046	-0.0158	-79.1
-0.0038	0.0067	-0.0015	-0.0046	-79.1
-0.0046	0.0082	-0.0008	-0.0023	-79.1
-0.0015	0.0045	0.0022	0.003	-79.1
-0.003	0.003	0.0007	0.0112	-79.1
-0.003	0.003	0.0022	0.0195	-79.1
-0.003	0.003	0.0015	0.0195	-79.1
-0.003	0.0045	0.0015	0.012	-79.1
-0.003	0.0045	0.0015	0.0052	-79.1
-0.0015	0.0015	-0.006	0	-79.1
0.0015	0.0007	-0.0038	-0.0053	-79.1
0.0015	0.0015	-0.003	-0.0143	-79.1
0.0007	0.0015	0.0007	-0.0203	-79.1
-0.0008	-0.0015	0.0045	-0.0181	-79.1
0.0015	-0.0015	0.0052	-0.0105	-79.1
0.0045	-0.0038	0.0052	-0.0053	-79.1
0.0037	-0.0053	0.0015	-0.003	-79.1
0.0007	-0.0053	0.0015	-0.0038	-79.1
-0.0008	-0.0068	0.0045	-0.0098	-79.1
0.0015	-0.006	0.0037	-0.0203	-79.1
0.0007	-0.003	0.003	-0.024	-79.1
0.0007	-0.003	0.0022	-0.0225	-79.1
-0.0015	-0.0015	0.003	-0.0218	-79.1
-0.0008	0.003	0.0045	-0.0158	-79.1
0.0007	0.0037	0.0037	-0.0083	-79.1
0.0015	0.0037	0.0045	-0.0008	-79.1
0.003	0.0052	-0.0008	-0.0008	-79.1
0.003	0.0142	-0.0038	0	-79.1
0.0022	0.0172	-0.0015	0.0045	-79.1
0.0015	0.012	-0.0008	0.009	-79.1
-0.0008	0.0075	0	0.012	-79.1
-0.0008	0.0007	-0.0008	0.0202	-79.1
0.0015	-0.003	-0.0046	0.0307	-79.1
0.0007	-0.0053	-0.003	0.036	-79.1
0.003	-0.0053	-0.0008	0.0405	-79.1
0.0015	-0.003	0.0007	0.039	-79.1
-0.0008	-0.0053	-0.0015	0.0307	-79.1
0.0022	-0.0038	-0.003	0.0187	-79.1
0.0015	0.0007	-0.0015	0.0082	-79.1
-0.0015	0.0007	-0.0015	-0.0008	-79.1
-0.0008	0.0007	0.0007	-0.0068	-79.1
0	-0.0015	0.0052	-0.0105	-79.1
0.0007	-0.0046	0.0037	-0.0091	-79.1
0.0037	-0.006	0.0037	-0.0046	-79.2
0.0022	-0.0053	0.0022	-0.0068	-79.2
0.0015	-0.0046	0.0007	-0.0083	-79.2
0.003	-0.003	0.0015	-0.0158	-79.2
0.0015	-0.003	-0.0008	-0.0233	-79.2
-0.0015	-0.0053	0.0007	-0.0181	-79.1
-0.0023	-0.0046	0.0015	-0.0128	-79.1
0.0007	-0.0038	0.0015	-0.0135	-79.1
-0.0008	-0.0053	0	-0.0173	-79.1
-0.0015	-0.003	0.0015	-0.0181	-79.1
0.003	-0.003	0.0045	-0.0165	-79.1
0.003	-0.0023	0.0067	-0.0128	-79.1
0.0022	0.0045	0.0082	-0.0075	-79.1
0.003	0.009	0.0105	-0.0091	-79.1
0.0007	0.012	0.0127	-0.0083	-79.1
-0.0015	0.0127	0.009	-0.003	-79.1
-0.0023	0.0105	0.0045	-0.0053	-79.1
-0.0015	0.0082	0	-0.0143	-79.1
-0.0023	0.0052	-0.0015	-0.024	-79.1
-0.0038	0.0007	-0.0015	-0.0323	-79.1
-0.003	0	-0.003	-0.0353	-79.1
-0.003	-0.0015	-0.0038	-0.039	-79.1
-0.003	-0.0053	-0.0053	-0.0346	-79.1
0	-0.0015	-0.0075	-0.0293	-79.1
0.0007	0.003	-0.0068	-0.0346	-79
0.0022	0.0015	-0.006	-0.0375	-79
0.003	0.0015	-0.003	-0.0428	-79
-0.0008	0.003	-0.0008	-0.039	-79
-0.003	0.0052	-0.0008	-0.027	-79
-0.0053	0.003	-0.0015	-0.015	-79
-0.0053	-0.0008	-0.0008	-0.0068	-79
-0.003	-0.006	0.0007	0.0022	-79
0	-0.0105	0	0.0082	-79
0.0022	-0.0128	0.0045	0.0067	-79
0.0015	-0.0113	0.0052	0.0135	-79
0.003	-0.0098	0.003	0.0187	-79
0.0037	-0.0091	0.0052	0.0165	-79
0.0045	-0.0015	0.0045	0.006	-78.9
0.0045	0.0052	0.0052	-0.0068	-78.9
0.0052	0.0045	0.0045	-0.0165	-78.9
0.0082	0	0.003	-0.0203	-78.9
0.0052	-0.003	0.0015	-0.0143	-78.9
0.0045	-0.0105	-0.003	-0.0015	-78.9
0.0022	-0.012	-0.0023	0.0052	-78.9
0.003	-0.012	-0.0015	0.0037	-78.9
0	-0.0128	-0.003	0.0052	-78.9
-0.0038	-0.012	-0.0008	0.0067	-78.9
-0.0053	-0.0083	0	0.0165	-78.9
-0.0046	-0.0046	0	0.024	-78.9
-0.0008	0.0015	0.0007	0.0255	-78.9
-0.0015	0.0052	-0.0015	0.024	-78.9
-0.0015	0.0037	-0.0038	0.024	-78.9
-0.0008	0.003	-0.0023	0.0315	-78.9
-0.0015	0.0007	0.0015	0.0367	-78.9
0.0007	0.0015	0.0007	0.0472	-78.9
-0.0015	0.0045	-0.0008	0.051	-78.8
-0.0015	0.0045	-0.0008	0.042	-78.8
0	0.0045	-0.0015	0.03	-78.8
-0.003	0	0.0007	0.0082	-78.8
-0.003	-0.006	0.003	-0.0105	-78.8
-0.0023	-0.0091	0.0052	-0.0158	-78.8
-0.0008	-0.006	0.0067	-0.0091	-78.8
-0.0015	-0.006	0.0022	-0.0053	-78.8
-0.0015	-0.0053	0.003	-0.0015	-78.8
0.0022	-0.0068	0.0015	0.009	-78.8
0.0015	-0.006	0.0015	0.0172	-78.8
0.0022	-0.0046	0.003	0.0277	-78.8
0.0037	-0.003	0.003	0.0262	-78.8
0.0045	0.0007	0.0067	0.0187	-78.8
0.0015	0.0015	0.0067	0.0097	-78.8
0.0007	0.0045	0.0052	0.0007	-78.8
0.0007	0.0022	0.0045	-0.0008	-78.8
-0.0008	-0.0015	0.0052	-0.0008	-78.8
0	-0.0046	0.0067	-0.0015	-78.8
0.0015	-0.0046	0.0045	-0.0038	-78.8
0.0007	-0.0046	0.0082	-0.0046	-78.8
0.0007	-0.0046	0.0082	-0.0053	-78.8
-0.0008	-0.0023	0.0045	-0.003	-78.8
0.0007	0	0.0037	-0.0008	-78.8
0.003	0.003	0.0052	-0.0008	-78.8
0.0045	0.0015	0.0067	0.0015	-78.8
0.0067	0.0022	0.0015	0.003	-78.8
0.003	0.0022	-0.0008	0.0142	-78.8
0.0015	0.0015	0.0015	0.0277	-78.8
0.003	-0.0023	-0.0015	0.03	-78.8
0.0007	-0.0046	-0.0008	0.03	-78.8
0.0007	-0.0053	-0.0015	0.024	-78.8
-0.0008	-0.0053	-0.003	0.0172	-78.8
-0.0023	-0.006	-0.0015	0.0067	-78.8
-0.0046	-0.0083	-0.0046	-0.0113	-78.8
-0.0038	-0.0083	-0.0053	-0.021	-78.8
-0.003	-0.0098	-0.0083	-0.024	-78.8
-0.0015	-0.0105	-0.0068	-0.0233	-78.8
-0.0015	-0.0091	-0.003	-0.0165	-78.8
-0.0023	-0.0068	0	-0.0068	-78.8
-0.0023	-0.0038	0.006	0.0022	-78.8
-0.0023	-0.0023	0.0067	0.0097	-78.8
-0.0008	-0.0015	0.0015	0.0105	-78.8
0	-0.0015	-0.0015	0.0097	-78.8
-0.0015	-0.0023	-0.003	0.0127	-78.8
-0.003	-0.0023	-0.0053	0.0127	-78.8
-0.0023	-0.0023	-0.0068	0.0187	-78.8
-0.0008	-0.003	-0.0015	0.0247	-78.8
-0.0008	-0.0015	-0.0008	0.0307	-78.8
0.0007	0	-0.0008	0.0345	-78.8
0	-0.0008	-0.0023	0.0352	-78.8
-0.0015	0.0007	-0.0046	0.0405	-78.8
-0.0015	-0.0008	-0.0023	0.0427	-78.8
-0.0008	-0.0015	0.003	0.0382	-78.8
0	-0.0046	0.0045	0.0315	-78.8
-0.0008	-0.006	0.0075	0.0255	-78.8
-0.0008	-0.0038	0.012	0.018	-78.8
-0.0023	-0.003	0.0105	0.0082	-78.8
-0.0008	-0.0008	0.009	-0.0008	-78.8
-0.0015	0.0007	0.006	-0.0046	-78.8
-0.0053	0.0022	0.0052	0	-78.8
-0.0091	0.0015	0.0052	0.0045	-78.8
-0.0091	0.0045	0.0015	0.0082	-78.8
-0.0075	0.006	0.0037	0.0105	-78.8
-0.003	0.0015	0.0067	0.0075	-78.8
0.0007	0.0022	0.0052	0.0015	-78.8
0.0007	0.0045	0.0022	-0.0046	-78.8
0	0.0037	-0.0015	-0.0083	-78.8
-0.0008	0.0075	0.003	-0.0113	-78.8
-0.0038	0.006	0.003	-0.0135	-78.8
-0.0038	0.006	0.0037	-0.0128	-78.8
0	0.0067	0.0045	-0.0128	-78.8
0.0007	0.0045	0	-0.0083	-78.8
0.003	0.0037	-0.0008	0.003	-78.8
0.003	0.0045	-0.0015	0.003	-78.8
0.0037	0.003	-0.0015	0.0015	-78.7
0.0067	0.003	0.0007	-0.0008	-78.7
0.0052	-0.0008	-0.0008	-0.0075	-78.7
0.0082	-0.003	0.0007	-0.0105	-78.7
0.0067	-0.0008	0.0015	-0.0165	-78.7
0.0067	-0.0015	-0.0015	-0.0218	-78.7
0.0067	-0.0015	-0.003	-0.0195	-78.7
0.0037	-0.003	-0.0038	-0.0225	-78.7
0.0045	-0.0015	-0.0046	-0.0188	-78.7
0.0037	-0.0015	-0.0038	-0.0053	-78.7
0.0045	-0.0023	-0.0038	-0.003	-78.7
0.0037	-0.003	-0.003	-0.0075	-78.7
0.003	-0.0038	-0.0023	-0.0143	-78.7
0.006	-0.003	-0.003	-0.0165	-78.7
0.0037	-0.0046	0.0007	-0.0143	-78.7
0.0037	-0.003	0.0045	-0.0128	-78.7
0.0037	-0.0038	0.003	-0.0091	-78.7
0.0015	-0.0015	0.0052	-0.0046	-78.7
0.0015	-0.003	0.0045	0	-78.7
0	-0.0038	0.0045	-0.0008	-78.7
-0.0023	-0.0015	0.0052	-0.0023	-78.7
-0.0046	-0.0023	0.0037	-0.0083	-78.7
-0.0068	0	0.0052	-0.0225	-78.7
-0.0068	0.0007	0.0052	-0.0308	-78.7
-0.006	0	0.009	-0.0346	-78.7
-0.0023	-0.0015	0.0105	-0.0353	-78.6
-0.0015	-0.003	0.0082	-0.0278	-78.6
-0.0038	-0.003	0.0105	-0.0233	-78.6
-0.0015	-0.003	0.0045	-0.021	-78.6
0	-0.003	0.0022	-0.0143	-78.6
0.0007	-0.003	0.0007	-0.0128	-78.6
0.0007	-0.0008	0.0007	-0.0091	-78.6
0.0007	-0.0008	0.003	-0.003	-78.6
0.0007	-0.0015	0.0022	-0.0038	-78.6
0.0007	-0.0015	0.0045	-0.006	-78.6
-0.0008	0	-0.0015	-0.0075	-78.6
-0.0008	-0.0008	-0.0015	-0.0068	-78.6
0	0.0007	-0.0046	0	-78.6
0.0007	0.0015	-0.006	0.012	-78.6
0.0022	0.0015	-0.003	0.0217	-78.6
0.0007	0.0015	-0.0046	0.0195	-78.6
-0.0008	0.0045	-0.0008	0.0195	-78.6
0.0007	0.0127	-0.003	0.0187	-78.6
0	0.0097	-0.0038	0.0105	-78.6
0.0022	0.0015	-0.0015	0.0045	-78.6
0.0045	-0.0046	-0.0046	-0.0023	-78.6
0.0022	-0.012	0.0007	-0.003	-78.6
0.0022	-0.0128	0.0007	-0.0023	-78.6
0.0052	-0.0128	0.003	0.0007	-78.6
0.003	-0.0083	0.0045	0.0015	-78.6
0.003	-0.0068	0.0007	0.0045	-78.7
0.0007	-0.0083	0.0037	0.0067	-78.7
-0.0015	-0.006	0.0022	0.0045	-78.7
-0.0038	-0.0053	0.0015	0.0067	-78.7
-0.0038	-0.0053	0.0045	0.0075	-78.7
-0.0015	-0.0053	0	0.0075	-78.7
-0.0008	-0.003	-0.0008	0.0082	-78.7
0	-0.003	0.0015	0.0105	-78.7
0.0007	-0.0038	0.0015	0.0082	-78.7
-0.0008	-0.0023	0.0015	0.0022	-78.7
-0.0015	0.0007	-0.003	-0.0023	-78.7
-0.0015	0.003	-0.0015	-0.0046	-78.7
-0.0008	0.0022	0.0007	-0.003	-78.7
0.0007	0.0015	0.0007	0.0007	-78.7
-0.0015	0.0015	0.0022	0.006	-78.7
-0.0023	0	0.0007	0.0105	-78.7
-0.0008	0.0007	0.0022	0.0075	-78.7
-0.0008	0.0007	0.0067	0	-78.7
-0.0023	0	0.003	-0.0046	-78.7
-0.0015	0.0022	0.0022	-0.0038	-78.7
-0.0015	0.0022	0.0052	0	-78.8
-0.003	0.0007	0.0067	-0.0008	-78.8
-0.0015	0.0007	0.0067	-0.0046	-78.8
-0.0023	-0.0023	0.006	-0.0068	-78.8
0.0015	-0.003	0.0045	-0.0143	-78.8
0.0022	-0.0015	0.0007	-0.0158	-78.8
0.0015	0	-0.0015	-0.0128	-78.8
0.0015	0.0007	-0.0008	-0.0083	-78.8
-0.0015	0	0.0007	0	-78.8
-0.0015	-0.0008	0.0045	-0.0046	-78.8
-0.0023	-0.0008	0.0045	-0.0008	-78.8
-0.0008	0.0007	0.003	0.0067	-78.8
0.0015	0.0015	0	0.012	-78.8
0.0022	0.0007	0.0015	0.0165	-78.8
0.0007	-0.0008	0.0015	0.003	-78.8
-0.0008	-0.003	0.0007	-0.0091	-78.8
-0.0008	-0.0046	0.0015	-0.0195	-78.8
0.0007	-0.003	-0.003	-0.0203	-78.8
0.0015	-0.003	-0.0023	-0.0128	-78.8
0	-0.003	-0.0008	-0.0158	-78.8
-0.0008	-0.0015	-0.003	-0.0091	-78.8
0.0007	0.0007	-0.0023	-0.0023	-78.8
0.0007	0.003	-0.0023	0.0007	-78.8
-0.0015	0.0022	0	0.0045	-78.8
-0.0008	0.0015	0.0007	0.0082	-78.8
0.0007	0	-0.0008	0.0075	-78.8
0.0022	0.0007	0.0015	0.0075	-78.8
0.0022	0.0015	0.0007	0.0075	-78.8
0.0015	0.0015	0.003	0.0052	-78.8
0.003	0.0015	0.003	0.0097	-78.8
0.003	0.003	-0.0008	0.0112	-78.8
-0.0015	0.0045	0.0015	0.0082	-78.8
-0.003	0.003	0.003	0.003	-78.8
0.0007	0.0022	0.0067	0.0037	-78.8
-0.0015	0.0015	0.0097	0.0075	-78.8
-0.0008	0.0007	0.0067	-0.0015	-78.8
0.0015	0	0.0052	0.0015	-78.8
-0.0008	0.0015	0.0037	0.009	-78.8
0.0022	-0.0015	0.0022	0.0112	-78.8
0.0045	-0.0038	0.0022	0.0075	-78.8
0.0045	-0.0038	0.0007	0.0052	-78.8
0.0067	-0.003	0.0015	0.0127	-78.8
0.0045	-0.003	0.0007	0.009	-78.8
0.0045	-0.0046	-0.0015	0.0007	-78.8
0.0052	-0.0053	-0.0008	-0.0015	-78.8
0.0067	-0.0053	-0.0038	0.0007	-78.8
0.0045	-0.0046	-0.0046	-0.0053	-78.8
0.0015	-0.0046	-0.003	-0.0091	-78.8
0.0015	-0.0046	-0.0023	-0.0068	-78.8
0.0007	-0.003	0.0007	-0.0046	-78.8
0.0015	0.0015	-0.0015	-0.0008	-78.8
-0.0015	0.003	-0.0046	-0.0023	-78.8
-0.0038	0.0015	-0.0023	-0.0046	-78.8
-0.0046	0	-0.0023	-0.0091	-78.8
-0.006	-0.0046	0.003	-0.0113	-78.8
-0.0068	-0.0075	0.0075	-0.0068	-78.8
-0.0068	-0.0075	0.0067	-0.0113	-78.8
-0.003	-0.0083	0.0052	-0.0113	-78.8
-0.003	-0.0083	0.0022	-0.0083	-78.8
-0.0038	-0.0038	0.0015	-0.0053	-78.8
-0.0046	0.003	0.0007	0.0067	-78.8
-0.0053	0.0052	0	0.0105	-78.8
-0.0015	-0.0015	0.003	0.0127	-78.8
0.0015	-0.006	0.0045	0.0165	-78.8
0.0037	-0.0083	0.0052	0.0217	-78.8
0.003	-0.0098	0.0082	0.0217	-78.8
0.0015	-0.0083	0.0067	0.018	-78.8
0.003	-0.006	0.0037	0.0172	-78.8
0.0037	-0.0015	0.0007	0.0142	-78.8
0.0045	0.0022	-0.0038	0.0082	-78.8
0.0045	0.0067	-0.003	0.0015	-78.8
0.003	0.0112	-0.0008	-0.0023	-78.8
0.0015	0.0112	0.003	-0.0008	-78.8
0.0015	0.0142	0.0067	0.0045	-78.8
0	0.0157	0.0045	0	-78.8
0	0.009	0.0045	-0.0075	-78.8
-0.0015	0.0067	0.003	-0.0046	-78.8
-0.0015	0.0037	0.0015	-0.003	-78.8
-0.0015	0.0007	0	-0.0015	-78.8
-0.0008	-0.0008	0.0022	0.0007	-78.8
-0.0008	-0.0046	0.0045	0.0022	-78.9
-0.0023	-0.003	0.003	-0.0008	-78.9
0.0015	-0.0038	0.003	-0.0113	-78.9
0.003	-0.0091	0.0022	-0.0165	-78.9
0.003	-0.0068	0.0015	-0.0135	-78.9
0.0015	-0.0015	0.0007	-0.0091	-78.9
-0.003	0.0015	0	-0.0068	-78.9
-0.003	0.0037	0.0015	-0.003	-78.9
-0.0038	0.003	0.0007	-0.0008	-78.9
-0.0015	0.0015	-0.0015	0.0067	-78.9
0.0015	0.0045	0	0.0165	-78.9
0.0007	0.0052	0.0007	0.0142	-78.9
0	0.006	0.0007	0.0082	-78.9
-0.0008	0.003	0.0007	0.012	-79
0.0007	0.0007	0	0.0127	-79
-0.003	0.0007	0	0.0082	-79
-0.0053	-0.0015	-0.0023	0.0022	-79
-0.0046	-0.0038	-0.0038	-0.0008	-79
-0.0015	-0.0046	-0.0053	0.003	-79
-0.0015	-0.0053	-0.0053	0.0015	-79
0.0007	-0.006	-0.0015	-0.0083	-79.1
0.003	-0.0068	-0.0023	-0.012	-79.1
0.003	-0.006	0.0022	-0.0113	-79.1
0.0007	-0.0038	0.0015	-0.0075	-79.1
0	-0.003	0.0022	-0.0091	-79.1
-0.0008	-0.0046	0.003	-0.006	-79.1
-0.0015	-0.006	-0.0038	0.0015	-79.1
0.003	-0.0068	0.003	0.0007	-79.1
0.0045	-0.0068	0.0037	-0.003	-79.1
0.003	-0.0075	0.0045	-0.006	-79.1
0.0052	-0.0068	0.0037	-0.006	-79.1
0.003	-0.0053	-0.0046	-0.0053	-79.1
0.003	-0.0038	-0.0046	-0.0068	-79.1
0.0007	-0.0038	-0.006	-0.0068	-79.1
-0.0015	-0.0046	-0.0008	-0.006	-79.1
-0.0008	-0.0068	0.0022	-0.0046	-79.1
-0.0023	-0.0053	0.0007	0.0007	-79.1
0.0007	-0.0046	0.0052	-0.0008	-79.1
0	-0.003	0.0045	-0.0053	-79.1
0.0015	-0.0046	0.006	-0.0068	-79.1
0.003	-0.0083	0.0067	-0.0046	-79.1
-0.0008	-0.0068	0.0037	-0.0015	-79.1
-0.003	-0.0046	0.0015	-0.0068	-79.1
-0.0046	-0.0053	0.0015	-0.0083	-79.1
-0.0053	-0.006	0.003	-0.0053	-79.1
-0.0053	-0.0068	0.0037	-0.0008	-79.1
-0.003	-0.0091	0.0045	0	-79.1
-0.0008	-0.0128	0.0037	-0.0046	-79.1
0.0015	-0.0173	-0.0008	0.0007	-79.1
0.0045	-0.0158	0	-0.0015	-79.1
0.0037	-0.0091	0.0007	-0.012	-79.1
0.0052	-0.0083	-0.0008	-0.0105	-79.1
0.003	-0.0158	0.0022	-0.0098	-79.1
0	-0.021	0.0022	-0.0083	-79.1
0.003	-0.0233	-0.0008	-0.0015	-79.1
0.003	-0.0248	-0.0008	0.0015	-79.1
-0.0008	-0.0218	-0.0008	0.0045	-79.1
0	-0.0181	0.0015	0.0105	-79.1
0.0022	-0.0113	0.0022	0.0217	-79.1
0.0045	-0.0038	0.0052	0.0195	-79.1
0.006	0.0007	0.0075	0.0037	-79.2
0.006	0.0022	0.006	-0.003	-79.2
0.0052	-0.0046	0.0045	-0.006	-79.2
0.0045	-0.0083	0.0075	-0.0038	-79.2
0.003	-0.0091	0.0075	-0.0046	-79.2
0.0007	-0.0128	0.003	-0.003	-79.2
-0.0015	-0.0165	0.003	-0.0023	-79.2
-0.0008	-0.03	-0.0008	-0.0015	-79.2
0.0007	-0.0248	-0.0008	0.0082	-79.2
0.0007	-0.0098	0	0.009	-79.2
0	-0.0083	-0.0008	0.0045	-79.2
0	-0.0068	0.0015	0.0015	-79.2
-0.0008	-0.0068	0.0007	-0.003	-79.2
-0.0008	-0.0105	0.0007	-0.0068	-79.2
-0.0008	-0.0091	0.003	-0.0075	-79.2
-0.0015	-0.012	0.0045	-0.0038	-79.2
-0.003	-0.0158	0.0082	-0.0046	-79.2
-0.003	-0.015	0.0045	-0.0075	-79.2
-0.003	-0.0105	-0.0015	-0.006	-79.2
-0.0015	-0.0091	-0.003	-0.0098	-79.2
-0.003	-0.0038	-0.0046	-0.0083	-79.2
-0.0053	-0.003	-0.003	-0.0083	-79.2
-0.003	-0.0091	-0.0008	-0.012	-79.2
-0.003	-0.012	-0.0008	-0.0091	-79.2
-0.0015	-0.012	0.0022	-0.0053	-79.2
-0.0015	-0.012	-0.0008	0.003	-79.2
0	-0.0105	-0.003	0.0045	-79.2
0.0045	-0.0091	0.0007	-0.0015	-79.2
0.0045	-0.012	-0.003	0.0015	-79.2
0.0037	-0.0143	0.0007	0.0067	-79.2
0.003	-0.0195	0.0015	0.0045	-79.1
0.0015	-0.0203	-0.0023	0.0015	-79.1
0.0007	-0.0203	-0.0015	0.0037	-79.1
-0.0008	-0.0173	0.003	0.0015	-79.1
-0.0023	-0.0075	0.003	-0.0015	-79.1
-0.003	-0.003	0.0015	-0.0053	-79.1
0.0007	0.0007	0.0052	-0.003	-79.1
-0.0008	0.0015	0.003	0.0015	-79.1
0.0022	0.0045	0.0015	-0.0015	-79.1
0.0052	0.0082	0.0015	-0.0046	-79.1
0.0052	0.009	-0.0008	-0.0008	-79.1
0.003	0.0127	0.0007	0.003	-79.1
0.0007	0.012	-0.0015	0.0045	-79.1
0.0007	0.0105	0.0007	0.0052	-79.1
0.0015	0.0097	-0.0015	0.009	-79.1
0.0022	0.006	-0.0023	0.0105	-79.1
0.0007	0.0045	0	0.009	-79.1
-0.003	0.0067	-0.0046	0.0045	-79.1
-0.0046	0.0105	-0.0008	0.0045	-79.1
-0.0053	0.0165	0.0015	0.0067	-79.1
-0.0053	0.0202	0.003	0.0067	-79.1
-0.006	0.0217	0.0045	0.0082	-79.1
-0.0068	0.0232	0.003	0.0067	-79.1
-0.0068	0.0202	0.003	0.0105	-79.1
-0.0046	0.018	0.0015	0.012	-79.1
-0.0068	0.0202	-0.0008	0.0112	-79.1
-0.0075	0.0232	0	0.009	-79.1
-0.0053	0.0255	0.0007	0.0022	-79.1
-0.0053	0.0232	0	-0.0038	-79.1
-0.003	0.0217	0.006	-0.0053	-79.1
-0.0038	0.0225	0.006	-0.0008	-79.2
-0.0008	0.0217	0.0067	0.0045	-79.2
0.0015	0.0217	0.0082	0.0067	-79.2
0.003	0.021	0.0022	0.0067	-79.2
0.0022	0.0202	0.0045	0.003	-79.2
-0.0015	0.018	0.0052	0.0015	-79.2
-0.003	0.0165	0.0052	0.0007	-79.2
-0.0053	0.0165	0.0075	-0.0038	-79.2
-0.0053	0.0172	0.0022	-0.0046	-79.2
-0.0015	0.0172	0.0045	0	-79.2
-0.003	0.0127	0.006	-0.0038	-79.2
0.0007	0.0105	0.003	-0.0098	-79.2
0.0015	0.0097	0.0022	-0.015	-79.2
0.003	0.0105	-0.0023	-0.0135	-79.2
0.0037	0.012	-0.003	-0.0053	-79.2
0.0045	0.012	-0.0008	0	-79.2
0.006	0.0135	-0.0015	0.0052	-79.2
0.009	0.0142	-0.0015	0.003	-79.2
0.0097	0.0172	0.0007	0.006	-79.2
0.0067	0.0195	0	0.0135	-79.2
0.0037	0.0225	-0.0008	0.0045	-79.2
0.003	0.0255	0.0045	-0.003	-79.2
0.003	0.0255	0.0045	-0.0083	-79.2
0.0045	0.0255	0.003	-0.0181	-79.2
0.0045	0.0217	-0.003	-0.0248	-79.2
0.0052	0.021	-0.0068	-0.0233	-79.2
0.006	0.0202	-0.0023	-0.0128	-79.2
0.003	0.0157	-0.003	-0.0008	-79.2
0.0015	0.0157	0.0007	0.0052	-79.2
-0.0008	0.015	0.0045	0.0082	-79.2
-0.0015	0.0127	0.0052	0.0165	-79.2
0.0007	0.012	0.0067	0.0225	-79.2
0.0045	0.0075	0.0045	0.0217	-79.2
0.0045	-0.0203	0.0015	0.0142	-79.2
0.003	-0.0915	-0.0008	0.0097	-79.2
0.0052	-0.1373	-0.0015	0.0067	-79.2
0.0007	-0.126	0.0007	0.0052	-79.2
-0.003	-0.1185	0.003	0.0015	-79.2
-0.003	-0.099	0.0037	-0.0068	-79.2
-0.0038	-0.0803	0.003	-0.0046	-79.2
-0.003	-0.0653	0.0052	-0.003	-79.2
-0.003	-0.0443	0.0007	-0.006	-79.2
-0.0023	-0.0308	-0.003	-0.0075	-79.2
-0.0015	-0.0128	-0.0068	-0.0068	-79.2
-0.0046	-0.0046	-0.0053	0.0007	-79.2
-0.0008	0.0082	0.0015	0.0022	-79.2
0.0007	0.021	0.0037	-0.0053	-79.2
0.0015	0.0292	0.006	-0.0068	-79.2
0.0015	0.0382	0.003	-0.0046	-79.2
0	0.0427	0.0007	-0.003	-79.2
-0.003	0.0502	0.0045	-0.0075	-79.2
-0.003	0.0532	0	-0.0098	-79.2
-0.003	0.057	-0.0038	-0.0053	-79.2
-0.0046	0.06	-0.0038	-0.0015	-79.2
-0.0023	0.0577	-0.0046	-0.0015	-79.2
-0.0038	0.0562	0.0007	-0.0053	-79.2
-0.0023	0.0555	0.0015	-0.0046	-79.2
0.0015	0.0555	0.0007	-0.0008	-79.3
-0.0008	0.0517	0.0037	-0.0015	-79.3
-0.0008	0.0487	0.0067	-0.0053	-79.3
0	0.0457	0.0052	-0.003	-79.3
0.0022	0.0442	0.0022	-0.0023	-79.3
0.003	0.042	0.0037	-0.0023	-79.3
0.003	0.0397	0.0015	-0.0023	-79.3
0.0045	0.0367	-0.0008	-0.0053	-79.3
0.003	0.033	0.0022	-0.0053	-79.3
0.0052	0.0292	0.0015	0	-79.3
0.0045	0.027	0.0015	0.009	-79.3
0.0015	0.024	0.0007	0.0187	-79.3
0.0015	0.021	-0.0015	0.0195	-79.3
0.0007	0.0195	-0.0015	0.0157	-79.3
0.0022	0.0195	-0.0008	0.0165	-79.3
0.0015	0.018	-0.0008	0.0142	-79.3
0	0.0135	0.003	0.0052	-79.3
0.0007	0.0112	0.003	-0.0038	-79.3
-0.0008	0.006	0.0007	-0.0053	-79.3
-0.0015	0.0045	0.0015	-0.0015	-79.3
-0.0015	0.003	-0.0015	-0.0015	-79.3
-0.0015	-0.0023	-0.0023	-0.0038	-79.3
0.0007	-0.0053	-0.003	-0.0091	-79.3
0.0007	-0.0046	-0.003	-0.0128	-79.3
0.0015	-0.003	-0.0023	-0.0091	-79.3
0	-0.0038	-0.0015	-0.0091	-79.3
-0.0023	-0.0046	0.0045	-0.0068	-79.3
-0.0015	-0.006	0.0022	-0.0046	-79.3
-0.003	-0.0083	0.0015	-0.0046	-79.3
-0.0015	-0.0083	0.0052	-0.0008	-79.3
-0.0038	-0.0083	0.0075	0	-79.3
-0.0075	-0.0083	0.0105	0.0022	-79.3
-0.0038	-0.0068	0.0067	0.006	-79.3
-0.0038	-0.0046	0.0045	0.0052	-79.3
-0.0023	-0.0083	0.0052	0.0015	-79.3
0.0007	-0.012	0.003	-0.0046	-79.3
0.0007	-0.0083	0	-0.0091	-79.3
0.0022	-0.0053	0.0007	-0.0053	-79.3
0.0007	-0.006	0.0015	-0.0046	-79.3
0	-0.0083	0.0022	-0.0046	-79.3
0.0007	-0.006	0.003	-0.003	-79.3
0.0007	-0.0053	0.0037	-0.0053	-79.3
0.0007	-0.006	0.0015	-0.0046	-79.3
0.0015	-0.0068	-0.0015	-0.0038	-79.4
0.0022	-0.0075	-0.0008	-0.0091	-79.4
0.0007	-0.0068	-0.0008	-0.015	-79.4
0.0015	-0.0068	0	-0.0165	-79.4
0.003	-0.0083	-0.0023	-0.0091	-79.4
0.0015	-0.0091	-0.0046	-0.0068	-79.4
0.0007	-0.012	0.0007	-0.0128	-79.4
0.0015	-0.012	0.0015	-0.0105	-79.4
0.0015	-0.0135	0.003	-0.0091	-79.4
0.0007	-0.012	0.0045	0	-79.4
0.0007	-0.0091	0.003	0.0105	-79.4
0.0007	-0.0046	0.0045	0.012	-79.4
-0.0008	-0.003	0.0045	0.015	-79.4
-0.0046	-0.0038	0.0022	0.0165	-79.4
-0.003	-0.0023	0.003	0.0165	-79.4
-0.0008	-0.0023	0.0007	0.0172	-79.4
-0.0008	-0.0015	0	0.018	-79.4
0.003	-0.0023	0.0015	0.0157	-79.4
0.0037	-0.0023	0.003	0.0127	-79.4
0.0007	-0.003	0.0052	0.0097	-79.4
0.0007	-0.0015	0.0037	0.0105	-79.4
-0.0008	0.0007	0.0015	0.0112	-79.4
0.0007	-0.0015	-0.0008	0.0067	-79.4
0.0022	-0.0008	-0.0015	0.0037	-79.4
0.003	-0.003	-0.0008	-0.003	-79.4
0.0052	-0.0068	-0.0015	0.0007	-79.4
0.0052	-0.0091	-0.0008	0.0045	-79.4
0.0052	-0.0128	0.0007	-0.0038	-79.4
0.003	-0.0143	-0.0008	-0.0083	-79.4
0.0015	-0.0158	-0.0008	-0.0158	-79.4
0.0015	-0.012	-0.003	-0.0158	-79.4
-0.003	-0.012	-0.003	-0.012	-79.4
-0.0075	-0.0091	-0.0015	-0.0135	-79.4
-0.0053	-0.0083	-0.0015	-0.0143	-79.4
-0.0053	-0.0098	0.0037	-0.0158	-79.4
-0.0053	-0.0091	0.0045	-0.012	-79.4
-0.0038	-0.0046	0.003	0	-79.4
0.0015	-0.0015	0.0052	0.0045	-79.4
0.0045	-0.0015	0.0045	0.0022	-79.4
0.0045	-0.0008	0.0007	0.0015	-79.4
0.003	-0.0008	-0.0008	-0.0023	-79.5
0.003	-0.0008	0.0007	-0.0023	-79.5
0.006	-0.0015	0.0022	0.0015	-79.5
0.0052	-0.0015	0.003	0.003	-79.5
0.006	-0.0075	0.0052	0.0007	-79.5
0.0022	-0.0091	0.0067	-0.0015	-79.5
-0.0015	-0.0083	0.0067	-0.003	-79.5
-0.0015	-0.0105	0.0067	0.003	-79.5
-0.0015	-0.0113	0.0052	0.0037	-79.5
0.0007	-0.0105	0.0052	0.0037	-79.5
0.0037	-0.0113	0.0045	0.009	-79.5
0.0067	-0.0105	0.0045	0.009	-79.5
0.0052	-0.012	0.0082	0.0075	-79.5
0.0015	-0.0113	0.0082	0.0045	-79.5
-0.0068	-0.0091	0.0067	0.0045	-79.5
-0.0105	-0.0091	0.0007	0.0082	-79.5
-0.0068	-0.0105	-0.0023	0.0037	-79.5
-0.006	-0.012	-0.0023	-0.0008	-79.5
-0.0046	-0.0105	-0.0053	0	-79.5
-0.0008	-0.0105	-0.0046	0.0007	-79.5
0	-0.0128	-0.003	0	-79.5
0.0007	-0.012	0.0007	-0.0008	-79.5
-0.0023	-0.0135	0.0015	-0.0008	-79.5
-0.0008	-0.012	0.003	-0.0008	-79.5
0.0007	-0.0098	0.003	0	-79.5
0.0007	-0.0105	-0.0015	0.0015	-79.5
0.0052	-0.0068	-0.0046	-0.0023	-79.5
0.0045	-0.0053	-0.0046	-0.0091	-79.5
0.0037	-0.0083	0	-0.0075	-79.5
0.0007	-0.0105	0.0015	0.0007	-79.5
-0.0053	-0.0128	0.0015	0.0007	-79.6
-0.0083	-0.0135	0.0015	0.0037	-79.6
-0.0083	-0.0128	-0.0008	0.0127	-79.6
-0.0046	-0.012	-0.0038	0.0157	-79.6
-0.0046	-0.0105	-0.0075	0.0195	-79.6
0	-0.0068	-0.0075	0.024	-79.6
0.0015	-0.0008	-0.006	0.0217	-79.6
0.0022	-0.0015	-0.0046	0.0127	-79.6
-0.0008	-0.0091	-0.0046	0.0082	-79.6
-0.0008	-0.006	-0.0046	-0.0008	-79.6
0.0037	-0.0053	0.0022	-0.0105	-79.7
0.0067	-0.0046	0.006	-0.0203	-79.7
0.009	0.0015	0.0067	-0.0263	-79.7
0.0067	0.0007	0.0067	-0.0181	-79.7
0.006	-0.0008	0.0052	-0.0113	-79.7
0.0052	-0.0015	0.0045	-0.0105	-79.7
0.0007	-0.0008	0.003	-0.0046	-79.7
-0.0008	-0.0015	0.0067	-0.0008	-79.7
-0.0023	-0.0015	0.0097	0.0052	-79.7
-0.0008	0.0015	0.0045	0.009	-79.7
0	-0.0008	-0.0015	0.0015	-79.7
0.0007	-0.0008	-0.0015	-0.0023	-79.7
0.006	-0.0046	-0.0015	0.0007	-79.7
0.0075	-0.0075	-0.0008	-0.0015	-79.7
0.0045	-0.0098	0	-0.0075	-79.7
0.0007	-0.0128	0.0022	-0.012	-79.7
0.0007	-0.0098	0.0022	-0.0068	-79.7
0.003	-0.0068	0.0022	0.0082	-79.7
0.0037	-0.0091	0.0052	0.0157	-79.7
0.0015	-0.0091	0.0037	0.024	-79.7
-0.0008	-0.0068	0.0052	0.024	-79.7
-0.0015	-0.0053	0.0067	0.0187	-79.7
0.0007	-0.0053	0.0067	0.0135	-79.7
0	-0.006	0.0082	0.0045	-79.7
-0.0068	-0.0046	0.0067	0.0052	-79.7
-0.0098	-0.006	0.0045	0.009	-79.7
-0.0091	-0.0068	0.0007	0.009	-79.7
-0.0083	-0.0075	-0.0008	0	-79.7
-0.0091	-0.0091	-0.0015	-0.0113	-79.7
-0.0068	-0.0113	-0.0015	-0.0135	-79.7
-0.0038	-0.012	-0.003	-0.0128	-79.8
-0.0053	-0.0135	-0.0053	-0.015	-79.8
0	-0.0181	-0.0038	-0.0195	-79.8
0.0052	-0.015	-0.0008	-0.0143	-79.8
0.0022	-0.0128	0.0015	-0.0053	-79.8
0.0007	-0.012	0.0037	-0.0053	-79.8
-0.0008	-0.0105	0.0052	-0.0015	-79.8
-0.0008	-0.0098	0.0067	-0.0015	-79.8
0.0007	-0.0053	0.0052	-0.0023	-79.8
0	-0.0053	0.0007	0.0015	-79.8
-0.0023	-0.0038	-0.0015	0.0045	-79.9
0.0007	-0.0015	-0.0015	0.003	-79.9
0	0.0007	-0.0008	0.0007	-79.9
-0.0038	0.003	-0.003	0.003	-79.9
-0.0046	0.0045	-0.0053	0.0067	-79.9
-0.0068	0.0045	-0.003	0.009	-79.9
-0.0083	0.0022	-0.0023	0.009	-79.9
-0.0091	0.003	-0.0015	0.0112	-79.9
-0.012	0.0045	-0.0023	0.0142	-79.9
-0.0075	0.003	-0.003	0.015	-79.9
0.0037	0.0052	-0.0008	0.015	-79.9
0.0127	0.0075	-0.0015	0.0157	-79.9
0.0165	0.0052	-0.0008	0.0142	-79.9
0.0112	0.0075	-0.0015	0.0097	-79.9
0.0082	0.0075	-0.0053	0.0052	-79.9
0.0105	0.0052	-0.0046	0.0007	-79.9
0.0082	0.0045	-0.003	-0.003	-79.9
0.0052	0.0037	0.0015	-0.0046	-79.9
0.003	0.0045	0.006	0.003	-79.9
-0.0015	0.0045	0.0112	0.0037	-79.9
-0.0015	0.006	0.012	0.0022	-79.9
0.0007	0.0082	0.0112	0.0052	-79.9
-0.0015	0.0082	0.009	0.0045	-79.9
-0.0008	0.0097	0.0075	0.0067	-79.9
-0.003	0.009	0.0112	0.0015	-79.9
-0.0105	0.0052	0.0105	-0.0015	-79.9
-0.015	0.0045	0.0067	-0.003	-79.9
-0.0135	0.0045	0.0037	-0.0068	-79.9
-0.003	0.0045	0.0015	-0.0083	-79.9
0.0037	0.0007	0.0007	-0.012	-79.9
0.0007	-0.0023	0.0007	-0.0128	-80
-0.0008	-0.0023	0	-0.0128	-80
0.0022	-0.0046	0.0007	-0.0098	-80
0.0015	-0.003	0.0015	-0.0098	-80
0.0022	-0.003	-0.003	-0.0128	-80
-0.0008	-0.0023	-0.0053	-0.0098	-80
-0.0015	-0.003	-0.0046	-0.003	-80
-0.0008	-0.003	-0.0053	0.0067	-80
-0.0046	-0.0015	-0.0015	0.0037	-80
-0.0023	-0.0015	0.0007	-0.0015	-80
-0.0046	-0.0023	0.0007	-0.0008	-80.1
-0.0053	-0.0008	0.0015	0	-80.1
-0.0015	0.0015	-0.0008	0.0082	-80.1
0.0022	0.0007	-0.0015	0.0105	-80.1
0.0067	-0.0015	-0.0046	0.0075	-80.1
0.0082	-0.0015	-0.0015	0.0067	-80.1
0.0067	-0.0015	0.0045	0.0045	-80.1
0.0052	-0.0023	0.0082	-0.0015	-80.1
0.003	-0.0008	0.009	-0.0046	-80.1
0.0022	0.0007	0.0052	-0.0068	-80.1
0.0007	0.0007	0.0067	-0.0105	-80.1
-0.0015	0.0007	0.0082	-0.0128	-80.1
0.0007	0.0007	0.0067	-0.0128	-80.1
0.0022	0.003	0.0082	-0.0135	-80.1
0.003	0.0052	0.006	-0.0158	-80.1
0.0045	0.003	0.0015	-0.0128	-80.1
0.0082	0.003	-0.0008	-0.0091	-80.1
0.0097	0.003	-0.0023	-0.0053	-80.1
0.0067	0.003	-0.0008	-0.0008	-80.2
0.0075	0.0037	0.0007	0.0015	-80.2
0.0045	0.0015	0.0015	0.0045	-80.2
0.0045	0	0.0015	0.0075	-80.2
0.0015	0.0007	0.0007	0.0097	-80.2
-0.0015	0	0.003	0.0052	-80.2
0.0015	-0.0015	-0.0008	-0.0046	-80.2
0.0045	-0.0008	-0.006	-0.0068	-80.2
0.006	0.0007	-0.0046	-0.0038	-80.2
0.003	0.0007	-0.003	0.003	-80.2
0	0.0007	-0.0015	0.0052	-80.2
-0.0008	0	0	0.0127	-80.2
-0.0046	0.0015	0.0015	0.0217	-80.2
-0.0053	0.003	0	0.0195	-80.2
-0.0015	0.0022	-0.0038	0.015	-80.2
0.0007	0.0015	-0.0023	0.0127	-80.2
0	0.003	-0.003	0.0127	-80.2
-0.0008	0.003	-0.0015	0.0067	-80.2
0.003	0.003	0.003	0.006	-80.2
0.0045	0.003	0.0052	0.006	-80.2
-0.0023	0.0015	0.0045	-0.0008	-80.2
-0.0091	0.0015	0.0022	-0.0008	-80.2
-0.012	0	0.0007	-0.0038	-80.3
-0.0143	-0.003	-0.0008	-0.0046	-80.3
-0.0091	-0.0023	0	-0.0098	-80.3
-0.0008	-0.0015	0.0007	-0.0128	-80.3
0.0022	0	0.0007	-0.0083	-80.3
0	-0.0015	0.0007	-0.0098	-80.3
-0.0046	-0.0046	0	-0.0083	-80.3
-0.003	-0.0046	0.003	-0.0091	-80.3
-0.0023	-0.0038	0.0052	-0.0105	-80.3
-0.0046	-0.0046	0.0045	-0.006	-80.3
-0.0015	-0.0053	0.003	-0.0075	-80.3
0.0015	-0.0053	0.0015	-0.012	-80.3
0.006	-0.0068	0.0015	-0.0091	-80.3
0.0082	-0.0068	0.0022	-0.0046	-80.3
0.0015	-0.0053	0.0022	-0.003	-80.3
-0.0023	-0.0075	0	-0.0008	-80.3
-0.0015	-0.0083	-0.0015	0.0022	-80.3
-0.0008	-0.0075	0.0022	0.0037	-80.3
0	-0.0053	0.006	0.0015	-80.3
0.0007	-0.0053	0.0052	0.0022	-80.3
0.0007	-0.0068	0.0052	0.006	-80.4
0.0007	-0.0068	0.0052	0.0135	-80.4
-0.0008	-0.0053	0.0052	0.0142	-80.4
-0.0008	-0.0046	0.0022	0.012	-80.4
-0.0046	-0.0023	0.0007	0.0105	-80.4
-0.006	-0.0015	0	0.0022	-80.4
-0.0068	-0.0015	0	-0.0008	-80.4
-0.0046	-0.0015	-0.0015	-0.0023	-80.4
0.0015	-0.0023	-0.0046	-0.0053	-80.4
0.0075	-0.0015	-0.0046	-0.0083	-80.4
0.0105	0	-0.0046	-0.0105	-80.4
0.0015	0.0007	-0.0008	-0.0053	-80.4
0.0007	0.0007	0.0007	-0.0023	-80.4
0.0067	0.0007	-0.0015	0.003	-80.4
0.0075	0	-0.0015	0.0052	-80.4
0.0082	-0.0008	-0.0015	0.0052	-80.4
0.0037	0	0.0067	0.0037	-80.4
-0.0008	-0.0008	0.0067	0	-80.5
-0.003	0	0.0045	0.003	-80.5
-0.0015	0	0.0015	0.0052	-80.5
0.0007	0.0015	-0.0038	0.009	-80.5
0.0022	0.0045	-0.0008	0.0195	-80.5
0.0007	0.0075	-0.0008	0.0232	-80.5
-0.0038	0.0112	0.0015	0.0232	-80.5
-0.003	0.0105	0.0007	0.0232	-80.5
-0.0008	0.0082	0	0.0165	-80.5
0.0067	0.0045	0.0045	0.0052	-80.5
0.0097	0.0007	0.0082	-0.0023	-80.5
0.0037	0	0.009	-0.0046	-80.5
-0.003	0	0.009	-0.0053	-80.5
-0.0053	0.0007	0.0082	-0.0038	-80.5
-0.0046	0.0015	0.009	-0.0008	-80.5
-0.0046	0.0052	0.009	0.0007	-80.5
-0.003	0.0052	0.0052	0.006	-80.5
-0.0008	0.003	0.0045	0.0082	-80.5
-0.0038	0.0045	-0.0008	0.003	-80.6
-0.0015	0.003	-0.0046	0.0007	-80.6
0.0022	0.0007	-0.003	0	-80.6
0.0037	-0.0008	-0.0038	-0.0046	-80.6
0.0045	-0.0008	-0.0015	-0.0068	-80.6
0.0052	-0.0015	-0.0015	-0.0105	-80.6
0.006	-0.0023	0.0007	-0.0091	-80.6
0.0052	-0.0023	0.003	-0.0091	-80.6
-0.0008	-0.0015	0.003	-0.0105	-80.6
-0.0046	-0.0015	0.006	-0.0105	-80.6
-0.0046	-0.0015	0	-0.0105	-80.6
-0.0046	-0.0008	-0.0023	-0.0053	-80.6
-0.0015	-0.0015	-0.0008	-0.0015	-80.6
-0.0015	0	-0.003	-0.0008	-80.6
-0.0015	-0.0008	-0.003	-0.003	-80.6
0	0	-0.0023	-0.0046	-80.6
-0.0023	0.0007	0.0022	-0.006	-80.6
-0.0053	0.0007	0.0022	-0.015	-80.6
-0.0023	-0.0015	0.0015	-0.015	-80.6
0.0022	-0.0015	0.003	-0.0105	-80.6
0.003	0	0	-0.006	-80.6
0.003	0.0007	-0.0053	-0.0038	-80.6
0.0052	0.0015	-0.0091	-0.0023	-80.6
0.006	0.0007	-0.0091	0.0015	-80.6
0.0067	0	-0.0083	0.0007	-80.6
0.0045	0	-0.006	-0.006	-80.7
-0.003	-0.0015	-0.0038	-0.0091	-80.7
-0.003	-0.0023	-0.0015	-0.0091	-80.7
-0.0046	-0.0023	-0.0015	-0.0068	-80.7
-0.0068	-0.0038	-0.0008	-0.0015	-80.7
-0.0068	-0.0053	-0.0008	0.0007	-80.7
-0.0023	-0.0053	-0.0023	0.0052	-80.7
0.0052	-0.0053	0.0022	0.0157	-80.7
0.0052	-0.006	0.006	0.027	-80.7
0.0007	-0.0053	0.009	0.024	-80.7
-0.0046	-0.0053	0.0127	0.0127	-80.7
-0.0091	-0.0068	0.0142	0.0082	-80.7
-0.0105	-0.0083	0.0157	0.0052	-80.7
-0.012	-0.0068	0.0157	0.0052	-80.7
-0.003	-0.0053	0.0157	-0.0008	-80.7
0.0045	-0.003	0.0105	-0.0008	-80.7
0.0037	-0.0008	0.0052	0.0007	-80.7
0.0007	-0.0008	0.0082	-0.0023	-80.7
0.003	-0.0008	0.0067	-0.006	-80.7
0.003	-0.0015	0.0045	-0.0068	-80.7
0.003	-0.0008	0.0015	-0.0008	-80.8
0.0037	-0.0015	0.0007	0	-80.8
0.0045	-0.003	0.003	0.0007	-80.8
0.0007	-0.003	0.0022	-0.003	-80.8
-0.0038	-0.006	0.0015	-0.0098	-80.8
-0.0023	-0.0046	0.0022	-0.0105	-80.8
-0.003	-0.003	0.003	-0.0038	-80.8
-0.0008	-0.003	0.0045	0.0165	-80.8
0.0015	-0.0015	0.0007	0.0322	-80.8
-0.0008	-0.0023	-0.003	0.0375	-80.8
-0.0008	0	-0.0053	0.0397	-80.8
0.0007	-0.0008	-0.0038	0.0352	-80.8
0.003	0	0.0007	0.03	-80.8
0.009	0	-0.0008	0.018	-80.8
0.0165	-0.0038	-0.0008	0	-80.8
0.018	-0.0046	-0.0046	-0.012	-80.8
0.0105	-0.006	-0.0068	-0.021	-80.8
0.0022	-0.0053	-0.0075	-0.0203	-80.8
0	-0.003	-0.0075	-0.0195	-80.8
-0.0008	-0.003	-0.003	-0.0195	-80.8
-0.003	-0.0015	-0.0015	-0.0143	-80.8
-0.0038	0.003	0.0007	-0.0075	-80.8
-0.0075	0.003	0.0015	0.0022	-80.8
-0.0053	0.0015	-0.0008	0.0075	-80.8
-0.0068	0.0045	0.0015	0.0075	-80.8
-0.0053	0.0045	0.0015	0.0022	-80.8
-0.0023	0.0022	0.0022	-0.0053	-80.8
-0.003	0.0015	0.0045	-0.0046	-80.8
0.0015	-0.0008	-0.0008	-0.006	-80.8
-0.0008	-0.0046	-0.003	-0.012	-80.8
-0.0015	-0.0053	-0.0046	-0.0105	-80.8
0.0045	-0.0068	-0.006	-0.0105	-80.8
0.0112	-0.0046	-0.0053	-0.0105	-80.8
0.0135	-0.0015	-0.0053	-0.0083	-80.8
0.0052	-0.003	-0.003	-0.012	-80.8
0.0022	-0.0015	0.0022	-0.012	-80.8
-0.0023	-0.0008	0.006	-0.012	-80.8
-0.0046	-0.0008	0.0105	-0.0143	-80.8
-0.0015	-0.0015	0.0127	-0.0105	-80.8
-0.0053	-0.0015	0.0142	-0.0083	-80.8
-0.0068	-0.0015	0.0097	-0.0083	-80.9
-0.0053	-0.0015	0.0052	-0.0098	-80.9
-0.0046	-0.0008	0.0052	-0.006	-80.9
0.003	-0.0015	0.0022	-0.0068	-80.9
0.006	-0.0008	0.003	-0.0128	-80.9
0.0045	-0.0015	0.0052	-0.012	-80.9
0.0007	-0.0008	0.003	-0.0128	-80.9
-0.003	-0.0015	0.0045	-0.0083	-80.9
-0.0046	-0.0015	0.003	-0.0083	-80.9
-0.0023	-0.0015	0.0037	-0.0046	-80.9
-0.003	-0.003	0.003	0.0022	-80.9
-0.0068	-0.0038	0.0007	0.003	-80.9
-0.0053	-0.003	-0.0008	0.0022	-80.9
-0.0053	-0.003	-0.0038	-0.0008	-80.9
0	-0.0038	-0.003	0.0007	-80.9
0.0007	-0.0015	-0.0008	0.0022	-80.9
0.0007	-0.003	0.0007	0.0052	-80.9
-0.0008	-0.003	0.0007	0.0052	-80.9
-0.0053	-0.0015	-0.003	-0.0015	-80.9
-0.0068	-0.0046	-0.0053	-0.0098	-80.9
-0.0053	-0.0038	-0.0046	-0.0143	-80.9
-0.0046	-0.0046	-0.0015	-0.0105	-80.9
-0.0038	-0.0068	-0.0008	-0.0053	-80.9
-0.0015	-0.006	0.0015	0.0015	-80.9
-0.0023	-0.0083	0.0015	0.0045	-80.9
-0.0008	-0.0098	-0.0008	0.0075	-80.9
0.0007	-0.0091	-0.003	0.012	-80.9
0.0007	-0.0083	-0.0053	0.0075	-80.9
0	-0.0068	-0.0046	0.0015	-80.9
-0.0038	-0.0091	-0.0046	-0.0008	-80.9
-0.0038	-0.0105	-0.0075	-0.0038	-80.8
-0.0015	-0.0075	-0.0053	-0.012	-80.8
0.0015	-0.006	-0.0015	-0.0181	-80.8
0.0067	-0.0023	0.0015	-0.0128	-80.8
0.012	-0.0023	0.0052	-0.0068	-80.8
0.0135	-0.0015	0.0082	-0.0008	-80.8
0.0127	0.0007	0.0105	0.0052	-80.8
0.0045	0	0.012	0.0045	-80.8
-0.0023	0.0007	0.0112	0.0067	-80.8
0.0007	0.003	0.0127	0.012	-80.8
0.0015	0.0037	0.0127	0.018	-80.8
0.0015	0.0015	0.0142	0.0217	-80.8
0.0045	0.0022	0.012	0.0262	-80.8
0.0067	0.0045	0.0082	0.0292	-80.8
0.0097	0.006	0.0082	0.027	-80.8
0.0052	0.0067	0.0015	0.0247	-80.8
0.0015	0.0067	0.0007	0.0202	-80.8
0.0007	0.006	0.0015	0.0105	-80.8
0.0007	0.0037	-0.0023	0.003	-80.8
-0.0008	0.0015	-0.003	0.0007	-80.8
-0.0008	0.003	-0.0038	0.0007	-80.8
0.0007	0.003	-0.0046	-0.0038	-80.8
-0.0008	0	-0.0038	-0.003	-80.8
-0.003	0.0007	-0.0008	0.0015	-80.8
-0.0008	0.003	0.0015	0.0082	-80.8
0.0015	0.0037	0.0015	0.0165	-80.8
0.0007	0.003	0.0022	0.0202	-80.8
0	0.0015	0.003	0.0157	-80.8
-0.0008	0	0.0082	0.0097	-80.8
-0.003	-0.0038	0.0082	0.0067	-80.8
-0.0046	-0.003	0.0082	0.0007	-80.8
-0.0091	-0.0053	0.0052	-0.0015	-80.8
-0.0091	-0.0046	-0.0008	-0.0053	-80.8
-0.0015	-0.0015	0.0022	-0.0098	-80.8
-0.0015	-0.0038	0.0007	-0.0158	-80.8
0.0015	-0.0068	-0.003	-0.0203	-80.8
0.0007	-0.0075	-0.0046	-0.0218	-80.8
0.0015	-0.0091	-0.0068	-0.027	-80.8
0.0037	-0.0105	-0.0046	-0.0256	-80.8
-0.0015	-0.0091	-0.0038	-0.0233	-80.8
-0.0046	-0.006	-0.0046	-0.0218	-80.8
-0.0046	-0.003	-0.0008	-0.0068	-80.8
-0.0053	0.0007	0.0007	-0.0015	-80.8
-0.0023	0.003	-0.0015	0.0067	-80.8
0.0052	0.0052	0	0.0142	-80.8
0.0067	0.0067	0.0007	0.018	-80.8
0.0067	0.0067	-0.0015	0.0247	-80.8
0.0067	0.0082	-0.0015	0.0157	-80.8
0.0007	0.009	-0.003	0.0082	-80.8
-0.0023	0.0082	0.0007	-0.0023	-80.8
-0.0038	0.0052	0.003	-0.0091	-80.9
-0.0015	0.0052	0.0082	-0.0075	-80.9
0.0022	0.0045	0.0082	-0.0105	-80.9
0.0052	0.0045	0.0037	-0.0083	-80.9
0.0067	0.0015	0.0067	-0.0053	-80.9
0.0045	0	0.003	-0.006	-80.9
0.0007	0.0015	0.0015	-0.006	-80.9
0.0007	0.0015	-0.0015	-0.0046	-80.9
0.003	0.0007	-0.0023	-0.006	-80.9
0.0015	-0.0015	0.0007	-0.0083	-80.9
-0.0008	-0.0015	-0.0023	-0.0068	-80.9
-0.003	-0.003	-0.0008	-0.0046	-80.9
-0.0038	-0.003	-0.0015	-0.0008	-80.9
-0.0068	-0.003	-0.0008	0.003	-80.9
-0.0053	-0.0046	0.0007	0.0052	-80.9
0.0007	-0.003	-0.0008	0.0082	-80.9
0.0045	-0.0008	0.0007	0.0082	-80.9
0.0037	0	-0.0046	0.006	-80.9
0.0052	-0.0008	-0.0068	0.0045	-80.9
0.003	0	-0.0046	0.0015	-80.9
-0.0008	0.0007	-0.003	0.0007	-81
-0.0008	-0.0008	0.003	0.0022	-81
-0.003	-0.0008	0.0045	0.0037	-81
-0.006	-0.0008	0.0015	0.006	-81
-0.0068	-0.0008	-0.0008	0.0052	-81
-0.0053	-0.0015	-0.0008	0.0015	-81
-0.0046	-0.0015	0.0022	0.0015	-81
-0.0053	-0.0008	0.0067	0.0007	-81
-0.0053	-0.0008	0.0097	-0.0015	-81
-0.0046	-0.0008	0.0082	0	-81
-0.0015	0.0007	0.0007	0.0007	-81
0	-0.0008	-0.0015	-0.0008	-81
-0.0008	0.0007	-0.0015	0	-81
-0.0015	0.0007	-0.0023	-0.0015	-81
0.0045	0.0007	0.0022	-0.003	-81
0.015	0.0045	0.003	-0.003	-81
0.0195	0.0022	0.0052	-0.0038	-81
0.0142	0.0015	0.0037	-0.0015	-81
0.0075	0.0007	0	-0.0053	-81
0.0037	0.0007	0.0015	-0.0068	-81
0.0022	0.0015	0	-0.003	-81
0.0015	0.0007	0.0052	-0.0046	-81
-0.003	-0.0008	0.0082	-0.0038	-81
-0.0053	-0.0008	0.009	-0.0046	-81
-0.0008	-0.003	0.0082	-0.0008	-81
0.0015	-0.0053	0.0075	0.0015	-81
0	-0.0038	0.009	0.0007	-81
-0.0038	-0.0046	0.0037	0.0052	-81
-0.0075	-0.0053	0.003	0.0075	-81
-0.0046	-0.0053	0.0015	0.0045	-81
0	-0.0053	0.003	0	-81
0.0015	-0.003	0.0015	-0.0015	-81
0.0067	-0.0038	-0.0015	-0.003	-81
0.012	-0.003	-0.0015	-0.0046	-81
0.015	-0.0015	-0.0053	-0.0068	-81
0.0075	0	-0.0046	-0.0105	-81
-0.003	-0.0015	-0.0053	-0.015	-81
-0.0083	-0.0046	-0.003	-0.0173	-81
-0.0113	-0.003	0.003	-0.015	-81
-0.0068	-0.0015	0.0037	-0.0091	-81
-0.0038	-0.0015	0.0045	0.003	-81
-0.0015	-0.0015	0.0015	0.0112	-81
0.0007	-0.0008	0.003	0.0195	-81
0.0007	-0.0015	0.0052	0.0225	-81
-0.0008	-0.0008	0.0052	0.0217	-81
-0.003	0.0007	0.0067	0.0217	-81
-0.0038	-0.0015	0.0045	0.0187	-81
-0.0046	-0.0008	0.0045	0.0187	-81
-0.0053	-0.0008	0.003	0.0165	-81
-0.0091	-0.0015	0.0015	0.0127	-81
-0.0113	-0.0008	-0.0046	0.0082	-81
-0.0075	-0.0023	-0.0113	0.0015	-81
-0.0023	-0.003	-0.0135	0.0007	-81
0.0015	-0.0015	-0.0105	-0.0023	-81
0.0022	-0.0015	-0.0053	-0.0046	-81
0.0052	-0.0008	0.0022	-0.0053	-81
0.0045	-0.0008	0.0097	-0.0105	-81
0.0015	0.0007	0.0127	-0.012	-81
0.0082	0.0007	0.018	-0.0105	-81
0.0097	0.0015	0.0217	-0.0083	-81
0.0082	0.0007	0.0202	-0.006	-81
0.0067	0.0007	0.021	-0.0038	-81
0.0045	-0.0008	0.0142	-0.003	-81
0.0015	-0.0008	0.0037	-0.003	-81
0.0015	-0.0015	-0.0015	-0.003	-81
0.0045	-0.0015	-0.003	-0.003	-81
0.003	-0.0008	-0.0053	-0.0008	-81
-0.0023	0	-0.0023	0.0007	-81
-0.0046	0.003	-0.0008	0.0022	-81
0	0.0037	-0.0015	0.0052	-81
0.0015	0.003	-0.0015	-0.0008	-81
-0.0015	0.0022	-0.0015	-0.0075	-81
-0.0038	-0.0008	0	-0.0181	-81
-0.0053	-0.0015	-0.0008	-0.0278	-81
-0.003	-0.0008	-0.0008	-0.03	-81
-0.0068	-0.0008	-0.0015	-0.0218	-81
-0.0053	-0.0008	-0.0038	-0.0098	-81
-0.0008	-0.003	-0.0038	-0.0008	-81
-0.0008	-0.003	-0.0053	0.0172	-81
-0.0015	-0.003	-0.003	0.0255	-81
-0.0053	-0.0023	-0.0023	0.0277	-81
-0.0075	0.0015	0	0.033	-81
-0.0068	0.003	0.0045	0.0255	-81
0	-0.0008	0.0015	0.0195	-81
0.006	-0.0023	-0.0015	0.0127	-81
0.0045	-0.0015	-0.0015	0.0015	-81
0.0015	-0.0046	-0.0015	-0.006	-81
-0.003	-0.0038	-0.0023	-0.0083	-81
-0.0053	-0.0023	-0.0046	-0.0091	-81
-0.006	-0.003	-0.003	-0.0068	-81
-0.0038	-0.0053	-0.003	-0.0046	-80.9
-0.0015	-0.0053	-0.0008	-0.0053	-80.9
0.0007	-0.0053	0.0045	-0.0068	-80.9
0.0082	-0.0046	0.006	-0.0053	-80.9
0.012	0	0.0052	-0.003	-80.9
0.012	0.0015	0.006	-0.0038	-80.9
0.0045	0.0007	0.0052	-0.0038	-80.9
0.0015	-0.0008	0.0067	-0.0008	-80.9
-0.0008	-0.0008	0.0082	0	-80.9
-0.006	0.0015	0.0067	0.0022	-80.9
-0.0083	0.0015	0.0015	0.0045	-80.9
-0.0091	0.0007	-0.0008	0.003	-80.9
-0.0068	-0.0008	-0.003	0.0022	-80.9
-0.0015	0.0007	-0.0105	0.0007	-80.9
0.003	-0.0008	-0.0135	-0.0015	-80.9
0.0067	-0.0015	-0.0098	-0.0038	-80.9
0.009	-0.0023	-0.0053	-0.0038	-80.9
0.0105	-0.0038	0	-0.0046	-80.9
0.0142	-0.003	0.0015	-0.0015	-80.9
0.0157	-0.0008	0.0007	0.0007	-80.9
0.0112	0	-0.0015	0.0007	-80.9
0.0052	-0.0023	0.0007	0.0045	-80.9
0	-0.003	0.0045	0.0007	-80.9
-0.006	-0.0046	0.0045	-0.0046	-80.9
-0.0046	-0.003	0.0052	-0.0038	-80.9
-0.0015	-0.0023	0.0015	-0.0046	-80.9
-0.0023	-0.0038	-0.0023	-0.0046	-80.9
-0.003	-0.0046	-0.0015	-0.0023	-80.9
-0.0046	-0.0053	0.0007	-0.0038	-80.9
0.0015	-0.0046	0.0075	-0.0068	-80.9
0.0052	-0.0046	0.006	-0.003	-80.9
0.0015	-0.0046	0.0015	0.0007	-80.9
0.0015	-0.003	0	0.0052	-80.9
-0.0015	-0.0015	0.0015	0.009	-80.9
-0.0068	0	0.0052	0.0097	-80.9
-0.012	0.0015	0.0082	0.006	-80.9
-0.0165	0.0007	0.0082	0.0052	-80.9
-0.012	0	0.0067	0.0067	-80.9
-0.0046	0.0015	0.0045	0.0052	-80.9
0.003	0.0007	0.0007	0.0082	-80.9
0.009	0.0015	-0.0038	0.0037	-80.9
0.006	0.0015	-0.0046	0.0015	-80.9
-0.003	-0.0015	-0.003	0.0045	-80.9
-0.0053	-0.0023	0	0.0015	-80.9
0	-0.0015	0.0007	0.0015	-80.9
0.0082	-0.0015	-0.0008	0.0007	-80.9
0.0172	-0.0015	-0.0008	-0.0015	-80.9
0.0202	0	-0.0015	0	-80.9
0.0127	0.0007	-0.0015	0.0037	-80.9
-0.0008	0	-0.0015	0.0052	-80.9
-0.0083	-0.0008	-0.0008	0.003	-80.9
-0.0091	-0.0008	0.0007	0.0007	-80.9
-0.0143	-0.0015	0.0022	-0.0008	-80.9
-0.0105	-0.0008	0.0045	-0.0015	-80.9
-0.0038	-0.0008	-0.0008	-0.0023	-80.9
-0.0008	-0.0008	-0.0015	0.0007	-80.9
0.0015	-0.0023	-0.0008	0.003	-80.9
0.0015	-0.0038	0	0.0015	-80.9
0.0067	-0.0046	0.0052	0.003	-80.9
0.0097	-0.0053	0.0067	0.0045	-80.9
0.0067	-0.0046	0.0067	0.0052	-80.9
0	-0.0015	0.0082	0.006	-80.9
-0.003	-0.0023	0.0045	0.0067	-80.9
-0.0046	-0.0015	0.0015	0.003	-80.9
-0.0098	0	-0.003	-0.0008	-80.9
-0.0075	-0.0015	-0.0015	0.0007	-80.9
-0.0105	-0.003	-0.0008	0.0007	-80.9
-0.0128	-0.0008	-0.0053	0.0037	-80.9
0.0015	0.0007	-0.003	0.0015	-80.9
0.012	0.0015	-0.0008	0.0015	-80.9
0.018	0.0007	0.0067	0.0052	-80.9
0.009	0.0015	0.012	0.006	-80.9
-0.0015	0.0015	0.012	0.006	-80.9
0.0007	0.0022	0.0127	0.0045	-80.9
0.0007	0.0015	0.0075	0.0022	-80.8
0.003	0	-0.003	0.0015	-80.8
0.0022	0.0015	-0.0068	0.0037	-80.8
-0.003	0.0007	-0.0075	0.0015	-80.8
-0.0046	0.0007	0	-0.0008	-80.8
-0.0008	-0.0008	0.009	-0.003	-80.8
0.003	-0.0008	0.0105	-0.003	-80.8
0.006	-0.003	0.012	-0.0046	-80.8
0.009	-0.0038	0.015	-0.0053	-80.8
0.003	-0.003	0.015	-0.0008	-80.8
0.0037	-0.0015	0.0127	-0.003	-80.8
0.0052	0	0.009	-0.0053	-80.8
-0.0046	0.0007	0.0045	-0.006	-80.8
-0.0046	0.003	-0.0023	-0.0068	-80.7
-0.0046	0.0045	-0.0128	-0.0075	-80.7
-0.0008	0.0015	-0.0218	-0.0091	-80.7
0.0045	0	-0.0233	-0.0075	-80.7
0.0045	-0.0008	-0.0195	-0.0083	-80.7
0.0015	0.0007	-0.0143	-0.0023	-80.7
-0.0046	0.0007	-0.0083	0	-80.7
-0.0053	0.0007	-0.0015	0	-80.7
-0.0046	0.0015	0	0.006	-80.6
-0.0015	0.0007	-0.0015	0.003	-80.6
0.0022	0.003	-0.0015	0.0015	-80.6
0.0022	0.0045	-0.0046	0.003	-80.6
0.003	0.0007	-0.0098	0.0052	-80.6
0.003	-0.0015	-0.012	0.0075	-80.6
0.003	-0.0015	-0.0083	0.0052	-80.6
0.0015	-0.003	-0.0023	0.0067	-80.6
0.0045	-0.0046	0.003	0.0067	-80.6
0.0105	-0.0046	0.0097	0.0082	-80.6
0.0142	-0.0015	0.0127	0.0022	-80.5
0.0142	0	0.018	-0.003	-80.5
0.0067	-0.0008	0.0217	-0.0068	-80.5
-0.003	-0.0023	0.0217	-0.0098	-80.5
-0.0113	0.0007	0.0195	-0.0091	-80.5
-0.0098	0.0015	0.012	-0.0098	-80.5
-0.0105	0	0.0037	-0.0075	-80.5
-0.0068	-0.0008	-0.0008	-0.006	-80.4
-0.0015	-0.003	-0.0015	-0.0053	-80.4
-0.0053	-0.0038	0	-0.0046	-80.4
-0.0068	-0.0038	0.003	-0.0015	-80.4
-0.0098	-0.0046	0.0075	0.0007	-80.4
-0.0128	-0.0053	0.0052	-0.0008	-80.4
-0.012	-0.0053	-0.0053	0.003	-80.3
-0.0083	-0.0015	-0.012	-0.0015	-80.3
-0.0053	0.0007	-0.012	-0.006	-80.3
-0.0046	-0.0015	-0.0105	-0.0038	-80.3
-0.0008	-0.0015	-0.0068	0.0015	-80.3
0.003	-0.0015	-0.0091	0.0052	-80.2
0.0067	-0.0015	-0.006	0.0007	-80.2
0.0105	-0.0008	-0.0008	0.0022	-80.2
0.009	0	0.006	0.0022	-80.2
0	0.0007	0.0172	0.0022	-80.2
-0.0105	-0.0015	0.0195	0.0015	-80.2
-0.0128	-0.0023	0.0157	0.0037	-80.1
-0.0068	-0.0015	0.0082	0.009	-80.1
-0.0038	-0.0015	0.0067	0.0082	-80.1
0.0007	-0.0008	0.0052	0.009	-80.1
0.0067	-0.0015	-0.0008	0.0105	-80.1
0.0075	-0.0008	-0.0008	0.0105	-80.1
0.0052	0	-0.003	0.0082	-80
0.0052	-0.0008	-0.003	0.0015	-80
0.009	-0.0008	-0.003	0.0007	-80
0.0105	-0.0008	-0.0008	-0.0015	-80
0.012	-0.003	0.003	-0.003	-79.9
0.0097	-0.0015	-0.0008	-0.0091	-79.9
0.0007	-0.0008	0	-0.0143	-79.9
-0.0015	-0.0008	-0.0015	-0.0143	-79.9
0.0015	-0.0008	-0.003	-0.0158	-79.8
0.0097	-0.0008	0.0007	-0.012	-79.8
0.0067	-0.0015	-0.0015	-0.0053	-79.8
0.0007	-0.0008	-0.0008	-0.0053	-79.8
-0.003	-0.0008	0.0007	-0.0015	-79.8
-0.0053	-0.0008	0	0.003	-79.7
-0.0053	-0.0008	0	0.003	-79.7
-0.0143	-0.0015	0	0.003	-79.7
-0.0165	-0.0008	0.0007	0.0067	-79.7
-0.0105	-0.0008	-0.003	0.0075	-79.6
-0.0015	-0.0023	-0.0015	0.006	-79.6
0.0075	-0.0015	0.0007	0.0067	-79.6
0.0067	-0.0015	-0.0015	0.0082	-79.5
0.0007	-0.0015	0.0037	0.0045	-79.5
-0.0023	-0.0046	0.0075	0.0037	-79.4
0.003	-0.003	0.0127	0.0067	-79.4
0.0105	-0.0008	0.0157	0.0067	-79.4
0.012	-0.0015	0.012	0.0022	-79.3
-0.0008	-0.0008	0.006	-0.003	-79.3
-0.0083	-0.0015	-0.0023	-0.0091	-79.2
-0.0038	-0.003	-0.0015	-0.0075	-79.2
0.0022	-0.0015	0.0015	-0.003	-79.2
0.0142	-0.0008	-0.0008	-0.0038	-79.2
0.012	-0.0008	0.0007	-0.0015	-79.1
0.0052	-0.0015	0.0037	-0.0046	-79.1
-0.003	-0.0008	0.0067	-0.0046	-79.1
-0.0173	-0.0008	0.0105	-0.0023	-79
-0.024	0	0.0165	-0.0023	-79
-0.0233	0.0007	0.0195	0.003	-78.9
-0.0188	0	0.0097	0.0022	-78.9
-0.0105	-0.0008	0	-0.0023	-78.8
-0.0046	-0.0015	-0.0053	-0.003	-78.8
-0.0023	0.0007	-0.0068	-0.0008	-78.7
0.012	-0.0015	-0.0068	0.0022	-78.7
0.0195	-0.003	-0.0083	0.0067	-78.6
0.0202	-0.0015	-0.012	0.0097	-78.5
0.0187	-0.003	-0.0158	0.0082	-78.5
0.006	-0.0023	-0.0143	0.0105	-78.4
0.0045	-0.0015	-0.0075	0.015	-78.4
0	-0.0046	-0.0008	0.012	-78.3
0	-0.0023	0.0007	0.0052	-78.3
0.0052	-0.0015	-0.0008	0.0007	-78.2
0.0082	-0.0008	0.0015	0	-78.2
0.0202	-0.0008	0.003	0.0037	-78.1
0.0157	-0.0023	0.003	0.0082	-78.1
0.0052	-0.0015	0.0067	0.0082	-78
0.0067	-0.0023	0.0082	0.0165	-77.9
0.0075	-0.003	0.012	0.0127	-77.9
0.009	-0.0015	0.0105	0.0067	-77.9
0.0045	-0.0015	0.0082	0.0052	-77.8
0.0007	-0.003	0.0052	0.0007	-77.7
0.0022	-0.003	0	0.0052	-77.6
-0.0008	-0.003	-0.0046	0.0105	-77.5
-0.0038	-0.0015	-0.0046	0.0075	-77.5
-0.0068	0.0007	-0.003	0.0075	-77.4
-0.0105	0.003	-0.003	0.006	-77.4
-0.0143	0.0052	-0.003	0.0037	-77.3
-0.0158	0.003	-0.0046	0.003	-77.2
-0.0143	0.0007	-0.0105	0.0037	-77.2
-0.012	0.0007	-0.0143	0.0045	-77.1
-0.0038	0.0007	-0.0143	0.0022	-77
-0.0008	0.0007	-0.0091	0.0075	-77
-0.003	0.0007	-0.003	0.0082	-76.9
-0.0053	-0.0008	-0.0008	0.0015	-76.8
-0.003	-0.0023	0.0045	-0.0053	-76.8
-0.006	-0.003	0.0142	-0.0015	-76.7
-0.0038	-0.0038	0.0165	0.0052	-76.6
0.0037	-0.0015	0.015	0.0037	-76.5
0.0045	0	0.0127	0.0052	-76.5
0.0112	-0.0008	0.0052	0.0067	-76.4
0.0045	-0.0008	0.0015	0	-76.3
-0.0008	0	-0.0015	-0.0046	-76.2
0.006	0.0007	-0.0008	-0.0091	-76.2
0.0075	0.0007	0.0067	-0.0105	-76.1
0.0067	0	0.0187	-0.0083	-76
0.006	0	0.0217	-0.0083	-76
0.006	-0.003	0.0165	-0.0038	-75.9
0	-0.0046	0.0105	-0.0008	-75.8
-0.006	-0.003	0.0075	0	-75.7
-0.0143	-0.0023	0.003	0.003	-75.6
-0.0188	-0.0015	-0.0023	0.009	-75.6
-0.012	-0.003	-0.003	0.0165	-75.5
-0.006	-0.0046	-0.0068	0.0165	-75.4
0.003	-0.0046	-0.0075	0.0165	-75.4
0.0015	-0.0038	-0.0046	0.018	-75.3
-0.0046	-0.003	-0.0075	0.015	-75.2
-0.006	-0.003	-0.0068	0.0135	-75.2
-0.0083	-0.0015	-0.0091	0.012	-75.1
-0.006	-0.0008	-0.0068	0.003	-75
0.0037	0	0	-0.0023	-74.9
0.0105	0.0015	0.0067	-0.0046	-74.8
0.0105	0.0037	0.0105	-0.006	-74.7
0.0127	0.0052	0.0082	-0.0053	-74.7
0.012	0.0052	0.0105	-0.0068	-74.6
0.0037	0.0052	0.0082	-0.0046	-74.5
0.003	0.003	0.0037	-0.006	-74.4
0.0112	0.0022	0.006	-0.0068	-74.3
0.0127	0	-0.0008	-0.0091	-74.3
0.009	-0.0015	-0.006	-0.0135	-74.2
0.003	-0.003	-0.0068	-0.0128	-74.1
-0.0053	-0.0038	-0.0053	-0.0165	-74
-0.006	-0.003	-0.0068	-0.021	-73.9
-0.0053	-0.0023	-0.0105	-0.0218	-73.8
-0.006	-0.0015	-0.0083	-0.0256	-73.8
-0.0046	-0.003	-0.0068	-0.0293	-73.7
-0.0053	-0.0046	-0.0008	-0.0353	-73.6
-0.0113	-0.0038	0.0045	-0.0353	-73.5
-0.0113	-0.0046	0.0067	-0.0346	-73.4
-0.0038	-0.0038	0.0097	-0.0338	-73.4
0.0045	-0.0008	0.0045	-0.0256	-73.3
0.012	0	0.003	-0.027	-73.2
0.0082	-0.0023	0.0007	-0.027	-73.1
0.0045	-0.0008	0.0007	-0.0248	-73
0.0045	-0.0008	0.003	-0.0218	-72.9
-0.0046	0	0.0045	-0.0165	-72.9
-0.0113	0.0007	0.0105	-0.012	-72.8
-0.006	-0.0008	0.0105	-0.0105	-72.7
0.0052	-0.0008	0.012	-0.0098	-72.6
0.0112	-0.0008	0.0105	-0.0075	-72.5
0.012	0	0.006	-0.0075	-72.4
0.0067	0.0015	0.0045	-0.0083	-72.3
-0.0015	0.0015	0.0015	-0.0068	-72.2
-0.0023	0.0007	-0.0015	-0.006	-72.1
0.0015	0.0015	-0.0046	-0.003	-72.1
0.0015	0.0007	-0.006	-0.0023	-72
0.0067	0	-0.0091	-0.0008	-71.9
0.0045	-0.0008	-0.0091	-0.0008	-71.8
0.0007	-0.003	-0.0068	-0.0046	-71.7
0.0022	-0.0046	-0.0015	-0.0083	-71.6
0.0007	-0.006	0.0045	-0.0105	-71.6
0.0007	-0.0046	0.0097	-0.0068	-71.5
-0.0046	-0.0053	0.0157	-0.0038	-71.4
-0.0068	-0.0068	0.0157	0.0007	-71.3
-0.003	-0.0053	0.0135	0.0037	-71.2
-0.0083	-0.0046	0.0105	0.0045	-71.1
-0.0105	-0.003	0.0045	0.0045	-71
-0.0158	-0.0046	0.0007	0.0007	-70.9
-0.0173	-0.0008	-0.003	0.0022	-70.8
-0.0143	0.0007	-0.0083	-0.0008	-70.7
-0.0128	-0.0023	-0.0075	-0.0023	-70.7
-0.0068	-0.003	-0.0068	0.0007	-70.6
-0.003	-0.0008	-0.0053	0.0007	-70.5
-0.006	0.0015	-0.0023	0.003	-70.4
-0.0068	0.003	-0.0038	0.003	-70.3
0.009	0.003	-0.0008	0.0067	-70.2
0.0195	0.0045	0.0022	0.0142	-70.1
0.0097	0.0067	0.0045	0.018	-70
0.0045	0.0052	0.0082	0.0195	-69.9
0.0037	0.0045	0.0052	0.0142	-69.8
0.003	0.003	0.0052	0.009	-69.8
0.0052	-0.0008	0.003	0.009	-69.7
0.0112	-0.003	-0.0015	0.0082	-69.6
0.0105	-0.0023	-0.0023	0.009	-69.5
0.0052	-0.0008	-0.0015	0.0112	-69.4
-0.0008	-0.0015	0.0045	0.0112	-69.3
-0.0098	-0.003	0.012	0.0097	-69.2
-0.0046	-0.0046	0.0112	0.0105	-69.1
0.003	-0.0046	0.0082	0.0105	-69
0	-0.003	0.0022	0.0105	-68.9
-0.0038	-0.0015	-0.003	0.0105	-68.9
-0.003	-0.0015	-0.0091	0.009	-68.8
0.0052	-0.0023	-0.012	0.0075	-68.7
0.0105	-0.003	-0.0046	0.0045	-68.6
0.0157	-0.003	-0.0015	0.0045	-68.5
0.0165	-0.003	0	0.0067	-68.4
0.012	-0.0038	0.003	0.0097	-68.3
0.0037	-0.003	0.0015	0.012	-68.2
-0.0015	-0.0046	0.0045	0.012	-68.1
-0.0046	-0.003	0.0045	0.0112	-68
-0.0046	-0.0015	0.0037	0.0112	-68
-0.0046	-0.0015	0.0007	0.0127	-67.9
-0.0068	-0.003	-0.0038	0.0127	-67.8
-0.0038	-0.0038	-0.0068	0.009	-67.7
-0.0053	-0.0038	-0.0091	0.0045	-67.6
-0.0075	-0.0046	-0.0068	0	-67.5
-0.0053	-0.003	-0.0083	-0.0038	-67.5
-0.0008	-0.0015	-0.0046	-0.0053	-67.4
0.0037	-0.0008	0	-0.0091	-67.3
0.0045	0.0007	-0.0046	-0.0091	-67.2
0.006	0.0007	0	-0.0068	-67.1
0.0015	-0.0008	0.0045	-0.0046	-67.1
-0.0046	-0.0023	0.0157	-0.0023	-67
-0.006	-0.0008	0.0247	0	-66.9
-0.0053	-0.0008	0.024	0.0007	-66.8
-0.006	-0.0023	0.0195	-0.0008	-66.7
-0.0083	0	0.0067	-0.0015	-66.7
-0.0068	-0.0008	-0.0015	0.0007	-66.6
0	-0.0015	-0.0053	0.0015	-66.5
0.0045	0.0007	-0.0068	0.0045	-66.4
0.0007	0.0015	-0.003	0.003	-66.4
0.0015	0.0015	-0.0046	0.0022	-66.3
0.0045	0.0022	-0.0046	0.0067	-66.2
-0.0023	0.0007	-0.0023	0.009	-66.2
-0.003	0.0015	-0.0008	0.0052	-66.1
-0.0008	0.0015	0.003	-0.0008	-66
0.0045	-0.0008	0.0067	-0.0053	-66
0.003	0.0007	0.009	-0.0046	-65.9
-0.0015	0.0022	0.0067	-0.0046	-65.8
-0.0015	0.003	0.003	-0.003	-65.7
0	0.0015	-0.0075	-0.0015	-65.7
-0.0015	0.0007	-0.0143	-0.0023	-65.6
-0.006	0.0045	-0.0143	0.0015	-65.5
-0.003	0.0045	-0.0105	0.0052	-65.5
0.0022	0.0037	0.0015	0.012	-65.4
0.006	0.0015	0.009	0.0142	-65.3
0.0142	-0.0023	0.0127	0.0082	-65.3
0.0105	-0.0008	0.0142	0.009	-65.2
0	0.003	0.009	0.0007	-65.1
0.0007	0.0022	-0.0008	-0.0068	-65
0.0007	0.0007	-0.0046	-0.0098	-65
-0.003	-0.0008	-0.003	-0.0143	-64.9
-0.0038	-0.0008	0.0015	-0.0143	-64.8
-0.0015	-0.0015	0.0052	-0.0128	-64.8
0.0037	-0.0008	0.0112	-0.0083	-64.7
0.0097	-0.0015	0.0157	-0.003	-64.6
0.0157	-0.0008	0.012	0.0015	-64.5
0.0165	-0.0023	0.0067	0.0022	-64.5
0.0037	-0.0053	0.0022	-0.0008	-64.4
-0.0075	-0.0068	0.0015	-0.003	-64.3
-0.0083	-0.0068	0.0007	-0.006	-64.3
-0.0038	-0.0053	-0.0046	-0.0083	-64.2
-0.0008	-0.0038	-0.0015	-0.0053	-64.1
-0.003	-0.0023	-0.0068	-0.0038	-64
-0.0008	-0.003	-0.0098	-0.0015	-63.9
0.0015	-0.003	-0.0068	0.003	-63.9
0.0007	-0.003	-0.0075	0.003	-63.8
-0.003	-0.0015	-0.0015	0.0022	-63.8
-0.0068	-0.0008	0.0015	0.0007	-63.7
-0.0091	-0.0008	0.006	0.0007	-63.6
-0.0053	-0.0015	0.0097	0.0007	-63.5
-0.003	-0.0008	0.0142	-0.003	-63.5
-0.0015	-0.0008	0.018	-0.0053	-63.4
-0.0015	-0.0015	0.0082	-0.006	-63.3
-0.0015	-0.003	0.003	-0.0046	-63.3
0.0037	-0.0015	-0.0053	-0.003	-63.2
0.003	-0.0015	-0.0105	-0.0046	-63.1
-0.003	-0.0015	-0.0128	-0.0053	-63
-0.006	-0.0015	-0.0143	-0.0068	-63
-0.0068	-0.003	-0.0083	-0.0015	-62.9
0	-0.0015	-0.0046	0.003	-62.8
0.012	-0.003	0.006	0.0075	-62.8
0.0142	-0.003	0.0105	0.006	-62.7
0.012	-0.003	0.009	0.0022	-62.6
0.0052	-0.0046	0.0052	0.003	-62.6
-0.003	-0.0038	-0.003	0.0022	-62.5
0.0015	-0.0023	-0.0068	0.0045	-62.4
-0.003	-0.0008	-0.0091	0.0045	-62.4
-0.0113	0	-0.0105	0.0045	-62.3
-0.0143	-0.0015	-0.0083	0.0082	-62.2
-0.0113	0.0007	-0.0046	0.0097	-62.1
-0.0046	0.0022	-0.0015	0.0067	-62.1
0.0007	0.0007	0.0015	0.0052	-62
0.009	0	0.0067	0.0015	-62
0.0112	0.0015	0.0037	-0.0046	-61.9
0.0165	-0.0008	-0.0008	-0.0023	-61.8
0.0195	-0.0008	0.003	-0.0015	-61.8
0.009	0.0007	0.0075	-0.0023	-61.7
-0.0053	-0.0023	0.0142	0.0007	-61.7
-0.0143	-0.0015	0.0157	-0.003	-61.6
-0.0128	-0.0015	0.0127	-0.0053	-61.5
-0.012	-0.003	0.0082	-0.0008	-61.5
-0.006	-0.0008	0.0045	0.003	-61.4
-0.0023	-0.0008	-0.0046	-0.0008	-61.3
-0.0075	-0.0015	-0.0128	0.0022	-61.3
-0.0135	-0.0015	-0.0143	0.0007	-61.2
-0.0143	-0.0008	-0.0181	-0.0053	-61.2
-0.0046	-0.0008	-0.0158	-0.003	-61.1
0.0052	-0.0008	-0.0083	-0.003	-61
0.009	0	0.0015	-0.0008	-61
0.0157	0.0007	0.0127	0.0007	-60.9
0.0202	-0.0008	0.0172	0.0007	-60.8
0.0067	-0.0015	0.0232	-0.0008	-60.8
-0.0105	-0.003	0.027	0	-60.7
-0.012	-0.0015	0.0262	0.0045	-60.6
-0.0075	0.0007	0.0202	0.0067	-60.6
-0.0053	0.003	0.0105	0.009	-60.5
0.0015	0.0045	0.0007	0.009	-60.4
0.0067	0.0045	-0.0053	0.0022	-60.3
0.0157	0.0037	-0.0008	-0.0015	-60.3
0.018	0.0015	0.0067	0.0015	-60.2
0.0127	0	0.0015	0.0037	-60.1
0.0105	-0.0008	-0.0083	0.0052	-60.1
0.0067	-0.0046	-0.0128	0.0052	-60
-0.0008	-0.0046	-0.0158	0.0037	-59.9
-0.0143	-0.0038	-0.0158	0.003	-59.9
-0.0181	-0.0053	-0.012	-0.0023	-59.8
-0.0068	-0.0046	-0.006	-0.0068	-59.7
0.0045	-0.006	0.0022	-0.0075	-59.7
0.0045	-0.0091	0.012	-0.006	-59.6
0.003	-0.0083	0.0195	0.0007	-59.5
0.0067	-0.0053	0.0202	0.0045	-59.5
0.0007	-0.0046	0.009	0.0075	-59.4
-0.0046	-0.003	0.0007	0.0052	-59.4
-0.0008	-0.0023	0.0007	0.0015	-59.3
0	-0.0038	-0.0008	0.0015	-59.2
0.0022	-0.003	-0.0008	-0.0008	-59.1
0	-0.003	0.0015	0.003	-59.1
-0.003	-0.0015	0.0037	0.0067	-59
-0.0008	-0.0008	0.003	0.0082	-59
-0.0008	-0.0008	-0.0015	0.0082	-58.9
-0.0046	-0.0008	-0.0075	0.0052	-58.8
-0.0128	-0.0008	-0.0105	-0.0023	-58.8
-0.0158	0.0022	-0.0113	-0.0091	-58.7
-0.0165	0.0015	-0.0105	-0.0113	-58.6
-0.0053	0	-0.0091	-0.0113	-58.5
0.0075	-0.003	-0.0083	-0.0091	-58.5
0.009	-0.0038	-0.0046	-0.0091	-58.4
0.0127	-0.003	0.0022	-0.006	-58.4
0.012	-0.003	0.0082	-0.0023	-58.3
0.0165	-0.0015	0.012	-0.0023	-58.2
0.0082	-0.0015	0.0142	-0.0023	-58.2
-0.0083	0	0.0195	0.0007	-58.1
-0.0098	0.003	0.027	0.003	-58.1
-0.0143	0.0052	0.0232	0.0045	-58
-0.0075	0.0052	0.012	0.0067	-57.9
-0.0008	0.003	-0.0015	0.0052	-57.8
0.0007	0.0015	-0.012	0.003	-57.8
0.0082	-0.0008	-0.0203	-0.0008	-57.7
0.0082	-0.0046	-0.0233	-0.0008	-57.6
0.0165	-0.0053	-0.0188	0.0015	-57.6
0.0127	-0.0038	-0.0128	0.003	-57.5
-0.0015	-0.003	-0.0008	0.0052	-57.5
-0.0098	-0.003	0.0082	-0.0015	-57.4
-0.0083	0.0007	0.0135	0.0037	-57.3
-0.0068	0.0022	0.012	0.0067	-57.2
-0.0083	0.0015	0.0067	0.0022	-57.2
-0.0053	0.0022	0.009	0.0015	-57.1
-0.0113	0.0007	0.0075	-0.0046	-57.1
-0.0068	0.0007	0.0105	-0.003	-57
-0.0046	-0.0015	0.018	-0.0068	-56.9
-0.0008	0.0007	0.0232	-0.0105	-56.8
0.0097	0.0015	0.0307	-0.0053	-56.7
0.0045	0.0007	0.0307	-0.006	-56.7
-0.0015	0.0015	0.0247	0.0015	-56.6
-0.0008	-0.0008	0.0105	0.0052	-56.5
0.0037	0	0.0022	0	-56.4
0.0052	0.0022	-0.006	-0.0015	-56.3
0.0052	0.003	-0.0143	0	-56.3
0.0052	0.0015	-0.015	-0.0008	-56.2
0.0022	0	-0.0188	0.0007	-56.1
-0.003	0.0007	-0.0128	0.0022	-56
-0.0083	0	-0.012	0.0022	-55.9
-0.0105	0.0007	-0.0128	0.003	-55.8
-0.012	-0.0015	-0.012	0.0022	-55.8
-0.0098	-0.0046	-0.015	0.0052	-55.7
-0.0053	-0.0046	-0.0075	0.0082	-55.6
0.0007	-0.0038	0.0007	0.009	-55.5
0.009	-0.0038	0.0082	0.0082	-55.4
0.0127	-0.0053	0.009	-0.003	-55.4
0.0157	-0.0046	-0.003	-0.0068	-55.3
0.0195	-0.006	-0.0105	-0.0053	-55.2
0.0157	-0.0083	-0.0165	-0.0068	-55.1
0.0097	-0.0091	-0.0165	-0.003	-55
0.009	-0.0091	-0.0135	-0.0008	-54.9
0.0015	-0.0091	-0.0075	0.0015	-54.9
-0.0053	-0.0091	-0.0008	0.0037	-54.8
-0.003	-0.0068	0.0022	0.0067	-54.7
-0.0015	-0.0038	0.0067	0.012	-54.6
-0.0023	-0.0015	0.0052	0.0127	-54.5
-0.0046	0	0.0105	0.009	-54.4
-0.0091	0.0007	0.0127	0.0082	-54.3
-0.0091	0.0007	0.0067	0.0052	-54.2
-0.0105	0.0015	0	0.0015	-54.1
0	0.0007	-0.0091	0.0015	-54.1
0.0157	0	-0.0015	-0.003	-54
0.0142	-0.0015	0.0007	-0.0053	-53.9
0.0067	0.0007	-0.0068	-0.0015	-53.8
0.0067	0.0015	-0.003	0.0015	-53.7
0.009	0	0.0007	0.0052	-53.6
0.0045	-0.0008	0.0127	0.0097	-53.6
-0.0008	-0.0046	0.024	0.009	-53.5
-0.0015	-0.0015	0.027	0.0045	-53.4
0.0052	0.0007	0.0292	0.0007	-53.3
0.0007	0.0015	0.024	-0.0046	-53.2
0.0007	0.0007	0.0142	-0.0075	-53.1
0.0075	-0.0008	0.0015	-0.006	-53
0.0007	0.0015	-0.0105	-0.0053	-52.9
-0.0015	0.0007	-0.0158	-0.006	-52.8
-0.0105	0.0007	-0.0128	-0.0105	-52.7
-0.0173	0.0015	-0.0091	-0.0091	-52.6
-0.0218	-0.0023	-0.0008	-0.0075	-52.5
-0.024	0	0.0067	-0.003	-52.4
-0.0143	0.0015	0.009	0.0015	-52.3
-0.0105	0	0.0082	0.003	-52.2
-0.0023	0.003	0.003	0.0052	-52.2
0.0007	0.003	-0.0068	0.0052	-52.1
0.0067	0.0015	-0.0105	0.0052	-52
0.0172	0.0015	-0.0105	0.0007	-51.9
0.0127	-0.0015	-0.0038	-0.0015	-51.8
0.0127	-0.0023	0.0105	-0.003	-51.7
0.0142	-0.0038	0.021	-0.0075	-51.6
0.0262	-0.0015	0.0292	-0.0083	-51.5
0.0277	0.0007	0.0285	-0.0105	-51.4
0.0045	-0.0008	0.0142	-0.0083	-51.3
-0.0105	-0.0008	-0.0008	-0.0038	-51.2
-0.0256	-0.0015	-0.0128	-0.0015	-51.1
-0.0361	-0.0008	-0.0181	0.0045	-51
-0.0338	0	-0.0181	0.0045	-50.9
-0.0278	0.0022	-0.0143	0.0045	-50.8
-0.0195	0.0045	-0.0075	0.0045	-50.7
-0.0068	0.0007	-0.0075	0.0022	-50.6
0.0052	0.0007	-0.0075	0.0045	-50.5
0.003	0.0007	-0.006	0.0067	-50.4
-0.0068	0.0007	-0.003	0.0052	-50.3
-0.0083	0.0007	-0.003	0.0015	-50.2
-0.0015	-0.0008	-0.0038	0.0015	-50.1
0.0007	-0.0008	-0.0023	-0.0015	-50
0.003	-0.0008	-0.006	-0.003	-49.9
0.0007	-0.0015	-0.0038	-0.0008	-49.8
0.0075	-0.0015	-0.0008	-0.0015	-49.7
0.018	-0.003	0.0052	0.0015	-49.6
0.0195	-0.003	0.0127	0.0067	-49.5
0.024	-0.0008	0.003	0.003	-49.4
0.0157	-0.0015	-0.0068	-0.0015	-49.3
0.0052	-0.0023	-0.0113	-0.0046	-49.2
0.0045	-0.0015	-0.0098	-0.0075	-49.1
0.0067	-0.0023	-0.0023	-0.0075	-49
0.0135	-0.0023	0.003	-0.006	-48.9
0.0045	-0.003	0.0142	-0.0068	-48.8
0	-0.003	0.024	-0.0046	-48.7
0.0075	-0.0023	0.027	-0.0046	-48.6
0.0007	-0.0046	0.024	-0.006	-48.5
-0.0053	-0.003	0.0127	-0.0053	-48.4
-0.0128	-0.0023	0.0045	0.003	-48.3
-0.0181	-0.0015	-0.0008	0.0127	-48.2
-0.012	0.0022	-0.003	0.0105	-48.1
-0.0075	0.003	-0.0008	0.0045	-48
0.0022	0.0015	-0.003	0.003	-47.9
0.012	0.0007	-0.0068	0.0007	-47.8
0.0195	0.0007	-0.0128	-0.0023	-47.7
0.0202	-0.0015	-0.0181	-0.0068	-47.6
0.0217	-0.0015	-0.0143	-0.0098	-47.5
0.0232	-0.0008	-0.0038	-0.0068	-47.4
0.003	-0.0023	0.0165	0.0007	-47.3
-0.0128	-0.0008	0.024	0.0045	-47.2
0.0015	-0.0008	0.0195	0.0052	-47.1
0.0082	-0.003	0.0135	0.0067	-47
0	-0.0023	0.0015	0.006	-46.8
-0.0008	-0.003	-0.0068	0.006	-46.8
-0.0015	-0.003	-0.0173	0.0045	-46.7
-0.0015	-0.0053	-0.0143	-0.0038	-46.6
-0.0105	-0.0091	-0.0046	-0.0038	-46.4
-0.0188	-0.0098	-0.0008	0.003	-46.4
-0.0181	-0.0075	0.0052	0.0067	-46.3
-0.0135	-0.0053	0.0052	0.009	-46.2
-0.0105	-0.0053	0.012	0.0112	-46
-0.012	-0.0046	0.0127	0.006	-45.9
-0.0075	-0.0046	0.0082	-0.0053	-45.9
-0.0083	-0.0038	0.009	-0.0128	-45.8
-0.003	-0.0015	0.0015	-0.0181	-45.7
0.003	-0.0015	-0.0023	-0.0195	-45.5
-0.0105	-0.0008	-0.003	-0.0218	-45.5
-0.0158	-0.0008	-0.0068	-0.0195	-45.4
-0.0128	-0.0023	-0.0046	-0.0105	-45.3
-0.0098	-0.0023	-0.006	-0.0015	-45.1
-0.0053	0.0007	-0.0075	0.0067	-45
-0.0008	0.0007	-0.0068	0.0052	-45
0	0.0007	-0.0015	0.0082	-44.8
0.0045	0.0015	0.0037	0.0067	-44.7
0.0082	-0.0008	0.0007	0.0015	-44.6
0.0052	-0.0008	0.003	0.0075	-44.6
0.0127	0.0015	0.003	0.0082	-44.4
0.0165	0.0022	-0.0008	0.006	-44.3
0.0157	0.0015	-0.0053	-0.0023	-44.2
0.0112	0.0015	-0.0068	-0.0068	-44.1
0.0045	0.0007	-0.0046	-0.0046	-44
0.015	0.0015	-0.0083	-0.0068	-43.9
0.0367	-0.0008	-0.0105	0.0015	-43.8
0.0352	-0.0023	-0.0091	0.003	-43.7
0.0202	-0.0008	-0.0015	-0.0015	-43.7
0.0127	-0.0023	0.0112	-0.0015	-43.5
0.0022	-0.0008	0.0217	-0.003	-43.4
-0.0181	0	0.0315	0.0052	-43.3
-0.0428	-0.0008	0.0307	0.003	-43.2
-0.0503	0.0007	0.024	0.0022	-43.1
-0.0308	0.0015	0.0165	0.0052	-43
-0.0105	0.0037	0.0052	0.0015	-42.9
-0.0008	0.006	-0.0023	0.0007	-42.8
0.015	0.006	-0.0075	0.0007	-42.7
0.036	0.006	-0.0053	0.0105	-42.6
0.0405	0.0052	-0.003	0.0142	-42.5
0.0232	0.0037	-0.0023	0.003	-42.4
-0.006	0	-0.0015	0.003	-42.3
-0.0046	-0.0015	-0.0053	0.0007	-42.2
0.0007	-0.0008	-0.0046	0.0007	-42.1
-0.0046	-0.0008	-0.0068	0.003	-42
0.003	-0.0015	-0.0218	0.0007	-41.9
0.0045	-0.0015	-0.03	-0.0015	-41.8
0.0045	-0.0038	-0.024	-0.0083	-41.7
0.0007	-0.0046	-0.012	-0.0046	-41.6
-0.0038	-0.0046	0	-0.0038	-41.5
-0.0038	-0.0053	0.0142	-0.003	-41.4
-0.0083	-0.0053	0.0277	0.0007	-41.3
-0.0188	-0.0038	0.0412	-0.0015	-41.2
-0.0225	-0.0046	0.0495	0.0052	-41.1
-0.021	-0.0046	0.0442	0.0105	-41
-0.0256	-0.0023	0.0255	0.012	-40.9
-0.0248	-0.0015	0.0007	0.0112	-40.8
-0.0083	0	-0.0098	0.0015	-40.7
-0.0008	-0.0015	-0.0083	-0.006	-40.6
-0.0015	-0.0015	-0.0091	-0.0083	-40.5
0.0165	0.0007	-0.006	-0.0113	-40.4
0.024	0.0007	-0.0038	-0.0143	-40.3
0.0277	-0.0008	0.0007	-0.0105	-40.2
0.048	0.0015	0.0045	-0.0046	-40.1
0.042	0.0015	-0.0068	-0.003	-40
0.0127	-0.0008	-0.0158	-0.0008	-39.9
-0.0135	-0.0008	-0.0195	-0.0008	-39.8
-0.0398	-0.0008	-0.0285	0.003	-39.7
-0.0346	-0.0008	-0.0361	0.0112	-39.6
-0.021	-0.0015	-0.0293	0.0127	-39.5
-0.0181	-0.003	-0.0068	0.0105	-39.4
-0.015	-0.003	0.0105	0.0082	-39.3
-0.0135	-0.0038	0.018	0.0075	-39.2
0.0045	-0.0068	0.021	0.0045	-39.1
0	-0.006	0.0217	-0.003	-39
-0.0105	-0.0046	0.0285	0.0007	-38.9
0.0045	-0.0008	0.042	0.0007	-38.8
0.0052	0.0015	0.0465	0.0022	-38.7
0.0097	0.0015	0.0307	0.0135	-38.7
0.0165	0	0.0127	0.0187	-38.6
0.0217	-0.0015	0.0075	0.0112	-38.5
0.0187	-0.0015	0.0097	0.0007	-38.3
-0.0083	-0.0053	0.0142	-0.0038	-38.3
-0.0128	-0.0053	0.0105	-0.0098	-38.2
-0.0008	-0.0046	0	-0.0105	-38.1
0.0022	-0.0046	-0.0188	-0.0098	-38
0.0007	-0.0046	-0.033	-0.0128	-37.9
0.0052	-0.0053	-0.033	-0.0091	-37.8
0.0172	-0.003	-0.027	-0.0053	-37.7
0.0255	-0.0008	-0.0083	-0.003	-37.6
0.0315	-0.0015	0.003	-0.006	-37.5
0.0165	-0.0023	0.0082	-0.0053	-37.4
-0.0053	-0.0015	0.0052	-0.006	-37.4
-0.0113	-0.0008	0.0045	-0.0091	-37.3
-0.0218	-0.0008	0.018	-0.0098	-37.2
-0.0203	-0.0015	0.0232	-0.0105	-37.1
-0.0046	0.0007	0.0255	-0.0038	-37
0.009	0.0037	0.0157	0.0037	-36.9
0.0112	0.0015	0.0052	0.0067	-36.9
0	0	0.0067	0.0105	-36.8
-0.0068	-0.0023	0.0045	0.0127	-36.7
-0.0053	-0.0015	0.0015	0.015	-36.6
-0.003	0	-0.012	0.0142	-36.5
-0.0068	-0.0008	-0.0248	0.009	-36.4
-0.0098	-0.0023	-0.0308	0.0052	-36.3
-0.0053	-0.0023	-0.0353	0.0022	-36.2
-0.0015	-0.0008	-0.03	0.003	-36.1
0.0007	-0.0008	-0.0256	0.003	-36
-0.0046	-0.0008	-0.0165	-0.0023	-36
-0.0068	-0.0015	-0.0053	-0.0046	-35.9
-0.003	-0.0008	0.0007	-0.0053	-35.8
0.003	-0.0015	0.012	-0.0091	-35.7
-0.0068	-0.0038	0.018	-0.0098	-35.6
-0.0338	-0.003	0.0157	-0.0046	-35.6
-0.0233	-0.0015	0.0082	0.0037	-35.5
-0.0015	0	-0.003	0.0045	-35.4
0.0105	-0.0008	-0.0135	-0.003	-35.3
0.0202	-0.0015	-0.0165	-0.0098	-35.2
0.027	-0.003	-0.0075	-0.0143	-35.1
0.0367	-0.0015	0.0097	-0.0046	-35.1
0.0337	0.0015	0.0195	0.0067	-35
0.0142	0.003	0.0232	0.012	-34.9
-0.0083	0.003	0.0307	0.009	-34.8
0.0007	0.003	0.0382	0.009	-34.7
0.0052	0.0007	0.0412	0.0097	-34.7
-0.0083	0.0007	0.024	0.0067	-34.6
-0.0008	-0.0008	0.0007	0.0067	-34.5
-0.003	-0.0015	-0.0143	-0.0046	-34.4
-0.0113	-0.0015	-0.0233	-0.0113	-34.3
-0.0181	-0.0008	-0.0256	-0.0046	-34.2
-0.012	-0.0015	-0.027	0.0015	-34.2
0.0007	-0.0008	-0.0263	0.0067	-34.1
-0.0008	0.0007	-0.024	0.0075	-34
0.0015	-0.0008	-0.0203	0.0015	-34
0	-0.003	-0.0008	0.0007	-33.9
-0.0053	-0.0008	0.0135	0.0015	-33.8
-0.0098	-0.003	0.012	-0.0015	-33.8
-0.012	-0.0046	0.0022	-0.0015	-33.7
0.003	-0.003	-0.0083	-0.0091	-33.6
0.0105	-0.003	-0.0113	-0.0128	-33.5
0.0052	-0.0023	-0.0038	-0.012	-33.5
0.006	-0.003	0.0082	-0.0053	-33.4
0.0105	-0.0015	0.012	0.0045	-33.3
0.0112	-0.0038	0.0097	0.0022	-33.3
0.012	-0.0038	0.0105	0.003	-33.2
0.033	-0.0015	0.0067	0.009	-33.1
0.0645	0.0007	0.0067	0.0052	-33
0.0592	0.0015	0.0142	0.0052	-32.9
0.0195	0.003	0.0195	0.0082	-32.9
-0.012	0.003	0.024	-0.0015	-32.8
-0.0495	0.0007	0.0247	-0.0038	-32.8
-0.0645	0.0015	0.0127	0.003	-32.7
-0.0615	0	-0.0053	0.0022	-32.6
-0.0608	-0.0023	-0.0165	0.0022	-32.5
-0.0308	-0.003	-0.024	-0.0008	-32.5
-0.0008	-0.0015	-0.0256	-0.003	-32.4
0.0015	-0.0015	-0.0203	0.0007	-32.3
-0.0046	-0.0008	-0.0181	-0.0015	-32.3
0.0067	0.0015	-0.0113	-0.003	-32.2
0.012	0.0037	-0.0015	-0.0008	-32.1
0.009	0.003	0.0082	0.0007	-32
0.012	0.0015	0.0172	-0.0023	-32
0.0112	0.0015	0.018	-0.0098	-31.9
0.0082	0	0.009	-0.0113	-31.9
0.0037	0	-0.0068	-0.0091	-31.8
-0.0091	0.0015	-0.0195	-0.0046	-31.7
-0.0188	0.0015	-0.024	0.003	-31.6
-0.0015	0.0007	-0.0165	0.0052	-31.5
0.0105	0.0007	-0.003	0.0067	-31.5
0.0255	0.0007	0.0022	0.009	-31.4
0.0397	0.0015	0.012	0.0105	-31.4
0.0307	-0.0008	0.0232	0.0105	-31.3
0.0007	-0.0038	0.0255	0.0082	-31.2
-0.0203	-0.003	0.033	0.0105	-31.1
-0.0158	0.0015	0.033	0.0082	-31.1
-0.0098	0.003	0.021	0.0015	-31
0.0022	0.0007	0.0097	0.003	-30.9
0.012	-0.0015	0.003	0.0067	-30.9
0.0172	-0.0053	-0.006	0.003	-30.8
0.0112	-0.0075	-0.0181	-0.0083	-30.7
0.0105	-0.0091	-0.0158	-0.0143	-30.6
0.0127	-0.0098	-0.012	-0.015	-30.6
-0.0015	-0.006	-0.003	-0.0128	-30.5
-0.0143	-0.003	0.0067	-0.0128	-30.5
-0.0293	-0.003	0.0075	-0.0098	-30.4
-0.027	-0.0015	0.009	-0.006	-30.3
-0.0015	-0.0023	0.0112	-0.0023	-30.2
0.0135	-0.0023	0.009	0.0045	-30.2
0.003	0	0.0067	0.0097	-30.1
-0.0105	-0.0015	0.0105	0.0045	-30.1
-0.015	-0.0053	0.012	0.0007	-30
-0.021	-0.0038	0.0097	0	-29.9
-0.0143	-0.0008	0.0052	-0.0008	-29.9
0.0052	0.0007	-0.006	0.0022	-29.8
0.015	0.0015	-0.0143	0.006	-29.8
0.0172	0.003	-0.0165	0.0075	-29.7
0.0135	0.003	-0.0143	0.0022	-29.7
0.0067	0.0037	-0.003	-0.006	-29.6
0.0007	0.0015	0.0045	-0.0113	-29.5
0.0022	-0.0023	0.0082	-0.0046	-29.5
0.0082	-0.0038	0.0097	0.0045	-29.4
0.012	-0.003	0.003	0.0015	-29.3
-0.0038	-0.0023	-0.0053	-0.0008	-29.3
-0.015	-0.0015	-0.0143	0.0007	-29.3
-0.0083	-0.0015	-0.0256	-0.0046	-29.2
0	-0.0023	-0.0233	-0.0038	-29.1
0.0172	-0.0023	-0.015	0.0022	-29.1
0.0142	0.0007	0	0.0045	-29
0.009	0.0015	0.0105	0.0067	-29
0.0082	0	0.006	0.009	-28.9
-0.0053	-0.0008	0.0082	0.0037	-28.8
-0.015	-0.0008	0.0037	0.0015	-28.8
-0.0203	0.003	-0.0075	0.0015	-28.8
-0.0083	0.0037	-0.0128	0.0007	-28.7
-0.0008	0.0022	-0.0091	0.0007	-28.7
-0.0098	0.0015	0.0097	-0.0015	-28.6
-0.0091	0	0.021	-0.0023	-28.5
0.0187	0.0022	0.018	0.0045	-28.5
0.0547	0.0037	0.0097	0.0105	-28.4
0.0727	0.003	0.0127	0.0082	-28.4
0.0682	0.0015	0.0187	0.0075	-28.4
0.021	0.0007	0.0195	0.0142	-28.3
-0.0203	0	0.0127	0.0127	-28.3
-0.0548	-0.0038	0.0015	0.0052	-28.2
-0.0818	-0.003	0.0007	0.0007	-28.1
-0.0721	-0.0038	-0.0091	-0.0135	-28.1
-0.0668	-0.006	-0.0158	-0.012	-28
-0.045	-0.003	-0.0105	0.0022	-28
-0.0181	-0.003	-0.0098	0.0112	-27.9
-0.0128	-0.003	-0.003	0.018	-27.9
0.0112	-0.0023	-0.0083	0.0082	-27.9
0.024	-0.003	-0.0098	0.0015	-27.8
0.018	-0.0023	-0.0083	-0.003	-27.8
0.0142	-0.0015	-0.0158	-0.0083	-27.7
0.0075	-0.0008	-0.0113	-0.0083	-27.7
0.0187	0.0007	-0.0038	-0.0113	-27.6
0.0142	-0.0008	0.0105	-0.0075	-27.5
0.009	-0.0015	0.0217	-0.0053	-27.5
0.0022	0	0.0292	-0.0015	-27.5
-0.024	0.0015	0.0382	-0.0008	-27.4
-0.0158	0.0015	0.024	0.0015	-27.4
0.0022	0.0015	0.0037	0.0022	-27.3
0.0165	0.0022	-0.0068	0.0037	-27.3
0.0277	0.0015	-0.0105	0.006	-27.2
0.0202	-0.0015	0.0052	-0.0015	-27.2
0.0097	-0.0015	0.0352	-0.0015	-27.1
0.0007	-0.0023	0.0525	-0.003	-27.1
-0.0083	-0.0038	0.042	-0.0113	-27
-0.0203	-0.0046	0.027	-0.0233	-27
-0.0308	-0.006	0.0015	-0.0308	-27
-0.0338	-0.0046	-0.0233	-0.0203	-26.9
-0.0195	-0.0015	-0.0413	-0.0105	-26.9
-0.0135	-0.0015	-0.0578	0.0007	-26.9
0.0015	-0.0008	-0.0615	0.0082	-26.8
0.0225	-0.003	-0.063	0.0105	-26.8
0.0172	-0.0046	-0.0511	0.0157	-26.7
0.018	-0.0046	-0.0293	0.0112	-26.7
0.0202	-0.0068	-0.0113	0.0075	-26.6
0.0352	-0.0083	0.0067	0.0075	-26.6
0.0427	-0.0091	0.0067	0.003	-26.6
0.033	-0.0098	0.0082	-0.0053	-26.5
0.0157	-0.006	0.018	-0.0165	-26.5
-0.0068	-0.0046	0.03	-0.0195	-26.5
-0.0105	-0.0046	0.045	-0.0135	-26.4
-0.0143	-0.003	0.0547	-0.006	-26.4
-0.0218	-0.0015	0.0502	-0.0023	-26.3
-0.0263	0.0007	0.0277	0.0007	-26.3
-0.0165	0.0015	0.0015	0.0015	-26.2
0.0007	0.0022	-0.0158	0.0015	-26.2
0.0195	0.0045	-0.0225	0.0097	-26.1
0.0352	0.0052	-0.0181	0.018	-26.1
0.0322	0.0015	-0.012	0.0172	-26.1
0.0022	-0.0015	0.0007	0.0082	-26
-0.033	-0.003	0.0045	-0.0023	-26
-0.0353	-0.0008	0.0052	-0.0046	-25.9
-0.0233	-0.0008	0.0112	-0.0053	-25.9
-0.024	-0.0008	0.0165	-0.0015	-25.8
-0.0233	0.003	0.027	0.003	-25.7
-0.0083	0.0022	0.0172	0.0052	-25.7
-0.0015	0.0022	0.003	0.0067	-25.7
-0.0046	0.0022	-0.0053	0.0052	-25.6
0.0127	0.003	-0.0143	0.0015	-25.6
0.0255	0.003	-0.012	0.003	-25.5
0.0442	0.0045	-0.0158	0.0067	-25.5
0.0465	0.0045	-0.0105	0.0082	-25.4
0.0405	0.0022	-0.0105	0.0067	-25.4
0.039	0.0015	-0.0135	0.0007	-25.3
0.0075	-0.0008	0.0007	-0.0105	-25.3
-0.012	-0.0023	0.0105	-0.0158	-25.2
-0.0128	-0.003	0.018	-0.0128	-25.2
-0.012	-0.0046	0.0187	-0.0143	-25.2
-0.0105	-0.0046	0.0142	-0.0181	-25.1
-0.0165	-0.0038	0.0067	-0.015	-25.1
-0.0181	0.0007	-0.0008	-0.015	-25
-0.0098	0.003	0.0022	-0.012	-25
-0.0046	0.0007	0.0052	0	-24.9
0.0007	-0.0008	0.021	0.0142	-24.9
0.012	-0.0015	0.0315	0.0217	-24.9
0.003	-0.0015	0.018	0.015	-24.8
-0.0158	-0.0046	0.0007	0.0067	-24.8
-0.0188	-0.0046	-0.0165	0.0015	-24.8
-0.0158	-0.0023	-0.0353	0	-24.7
-0.0128	-0.003	-0.0495	-0.0015	-24.7
-0.0008	-0.003	-0.0518	-0.0075	-24.6
0.0225	-0.003	-0.0361	-0.0068	-24.6
0.0232	-0.003	-0.0113	-0.0008	-24.5
0.0165	0.0007	0.0075	0.0045	-24.5
0.042	0.0022	0.0165	0.0045	-24.4
0.0555	0.0015	0.0285	0.0037	-24.4
-0.0098	0.0045	0.042	0.0045	-24.3
-0.0638	0.006	0.0465	0.0075	-24.3
-0.063	0.006	0.0375	0.009	-24.3
-0.0563	0.0052	0.0157	0.0105	-24.2
-0.027	0.003	-0.0008	0.0052	-24.2
-0.0218	0.0015	-0.003	0.0007	-24.1
-0.0105	-0.0008	-0.0068	0.003	-24.1
0.0082	-0.003	-0.0075	0.0052	-24
0.0142	-0.0038	-0.0091	0.012	-24
0.0315	-0.006	-0.0143	0.0082	-24
0.0277	-0.0083	-0.0165	-0.006	-23.9
0.0195	-0.0083	-0.0143	-0.0105	-23.9
0.0067	-0.0083	0.0015	-0.0135	-23.9
-0.006	-0.0098	0.0202	-0.012	-23.8
-0.012	-0.0105	0.027	-0.006	-23.8
-0.015	-0.0083	0.027	0.0022	-23.7
-0.0105	-0.0068	0.0172	0.003	-23.7
-0.0135	-0.0053	0.0045	0.0045	-23.6
-0.015	-0.003	-0.0091	0.009	-23.6
0.0015	-0.0008	-0.0233	0.009	-23.5
0.012	0.0007	-0.0225	0.0187	-23.5
0.0082	-0.0008	-0.0165	0.0172	-23.4
0.0157	-0.0015	-0.0015	0.0112	-23.4
0.0187	-0.0015	0.0045	0.0052	-23.4
0.0217	0.0007	-0.0075	0.0007	-23.3
0.0262	0.0015	-0.012	-0.0015	-23.3
0.0247	0.0007	-0.0128	-0.003	-23.2
0.024	-0.0008	-0.006	-0.0053	-23.1
0.012	-0.0015	0	-0.0091	-23.1
-0.0015	-0.003	0.0052	-0.0128	-23
-0.0113	-0.0046	0.012	-0.0128	-23
-0.0038	-0.0015	0.012	-0.0015	-23
-0.0053	-0.0008	0.0195	0.0105	-22.9
-0.006	-0.0015	0.0097	0.0082	-22.9
0.015	-0.0023	-0.0083	0.0015	-22.8
0.018	-0.003	-0.0091	-0.0015	-22.8
0.0127	-0.003	-0.0053	-0.0046	-22.7
-0.0068	-0.0068	0.0112	-0.003	-22.7
-0.0091	-0.006	0.0277	-0.0053	-22.6
-0.0315	-0.0046	0.0315	-0.0046	-22.6
-0.054	-0.0015	0.024	0.003	-22.6
-0.0368	0.003	0.0105	-0.0015	-22.5
-0.0323	0.0037	0.0015	-0.0008	-22.5
-0.015	0.0052	0.003	-0.0046	-22.5
-0.012	0.0052	-0.0008	-0.003	-22.4
0.0045	0.0052	-0.0143	-0.0038	-22.4
0.0262	0.0052	-0.0008	-0.0091	-22.4
0.0217	0.0015	0.033	-0.0113	-22.3
0.0247	0.0015	0.048	-0.0158	-22.3
0.018	0.0007	0.0502	-0.012	-22.2
-0.0075	0	0.033	-0.0046	-22.2
-0.0203	0.0015	-0.0098	0.0052	-22.2
0.003	0.0015	-0.0443	0.0105	-22.1
0.015	0.0022	-0.057	0.0165	-22.1
0.0135	-0.0008	-0.0533	0.0202	-22.1
0.0075	-0.0015	-0.0495	0.0142	-22.1
-0.0046	-0.0015	-0.0495	0.003	-22
-0.0068	-0.0038	-0.0368	-0.003	-22
-0.0008	-0.0046	-0.0225	-0.0008	-21.9
0.024	-0.0053	-0.0091	-0.0015	-21.9
0.0345	-0.0046	0.0007	-0.003	-21.9
0.0127	-0.0038	0.0112	-0.006	-21.8
-0.0128	-0.0008	0.0195	-0.0053	-21.8
-0.0158	0.0015	0.0307	0	-21.8
-0.0135	0.0015	0.0375	-0.003	-21.7
-0.0218	-0.0008	0.0202	-0.0015	-21.7
-0.0135	0.0007	0.0075	0.0022	-21.7
-0.0083	0.0015	0.0045	0.003	-21.6
0.0015	-0.0015	0.0015	-0.0046	-21.6
0.0225	-0.0015	0.0045	-0.0113	-21.6
0.0202	-0.003	0.0112	-0.0143	-21.6
0.003	-0.0023	0.0277	-0.0091	-21.5
0.006	-0.0023	0.0517	-0.0008	-21.5
0.0255	-0.0015	0.084	0.0075	-21.5
0.024	0.0015	0.0892	0.0165	-21.4
0	0.0015	0.0487	0.0127	-21.4
-0.0158	0.0015	0	0.0075	-21.4
-0.0233	-0.0015	-0.0518	0.0045	-21.3
-0.0353	-0.0015	-0.0803	0.0052	-21.3
-0.0195	0.003	-0.0856	0.009	-21.3
0.009	0.0022	-0.0803	0.009	-21.2
-0.0128	-0.0015	-0.0533	0.009	-21.2
-0.0195	-0.0053	-0.033	0.006	-21.2
-0.0008	-0.006	-0.0128	-0.0015	-21.2
0.0007	-0.0053	-0.0038	0.0037	-21.1
0.0067	-0.003	0.0015	0.0052	-21.1
0.0075	-0.003	0.0112	0.0007	-21.1
0.0082	-0.003	0.0075	0.0037	-21
0.0022	-0.003	0.009	0.0022	-21
-0.0068	-0.0046	0.0037	-0.0046	-21
0.0022	-0.0023	-0.006	-0.0091	-20.9
0.0052	-0.0038	-0.0015	-0.012	-20.9
0.009	-0.0015	0.006	-0.012	-20.8
0.0112	-0.0008	0.0195	-0.0135	-20.8
-0.027	-0.0015	0.0307	-0.0053	-20.8
-0.0495	0.0015	0.0322	0.0037	-20.7
0.006	0.0007	0.0217	0.0067	-20.7
0.0517	0	0.0067	0.012	-20.7
0.042	0.0022	0.003	0.009	-20.7
0.0165	0.0045	0.0067	0.0045	-20.7
-0.0015	0.0052	0.0067	0.0052	-20.6
0.0015	0.0037	0.009	0.0097	-20.6
0.0127	0.0052	0.0157	0.009	-20.5
0.0225	0.003	0.021	0.0052	-20.5
0.0195	-0.0015	0.0255	0.0067	-20.5
0.0052	-0.0008	0.0315	0.009	-20.4
-0.0165	-0.0046	0.0315	0.0082	-20.4
-0.0315	-0.0068	0.027	0.0052	-20.3
-0.0256	-0.0015	0.012	0.003	-20.3
-0.024	0	-0.0068	0.0022	-20.3
-0.0188	-0.0015	-0.0173	0.0007	-20.3
-0.0083	-0.0038	-0.024	-0.003	-20.3
-0.0023	-0.003	-0.0218	-0.0053	-20.2
-0.0068	-0.0015	-0.0195	-0.0105	-20.2
-0.0068	-0.0023	-0.0135	-0.0105	-20.1
0	-0.0015	-0.0083	-0.0023	-20.1
0.0007	-0.0008	-0.0105	-0.0008	-20.1
0.012	-0.0008	-0.0075	-0.003	-20
0.0082	-0.0023	-0.006	-0.0083	-20
-0.0083	0	-0.0015	-0.0128	-20
-0.0173	0.0015	-0.0008	-0.0068	-19.9
-0.015	0.0015	-0.003	-0.003	-19.9
-0.0068	0.0007	0.0015	-0.0053	-19.9
0.0007	0.0015	0.003	-0.0023	-19.8
0.0052	0.0015	0.0097	0.0015	-19.8
0.012	0.0007	0.0097	0.0007	-19.8
0.018	0.0015	0.0022	0.0045	-19.8
0.0045	0.0022	-0.0046	0.003	-19.7
0.0022	0	-0.0135	0.0037	-19.7
0.0277	-0.0015	-0.0218	-0.0008	-19.7
0.0382	-0.0053	-0.0181	-0.0143	-19.7
0.0142	-0.0091	-0.0068	-0.021	-19.6
-0.012	-0.0105	0.003	-0.0173	-19.6
0.0075	-0.0068	0.018	-0.0068	-19.6
0.015	-0.0038	0.024	-0.003	-19.5
0.0097	-0.0023	0.018	0.0007	-19.5
0.003	-0.003	0.0165	0.0075	-19.5
-0.0233	-0.003	0.0112	0.006	-19.4
-0.0143	-0.003	0.0045	0.0015	-19.4
-0.0195	-0.0046	0.0015	-0.003	-19.4
-0.0293	-0.0038	-0.0046	-0.0046	-19.4
-0.0173	-0.0015	-0.0038	-0.0015	-19.3
-0.015	0.0007	0.0007	-0.0015	-19.3
0.0015	0.0007	0	0.003	-19.2
0.0082	-0.0015	-0.015	0.0015	-19.2
0.0195	-0.003	-0.0285	-0.0046	-19.2
0.0375	-0.003	-0.0293	-0.0015	-19.1
0.0345	-0.0038	-0.0218	-0.0008	-19.1
0.012	-0.0046	0	-0.0015	-19.1
-0.0173	-0.003	0.0292	-0.0008	-19
-0.024	-0.0015	0.0427	-0.0015	-19
-0.0233	0	0.042	0.0082	-19
-0.0218	0.003	0.0315	0.0105	-18.9
-0.0195	0.0045	0.009	0.0075	-18.9
0.0037	0.0052	-0.0053	0.012	-18.9
0.0075	0.0052	-0.0053	0.009	-18.8
-0.015	0.0037	-0.0128	0.0105	-18.8
-0.0068	0.003	-0.0143	0.0127	-18.8
-0.0068	0	-0.0091	0.0052	-18.7
0.0022	-0.0008	-0.0083	0.0045	-18.7
0.0202	0	-0.0075	0.0022	-18.7
0.0127	0	-0.015	-0.0008	-18.6
0.0202	0	-0.0083	-0.0053	-18.6
0.0405	0.0007	0.0172	-0.0113	-18.6
0.0375	0	0.0412	-0.0181	-18.5
0.012	0.0007	0.0607	-0.0195	-18.5
-0.0075	0.003	0.0525	-0.0075	-18.5
-0.0278	0.003	0.021	0.0007	-18.5
-0.0346	0.003	-0.0091	0.0075	-18.5
-0.0181	0.0007	-0.0353	0.0127	-18.4
-0.0046	-0.0015	-0.0495	0.0172	-18.4
-0.0008	-0.003	-0.0518	0.018	-18.4
-0.0233	-0.0046	-0.0428	0.0082	-18.3
-0.0353	-0.003	-0.0203	-0.0046	-18.3
-0.0308	-0.003	0.0217	-0.0046	-18.3
-0.0143	-0.0008	0.0697	-0.0023	-18.2
0.012	-0.003	0.0637	-0.0046	-18.2
0.0277	-0.0038	0.0367	0.0015	-18.2
0.0382	-0.0053	0.0052	0.0082	-18.1
0.0292	-0.0046	-0.0368	0.0082	-18.1
0.0225	-0.0015	-0.0503	0.0045	-18.1
0.018	-0.0038	-0.0638	0.0022	-18.1
-0.0046	-0.0015	-0.063	0.0022	-18
-0.0143	0.0007	-0.0458	0.006	-18
-0.0165	0.0007	-0.0405	0.012	-18
-0.0091	-0.0008	-0.0195	0.0082	-18
0.0172	-0.0068	-0.0038	0.0022	-18
0.0352	-0.0083	-0.0015	0.0007	-18
0.0307	-0.0075	0.0045	0.0022	-17.9
0.0255	-0.0075	0.0112	0	-17.9
0.0165	-0.0053	0.0157	-0.003	-17.9
-0.0015	-0.0046	0.0247	-0.0038	-17.9
0	-0.003	0.048	-0.0046	-17.8
0.006	-0.0008	0.0547	-0.0046	-17.8
-0.0046	0.0022	0.051	-0.006	-17.8
-0.0046	0.0015	0.0465	-0.0068	-17.8
-0.0023	-0.0015	0.027	-0.0083	-17.8
-0.0165	-0.0023	0.012	-0.0091	-17.7
-0.0165	-0.0015	0.0037	-0.0091	-17.7
-0.0165	-0.0023	0.0045	-0.0105	-17.7
-0.015	-0.0038	0.009	-0.0015	-17.6
-0.0181	-0.0053	0.0045	0.0142	-17.6
-0.0181	-0.0046	0.0015	0.015	-17.6
-0.0008	-0.003	-0.003	0.012	-17.6
0.003	-0.003	0.003	0.006	-17.6
0.0165	-0.0015	0.009	0.0007	-17.6
0.0195	-0.0015	-0.0046	-0.0015	-17.5
0.0127	0.0007	-0.0165	-0.0105	-17.5
0.0045	0.0022	-0.024	-0.0165	-17.5
-0.027	0.0022	-0.0165	-0.0195	-17.4
-0.045	0.0045	0.0015	-0.0181	-17.4
-0.0428	0.003	0.0105	-0.0128	-17.4
-0.0233	-0.0008	0.0052	-0.0053	-17.4
-0.0023	-0.0015	-0.0181	0.0007	-17.3
0.0082	-0.003	-0.0338	-0.0046	-17.3
0.0315	-0.0015	-0.0278	0.0015	-17.3
0.0307	0.0007	-0.0068	0.0112	-17.3
0.0292	0.0045	0.012	0.009	-17.2
0.0315	0.0022	0.0112	0.009	-17.2
0.0022	-0.0015	0.0075	0.0052	-17.2
-0.0113	-0.0046	-0.006	-0.0053	-17.1
-0.0091	-0.0083	-0.0105	-0.0083	-17.1
-0.0015	-0.0038	0.0082	-0.0053	-17.1
-0.0098	-0.0015	0.0277	-0.0053	-17.1
-0.0195	-0.0008	0.0397	0.0007	-17
-0.0158	0.0015	0.0255	0.0052	-17
-0.015	0.0007	0.0022	0.006	-17
0.0022	0.003	-0.0195	0.0007	-16.9
0.0082	0.0022	-0.0353	-0.006	-16.9
0.0075	0.0037	-0.039	-0.0053	-16.9
0.0157	0.0052	-0.0428	-0.0046	-16.9
0.009	0.0045	-0.0383	-0.0091	-16.8
-0.015	0.0045	-0.021	-0.012	-16.8
-0.0143	0.003	-0.0008	-0.0015	-16.8
0.0495	0.0015	0.0225	-0.0015	-16.7
0.069	-0.0046	0.0585	-0.003	-16.7
0.0315	-0.003	0.0847	0.0082	-16.7
0.0007	-0.0008	0.0622	0.0105	-16.7
-0.0353	0.0007	0.0352	0.0232	-16.7
-0.0398	0	0.009	0.033	-16.6
-0.0158	-0.003	-0.0165	0.0292	-16.6
0.0022	-0.0046	-0.0233	0.0127	-16.6
-0.0053	-0.0091	-0.0413	-0.0015	-16.6
-0.0135	-0.0083	-0.0405	-0.0053	-16.5
-0.0143	-0.0046	-0.0256	-0.0143	-16.5
-0.0218	-0.003	-0.015	-0.0158	-16.5
-0.0158	-0.003	0.0045	-0.0091	-16.5
-0.0015	-0.0038	0.0082	-0.003	-16.4
0.0127	0.0007	0.009	0.0007	-16.4
0.0127	0.0022	0.0067	0	-16.4
0.0075	0.003	0.0075	0.0022	-16.4
0.003	0.0045	0.042	0.0045	-16.4
0.0045	0.0037	0.1177	-0.0008	-16.3
-0.0008	0.0007	0.1672	-0.0038	-16.3
-0.0218	0.0007	0.117	-0.0008	-16.3
-0.024	0.003	0.0465	0.0045	-16.3
-0.0098	0.0045	-0.0405	0.003	-16.2
-0.0008	0.006	-0.1178	-0.0046	-16.2
-0.0008	0.0052	-0.1441	0	-16.2
0.0277	0.003	-0.1598	0.0045	-16.2
0.069	0.0015	-0.1245	0.0007	-16.2
0.0465	-0.003	-0.0653	0	-16.2
-0.0008	-0.0053	0.0007	0.0007	-16.2
-0.033	-0.0053	0.0405	-0.0015	-16.2
-0.0555	-0.0053	0.0322	-0.0015	-16.1
-0.0361	-0.0008	0.024	-0.0023	-16.1
-0.0128	-0.0008	-0.0015	0.0007	-16.1
0.006	-0.0015	-0.0068	0.0067	-16.1
0.0255	-0.0023	-0.0091	0.0097	-16.1
0.0172	-0.006	-0.0068	0.0127	-16
-0.0008	-0.0068	0.0105	0.003	-16
-0.0181	-0.0098	0.0052	-0.0038	-16
-0.0113	-0.0068	0.0127	-0.0008	-16
-0.0105	-0.0053	0.0142	-0.0008	-16
-0.0098	-0.0046	0.0135	0	-15.9
0.0015	-0.0038	0.0195	-0.0068	-15.9
0.0007	-0.0015	0.0165	-0.0053	-15.9
-0.0105	0.0007	0.0202	-0.0053	-15.9
-0.0346	0.0015	0.0105	-0.006	-15.9
-0.027	0.0015	-0.0046	-0.0053	-15.8
-0.0023	-0.003	-0.006	-0.0128	-15.8
0.009	-0.0046	0.0015	-0.0128	-15.8
0.0247	-0.0046	0.0315	-0.0135	-15.8
0.0427	-0.0023	0.054	-0.0038	-15.8
0.0525	0.0045	0.054	0.0075	-15.8
0.0442	0.006	0.0795	0.0135	-15.8
0.036	0.0082	0.108	0.0247	-15.7
0.0517	0.0082	0.081	0.021	-15.7
0.036	0.003	0.039	0.0165	-15.7
-0.012	-0.0008	-0.0091	0.0127	-15.7
-0.0188	-0.0046	-0.0608	0.0015	-15.7
-0.0218	-0.0046	-0.0795	-0.003	-15.6
-0.0135	-0.0038	-0.0953	-0.0046	-15.6
-0.0068	-0.0008	-0.0893	0.0007	-15.6
-0.0135	-0.0008	-0.0675	0.0045	-15.6
-0.0068	-0.0023	-0.0518	-0.0023	-15.6
-0.0098	-0.003	-0.0285	-0.0046	-15.5
0.003	-0.0046	-0.0218	-0.0135	-15.5
0.0022	-0.0046	-0.0075	-0.0173	-15.5
0.0075	-0.0053	0.0142	-0.012	-15.5
0.0195	-0.0046	0.0277	-0.0113	-15.5
-0.0098	-0.0038	0.0367	-0.0023	-15.4
-0.0233	0	0.0315	-0.0023	-15.4
-0.0135	0.0007	0.033	0.0067	-15.4
-0.0046	0	0.0352	0.0187	-15.4
0.0045	0.0022	0.0195	0.009	-15.3
0.0067	-0.0015	0.012	0.0045	-15.3
-0.0173	-0.0053	0.0307	-0.0046	-15.3
-0.0248	-0.0023	0.0322	-0.0053	-15.3
-0.015	-0.0008	0.0135	-0.0046	-15.3
-0.012	0	0.0015	-0.0128	-15.3
0.0052	-0.0015	-0.012	-0.0195	-15.3
0.0052	-0.003	-0.0105	-0.0233	-15.2
0.0105	-0.003	-0.0188	-0.021	-15.2
0.0127	-0.0015	-0.0315	-0.0158	-15.2
0.009	0.0007	-0.0278	-0.006	-15.2
-0.0091	0.0045	-0.0233	0.0015	-15.1
-0.0383	0.0015	-0.0075	0.0202	-15.1
-0.0293	0.0007	0.0075	0.0367	-15.1
-0.0248	-0.0008	0.0292	0.0352	-15.1
-0.0233	-0.0038	0.0502	0.0202	-15.1
-0.0128	-0.0053	0.0442	0.0007	-15.1
0.0015	-0.006	0.0195	0.003	-15
0.012	-0.0038	-0.0143	0.0015	-15
-0.0008	-0.003	-0.039	-0.0053	-15
0.0007	-0.0008	-0.057	-0.0015	-15
0.006	0.0007	-0.057	-0.0053	-15
0.009	0.0015	-0.048	-0.0023	-14.9
0.036	0.0037	-0.042	0.0045	-14.9
0.0547	0.0022	-0.0346	0.003	-14.9
0.0352	0.0007	-0.0225	0.0067	-14.9
0.0135	0.0007	0.003	0.003	-14.9
0.009	0.0007	0.0195	-0.0015	-14.9
0.0015	0.003	0.024	0.003	-14.9
-0.0113	0.006	0.027	0.0052	-14.9
-0.0188	0.0052	0.0217	0.0082	-14.9
-0.0105	0.003	0.0165	0.0045	-14.8
-0.0046	0.0015	0.0195	-0.0053	-14.8
0.0052	0	0.0255	-0.0105	-14.8
0.0307	0.0015	0.0292	-0.0075	-14.8
0.0127	0.0007	0.0367	-0.0046	-14.8
-0.0233	0	0.0405	-0.0046	-14.8
-0.0098	0.0022	0.0292	-0.0053	-14.8
0.0067	0.003	0.0127	-0.0113	-14.8
0.0202	-0.0008	0.003	-0.0143	-14.8
0.027	-0.0015	0.0007	-0.0105	-14.7
0.009	-0.003	0.0015	-0.0068	-14.7
0.0105	-0.003	0.0097	0.003	-14.7
0.0007	-0.0053	0.0202	0.0135	-14.7
-0.0105	-0.0053	0.0217	0.0172	-14.7
-0.0068	-0.003	0.0097	0.012	-14.7
-0.0165	-0.0023	-0.0091	0.0045	-14.7
-0.0143	0.0015	-0.0128	0.0052	-14.7
-0.0091	0.0022	-0.0083	0.0045	-14.7
-0.0165	0	-0.0083	0.0037	-14.7
-0.0233	-0.0023	-0.0053	0.0045	-14.6
-0.024	-0.0015	-0.0105	0.0007	-14.6
-0.0158	-0.0023	-0.012	-0.0023	-14.6
-0.003	-0.003	-0.0135	-0.0046	-14.6
0.0097	-0.0015	-0.0143	0.0015	-14.6
0.0127	0	-0.0038	0.0082	-14.6
0.012	0.0015	-0.0008	0.0045	-14.6
0.0135	-0.0008	0.0157	-0.0015	-14.6
0.0082	-0.0046	0.0315	-0.0023	-14.6
-0.0091	-0.003	0.03	-0.0008	-14.6
-0.0181	-0.003	0.0405	-0.0008	-14.6
-0.0091	-0.0053	0.0495	-0.0008	-14.6
-0.0068	-0.0023	0.0322	-0.0015	-14.6
0.0037	0	0.0052	0.0007	-14.6
0.009	0.0015	-0.027	0.003	-14.6
0.0232	-0.0023	-0.06	0.0037	-14.6
0.0442	-0.003	-0.0728	0.009	-14.6
0.0307	-0.0046	-0.0728	0.0127	-14.6
0.0142	-0.006	-0.0518	0.0075	-14.6
-0.0075	-0.0046	-0.027	0.0015	-14.6
-0.0293	-0.0068	-0.0181	-0.0015	-14.6
-0.0353	-0.0068	-0.0023	-0.0038	-14.6
-0.0053	-0.0046	0.0037	0.0015	-14.6
0.0232	-0.003	0.0067	0.0045	-14.6
-0.0068	-0.0015	0.0082	0.0022	-14.6
-0.033	-0.0015	0.0045	-0.0015	-14.6
-0.054	-0.0023	0.0037	-0.0091	-14.6
-0.0458	-0.0046	0.0105	-0.0105	-14.6
-0.0023	-0.0023	0.0337	-0.0113	-14.6
0.0442	0.0007	0.0382	-0.0083	-14.6
0.054	0.0007	0.0255	-0.0046	-14.6
0.0202	0.0007	0.009	-0.0015	-14.6
0.0097	0.0007	-0.0091	0.006	-14.6
0.0217	0.0007	-0.003	0.012	-14.6
0.0195	0.0007	0.006	0.0037	-14.6
0.0067	-0.0046	0.0045	-0.003	-14.6
-0.003	-0.0053	0.0082	-0.0053	-14.6
-0.0075	-0.0008	0.0097	-0.0075	-14.6
-0.0008	-0.0008	0.0067	-0.0046	-14.6
-0.0038	0.0015	0.0015	-0.0053	-14.6
-0.0181	0.0022	0.0015	-0.0008	-14.6
-0.0218	0.0015	0.0015	0.0052	-14.6
-0.0181	0.0007	-0.003	0.0045	-14.7
-0.0015	0	-0.0075	0.0045	-14.7
0.018	-0.0015	-0.015	0	-14.7
0.0202	-0.0015	-0.0181	-0.0046	-14.7
0.0195	0	-0.0158	-0.0083	-14.7
0.0247	0.0015	-0.0083	-0.0083	-14.7
0.0105	0.0015	0.006	-0.0008	-14.8
-0.0143	0.003	0.0262	-0.0053	-14.8
-0.0203	0.0037	0.0442	-0.006	-14.8
-0.0075	0.0052	0.0562	-0.003	-14.8
0.0067	0.0052	0.0682	-0.0046	-14.9
-0.0008	0.0015	0.0952	-0.0015	-14.9
-0.0143	-0.0015	0.0952	-0.003	-14.9
-0.0203	-0.0023	0.0322	-0.0023	-14.9
-0.0218	-0.0015	-0.024	0.0045	-14.9
-0.0293	0.0007	-0.0773	0.0202	-14.9
-0.0203	0.0045	-0.1133	0.0315	-14.9
0.0037	0.0052	-0.1095	0.0307	-15
0.0217	0.0015	-0.1065	0.0225	-15
0.0442	-0.0008	-0.0803	0.003	-15
0.0735	-0.0038	-0.0593	-0.0068	-15.1
0.0855	-0.0075	-0.0383	-0.0158	-15.1
0.0442	-0.0098	-0.0105	-0.0165	-15.1
-0.0113	-0.0083	0.003	-0.0098	-15.1
-0.042	-0.0053	0.027	-0.0046	-15.1
-0.0668	-0.0015	0.0457	0.0075	-15.1
-0.0645	0.0022	0.048	0.009	-15.1
-0.0428	0.0015	0.042	0.0082	-15.1
-0.0323	0.0007	0.0307	0.0052	-15.1
-0.012	0	0.0217	0.0007	-15.2
0.0045	0.0015	0.0157	0.003	-15.2
0.0015	0.0007	0.0075	0.0022	-15.2
0.0015	-0.0008	0.0015	-0.0008	-15.2
-0.0158	0.0007	0.0007	-0.003	-15.2
-0.0218	0.0015	0	-0.006	-15.2
0.012	0.0007	0.0045	-0.0091	-15.3
0.0277	-0.0008	0.0082	-0.0105	-15.3
0.0127	-0.0008	0.0157	-0.012	-15.3
0.0037	-0.0015	0.0165	-0.0105	-15.3
0.0052	-0.0023	0.0105	-0.0083	-15.3
0.0157	-0.0046	0.0067	-0.0083	-15.3
0.0405	-0.0068	0.0045	-0.0083	-15.3
0.0502	-0.0075	0.009	0	-15.3
0.0457	-0.006	0.0052	0.006	-15.3
0.0135	-0.0046	0.0045	0.0045	-15.3
-0.027	-0.0038	0.006	0.0052	-15.3
-0.0405	-0.0015	0.0082	0.0052	-15.4
-0.054	0.0007	0.0157	0.0022	-15.4
-0.0375	-0.0015	0.0142	0.0007	-15.4
-0.0098	-0.0023	0.0112	0	-15.4
-0.0053	-0.0008	0.0007	0.0015	-15.4
0.0142	0	-0.0105	0.0045	-15.4
0.018	-0.0008	-0.0143	0.0112	-15.4
0.0142	-0.003	-0.0188	0.0157	-15.4
0.0112	-0.003	-0.015	0.0127	-15.4
-0.0068	-0.003	-0.0143	0.0045	-15.5
-0.0165	-0.006	-0.003	-0.0023	-15.5
-0.0181	-0.0068	0.012	-0.0053	-15.5
-0.0143	-0.0068	0.0202	-0.0091	-15.5
-0.0015	-0.0083	0.0202	-0.0091	-15.5
0.0255	-0.0068	0.0135	-0.0038	-15.6
0.0315	-0.003	0.0135	0.006	-15.6
0.009	-0.003	0.0082	0.0142	-15.6
-0.0158	0.0007	-0.0015	0.0127	-15.6
-0.0195	0	-0.0083	0.0075	-15.6
-0.0053	-0.003	-0.0053	0.0045	-15.6
-0.0008	-0.0046	0.0015	-0.0053	-15.6
0.003	-0.0046	-0.003	-0.0098	-15.6
0	-0.003	0	-0.0083	-15.6
-0.0015	-0.0008	0.012	-0.0105	-15.7
0	0.0015	0.0105	-0.0083	-15.7
0	0.0037	0.0052	-0.0075	-15.7
0.0052	0.0067	-0.0023	-0.0075	-15.7
0.0135	0.0067	-0.0098	-0.0053	-15.7
0.0165	0.0052	-0.0091	0.0007	-15.7
0.003	0.003	-0.0105	0.0075	-15.8
-0.003	-0.0015	-0.0128	-0.0015	-15.8
-0.0015	-0.0038	-0.0165	0.0007	-15.8
0.0067	-0.0015	-0.0218	0.0052	-15.8
0.012	-0.003	-0.0195	-0.0046	-15.8
0.0045	-0.0046	-0.0143	-0.0015	-15.8
-0.0008	0.0007	-0.003	-0.0008	-15.8
-0.0083	0.003	0.009	0.0015	-15.8
-0.0023	0.003	0.0127	0.0052	-15.8
0	0.003	0.0052	-0.0023	-15.9
-0.003	0	0.0037	-0.006	-15.9
-0.0143	-0.0023	0.009	-0.0083	-15.9
-0.0143	-0.0015	0.009	-0.0046	-15.9
-0.0083	0.0007	0.012	0.0037	-16
-0.0248	0.0007	0.0157	0.0037	-16
0.0022	0.0007	0.0232	0.003	-16
0.0255	-0.003	0.039	0.0015	-16
0.0157	-0.0068	0.039	0.003	-16
0.0052	-0.0023	0.0292	0.0015	-16.1
-0.0218	-0.0008	0.0247	0.0007	-16.1
-0.0165	0.0037	0.003	0.0007	-16.1
-0.0098	0.0067	-0.0165	-0.0015	-16.1
-0.0098	0.003	-0.0315	-0.0015	-16.2
0	0.0015	-0.0503	-0.0008	-16.2
0.0007	-0.0008	-0.0443	0.0015	-16.2
0.0157	-0.0015	-0.03	-0.0008	-16.2
0.024	0	-0.0181	0.0045	-16.2
0.0307	-0.0008	-0.0068	0.0052	-16.2
0.0262	-0.003	0.0052	0	-16.3
0.0007	-0.0015	0.0225	0.0015	-16.3
-0.006	-0.0015	0.0262	-0.003	-16.4
-0.0188	-0.0015	0.0142	-0.0038	-16.4
-0.024	-0.0008	0.0067	-0.0046	-16.4
-0.0143	-0.003	0.0045	-0.0053	-16.5
-0.0278	-0.003	-0.0015	-0.0068	-16.5
-0.0188	-0.003	-0.0091	-0.0008	-16.5
0.0052	-0.0008	-0.0128	0.0067	-16.6
0.0232	0.0007	-0.0143	0.0007	-16.6
0.039	-0.003	-0.0135	0	-16.6
0.0442	-0.003	-0.0083	0.0045	-16.7
0.0465	-0.0046	-0.0023	0.0052	-16.7
0.0127	-0.003	0.0082	0.0015	-16.7
-0.0203	-0.0008	0.0172	0.003	-16.7
-0.0128	0	0.0217	0.003	-16.8
-0.0188	0.0015	0.0232	0	-16.8
-0.012	-0.0015	0.0232	0.0007	-16.9
0.009	-0.003	0.021	-0.0008	-16.9
0.0082	-0.0015	0.0082	-0.0068	-16.9
0.0082	-0.003	0.003	-0.0068	-16.9
0.0015	-0.0015	0.0052	0.0007	-17
0	-0.0008	0.003	0.0037	-17
0.0015	0	0	0.0045	-17
-0.0068	0.0015	-0.006	0.0045	-17.1
-0.0203	-0.0008	-0.0068	0.0037	-17.1
-0.0353	-0.0015	-0.0053	0.0015	-17.1
-0.0285	-0.0015	-0.006	-0.0023	-17.1
-0.0165	0	-0.012	-0.003	-17.2
-0.0075	-0.0008	-0.0128	-0.0053	-17.2
-0.0015	-0.0023	-0.0038	-0.003	-17.2
0.0052	-0.0008	0.0007	0.006	-17.3
0.0007	-0.0015	0.003	0.003	-17.3
0.0075	-0.003	0.006	0.0015	-17.3
0.0292	-0.0038	0.0127	0.0045	-17.4
0.0165	-0.0008	0.0172	0.0067	-17.4
0.0127	0.0015	0.018	0.0067	-17.4
0.0202	0.0015	0.0277	-0.0015	-17.5
0.0105	0.0015	0.0217	0.0007	-17.5
-0.0038	-0.0008	0.0007	0.003	-17.6
-0.0083	-0.003	-0.0128	-0.0008	-17.6
-0.012	-0.003	-0.0285	-0.003	-17.6
-0.0083	-0.003	-0.0278	-0.0068	-17.7
0.0007	-0.0038	-0.0165	-0.003	-17.7
0.0142	-0.0015	-0.0105	-0.0046	-17.8
0.0195	-0.0015	0.003	-0.0068	-17.8
-0.0046	-0.0008	0.0075	-0.0068	-17.9
-0.0046	0.003	0.009	-0.0038	-17.9
0.0112	0.0052	0.0142	0.0022	-17.9
0.0045	0.0052	0.0112	0.0052	-18
-0.0015	0.0045	0.0105	0.0082	-18
-0.0046	0.003	0.009	0.0052	-18
-0.0135	0.0015	0.0067	-0.0008	-18.1
-0.0135	0.0007	0.0037	-0.0053	-18.1
-0.0158	-0.0008	0.0022	-0.0068	-18.2
-0.0128	0.0007	-0.0008	-0.003	-18.2
-0.003	-0.0008	-0.0083	-0.0053	-18.3
-0.0046	-0.0038	-0.003	-0.0046	-18.4
0.0052	-0.003	-0.0008	-0.003	-18.4
0.0045	-0.0046	0.0015	-0.0053	-18.4
-0.0091	-0.0046	0.0015	-0.0015	-18.5
-0.0015	-0.0053	-0.0083	0.009	-18.5
0.0217	-0.0068	-0.0105	0.0112	-18.6
0.018	-0.0053	-0.0143	0.012	-18.6
0.0007	-0.003	-0.0098	0.0082	-18.7
0	-0.0008	0.0037	0.0067	-18.8
0.006	0	0.0157	0.0075	-18.8
-0.003	0.0022	0.0157	0.0037	-18.9
-0.015	0.0022	0.0127	0.0045	-18.9
-0.0038	0.0015	0.0105	0.0022	-18.9
0.0007	0.0015	0.0015	0.0015	-19
-0.0046	0.003	-0.0015	0	-19.1
-0.0068	0.003	-0.0038	-0.0008	-19.1
-0.0023	0.0007	-0.0091	-0.006	-19.2
0.009	-0.0023	-0.0105	-0.0091	-19.2
0.0255	-0.0046	-0.0083	-0.0105	-19.3
0.0427	-0.0053	-0.003	-0.0143	-19.4
0.0322	-0.0053	0.003	-0.0083	-19.4
-0.0008	-0.003	0.0075	-0.003	-19.5
-0.0315	-0.0023	0.009	0.003	-19.5
-0.0323	0.0007	0.015	0.006	-19.6
-0.0165	0	0.0127	0.0022	-19.7
-0.0203	-0.0015	0.0037	0.003	-19.8
-0.0128	-0.0015	-0.0075	0.0022	-19.8
-0.0098	-0.0046	-0.0195	-0.0015	-19.9
-0.0023	-0.0046	-0.0143	-0.0015	-19.9
0.018	-0.003	-0.0075	-0.0015	-20
0.018	-0.0038	-0.0023	-0.0046	-20.1
0.0045	-0.0046	0.0045	-0.0046	-20.2
-0.0158	-0.0046	0.0075	-0.0068	-20.3
-0.0203	-0.0038	0.0082	-0.0128	-20.3
-0.0068	-0.003	-0.0015	-0.0143	-20.4
0.0112	-0.0015	-0.003	-0.0128	-20.4
0.0165	0	-0.0008	-0.0083	-20.5
-0.0015	-0.0015	0.0015	-0.006	-20.6
-0.0181	-0.0038	0.0045	-0.0015	-20.7
-0.0075	-0.0023	-0.003	0.0045	-20.7
-0.0023	-0.0015	-0.0046	0.0052	-20.8
0.003	-0.0015	-0.0068	0.0022	-20.9
0.0277	-0.0046	-0.0091	0.0015	-20.9
0.018	-0.0053	-0.0046	-0.0015	-21
0.0052	-0.0053	-0.0046	-0.0053	-21.1
0.0067	-0.006	-0.003	-0.006	-21.2
0.0082	-0.0046	0	-0.0083	-21.2
0.0097	-0.0053	0.003	-0.006	-21.3
0.0052	-0.0046	0.0112	0.003	-21.4
-0.0023	-0.0008	0.024	0.003	-21.5
-0.0233	0	0.0405	0.0052	-21.6
-0.0263	0.0015	0.0405	0.0075	-21.6
-0.0113	0.0015	0.0315	0.0067	-21.7
-0.0015	0.003	0.0187	0.0052	-21.7
0.003	0.0052	0.0045	0	-21.8
0.003	0.0015	-0.0046	0.003	-21.9
0.0052	0.0015	-0.0091	0	-22
0.0045	0.0007	-0.0068	-0.0008	-22.1
0.0037	0.0007	-0.0075	0.0015	-22.1
0.0022	0.0007	-0.0091	0	-22.2
-0.0046	0.0037	-0.0075	0.0015	-22.3
-0.0083	0.003	-0.0105	0.0007	-22.3
0	0.0007	-0.0053	0.0007	-22.4
-0.0008	0.003	-0.0023	-0.0038	-22.5
-0.0046	0.0007	-0.0023	-0.0038	-22.5
0.0112	-0.0008	0.0067	-0.003	-22.6
0.0082	-0.0008	0.0165	-0.0023	-22.6
-0.0075	0	0.0232	0.003	-22.7
-0.0143	0.0022	0.018	0.003	-22.8
-0.0113	0.003	0.0052	0.0067	-22.9
0	0.003	-0.0091	0.0165	-22.9
0.003	0.0015	-0.0188	0.0307	-23
0.0082	0.0045	-0.0173	0.0367	-23
0.0052	0.0045	-0.012	0.0337	-23.1
-0.0015	0.0037	-0.0053	0.0315	-23.2
0.003	0.0045	0.0007	0.0262	-23.2
0.012	0.0007	-0.0008	0.0195	-23.3
0.0142	-0.0008	-0.0083	0.012	-23.4
0.009	-0.003	-0.0105	0.009	-23.4
-0.0046	-0.0046	-0.0053	0.0037	-23.5
-0.0091	-0.0053	0.0045	-0.003	-23.6
-0.0075	-0.0023	0.0082	-0.0008	-23.6
-0.0053	-0.0015	0.0007	-0.0015	-23.6
-0.0023	-0.0015	-0.0038	-0.0053	-23.7
0.015	-0.0015	-0.0105	-0.0053	-23.7
0.0352	-0.0038	-0.0083	-0.0098	-23.8
0.024	-0.003	0.0052	-0.0105	-23.8
0.003	-0.0015	0.0165	-0.0105	-23.9
-0.024	-0.0015	0.0232	-0.0113	-23.9
-0.033	-0.0008	0.0217	-0.0135	-23.9
-0.0098	-0.0015	0.0195	-0.0165	-24
0.0015	-0.0015	0.0165	-0.0143	-24
0.0097	-0.0008	0.0082	-0.0128	-24.1
0.0067	-0.0008	-0.0008	-0.0143	-24.1
-0.0008	-0.003	-0.0053	-0.0143	-24.2
0.0045	-0.0023	-0.0046	-0.0128	-24.2
0.0067	-0.0015	-0.0053	-0.0091	-24.3
0.003	-0.0015	-0.003	-0.0083	-24.3
-0.012	0.0007	0.0007	-0.0053	-24.3
-0.024	0	0.003	-0.006	-24.4
-0.0158	-0.0008	0.0007	-0.0068	-24.5
-0.0038	-0.0038	-0.0053	-0.003	-24.5
0.0045	-0.0023	-0.0046	-0.0068	-24.5
0.0052	-0.0015	-0.0083	-0.0098	-24.6
-0.0053	-0.0046	-0.0083	-0.0068	-24.6
-0.0053	-0.0053	-0.0068	-0.0091	-24.7
-0.0075	-0.0068	-0.0105	-0.0113	-24.8
-0.0083	-0.0053	-0.012	-0.0128	-24.8
-0.003	-0.0053	-0.0083	-0.012	-24.8
0.009	-0.006	-0.003	-0.0098	-24.9
0.0337	-0.0053	0.0007	-0.0046	-24.9
0.0315	-0.0046	0.003	0.0007	-25
0.0045	0	0.0075	0.0045	-25
-0.0105	0	0.0142	0.006	-25.1
-0.0098	-0.0008	0.0165	0.009	-25.1
-0.0008	0	0.0127	0.0142	-25.2
0.0082	0.0007	0.0127	0.015	-25.2
0.003	0.0037	0.009	0.0142	-25.3
0	0.0037	0.0052	0.0097	-25.3
0.0067	0.0015	0.0037	0.0075	-25.4
0.009	0.0007	-0.0023	0.006	-25.5
0.0015	-0.0008	0.0037	0.0015	-25.5
-0.012	0.0007	0.012	0.0037	-25.6
-0.0165	0.0022	0.0142	0.0015	-25.7
0.0045	0.0007	0.0142	0	-25.7
0.012	0	0.003	0.003	-25.8
0	0.0007	0.0015	0.0015	-25.9
-0.0083	0.0037	0.0045	-0.0008	-26
-0.012	0.003	-0.0023	-0.003	-26.1
-0.003	0.003	-0.0046	-0.0015	-26.2
0.0052	0.003	-0.0135	0.0045	-26.3
0.0127	0.0015	-0.0203	0.0052	-26.3
0.0202	0.0007	-0.0195	0.0067	-26.4
0.0202	-0.0008	-0.0105	0.0067	-26.5
0.0127	0.0007	0.0067	0.009	-26.6
0	-0.0015	0.0067	0.0082	-26.7
-0.0143	-0.0046	0.0007	0.0007	-26.8
-0.0203	-0.0053	-0.0068	-0.003	-26.8
-0.012	-0.0053	-0.0143	-0.003	-26.9
-0.003	-0.0046	-0.012	0	-27
0.0022	-0.0038	-0.0091	0.0022	-27.1
0.0007	-0.003	-0.006	0.003	-27.2
-0.0098	-0.0015	0.009	0.003	-27.3
-0.0195	0.0015	0.0277	0.0037	-27.4
-0.0181	0.003	0.027	0.0045	-27.5
-0.0053	0.0007	0.009	-0.003	-27.6
0.0022	-0.0008	-0.0083	-0.003	-27.7
0.009	-0.0023	-0.0143	-0.0053	-27.8
0.0165	-0.0053	-0.0091	-0.0068	-27.9
0.018	-0.006	-0.003	-0.0046	-28
0.009	-0.006	0.009	-0.0038	-28.1
-0.0091	-0.0053	0.0172	0.0007	-28.2
-0.0128	-0.0053	0.0172	0.0045	-28.4
-0.0143	-0.0053	0.0157	0.0045	-28.4
-0.012	-0.0046	0.0052	0.006	-28.5
0.003	-0.003	-0.0046	0.0052	-28.7
0.0105	-0.0038	-0.0091	-0.0008	-28.8
0.0105	-0.003	-0.012	-0.0008	-28.8
0.0105	-0.0015	-0.0098	0	-28.9
0.0045	-0.0046	0.0007	-0.0075	-29.1
-0.0053	-0.006	0.0217	-0.0083	-29.2
-0.0046	-0.0053	0.036	-0.0083	-29.3
0.0015	-0.0046	0.0337	-0.0053	-29.3
-0.0008	-0.0046	0.0187	-0.003	-29.4
-0.0046	-0.003	0	-0.0046	-29.5
0.0015	-0.0023	-0.006	-0.0015	-29.6
0.0015	-0.0015	-0.0113	-0.003	-29.7
-0.003	0.0007	-0.0098	-0.0053	-29.7
-0.0068	0.0022	-0.0015	-0.0038	-29.8
-0.0083	0.0007	-0.0008	-0.0038	-29.9
-0.003	0.0022	-0.0038	-0.0038	-30
0.0052	0.003	-0.0098	-0.0015	-30.1
0.0067	0.0022	-0.0083	-0.0008	-30.2
-0.0091	0.003	-0.0091	0.0015	-30.2
-0.0181	0.0022	-0.0091	0.003	-30.3
-0.0068	-0.0008	-0.0008	0.0007	-30.4
0	-0.0015	0.003	0	-30.5
0.0007	-0.0015	0.009	0	-30.6
-0.0008	-0.0015	0.012	-0.0015	-30.6
-0.0083	-0.0015	0.0082	-0.0008	-30.7
-0.0128	-0.0046	0.0052	-0.0015	-30.8
-0.0008	-0.0046	0.006	0.0007	-30.8
0.0165	-0.0015	0.006	0.003	-30.9
0.0232	-0.0015	-0.0046	0.0022	-31
0.009	0.0007	-0.0181	0.0037	-31.1
0.0045	-0.0008	-0.0233	0.0037	-31.1
0.015	-0.0015	-0.0225	0.0022	-31.2
0.0195	-0.0008	-0.0165	-0.0008	-31.2
0.021	0	-0.0143	-0.0008	-31.3
0.0082	-0.0015	-0.0105	-0.0008	-31.4
-0.0053	-0.0008	0.0037	0.0015	-31.5
-0.0128	0.0015	0.009	0.0015	-31.5
-0.0135	0.0022	0.012	0.0007	-31.5
-0.006	0.003	0.0157	0.0015	-31.6
-0.006	0.003	0.0127	0.0007	-31.7
-0.0068	0.0015	0.0127	0.0015	-31.8
-0.0068	-0.0008	0.003	-0.0015	-31.8
-0.003	-0.0023	-0.0015	-0.0015	-31.9
0.0082	-0.0008	-0.0023	-0.0008	-32
0.0052	-0.0008	0	0.0037	-32
-0.0053	-0.0015	0.015	0.0082	-32.1
-0.006	-0.0008	0.0232	0.0052	-32.2
-0.0046	-0.0015	0.0255	0.0045	-32.2
-0.0038	-0.0038	0.0217	0.0007	-32.3
-0.0068	-0.0053	0.012	0.0007	-32.4
-0.0068	-0.003	0.0045	0.0007	-32.4
0.0015	-0.0023	-0.0046	0.0015	-32.5
0.009	-0.0008	-0.0053	0.0007	-32.6
0.009	-0.0023	-0.003	-0.0023	-32.6
0.006	-0.0015	0	0.0045	-32.7
0.003	0	0.0045	0.0052	-32.8
-0.0015	-0.0015	0.0045	0.006	-32.9
0.0052	-0.0038	0.0015	0.009	-32.9
0.0067	-0.0053	-0.0015	0.0037	-33
0.0022	-0.0038	-0.0098	0.0045	-33.1
0.0007	-0.003	-0.015	0.0015	-33.1
-0.003	-0.003	-0.0158	0.0007	-33.2
-0.0046	-0.003	-0.0158	-0.0008	-33.3
-0.0053	-0.0023	-0.003	-0.0046	-33.3
-0.006	-0.0038	0.0022	-0.003	-33.4
-0.0053	-0.0023	0.0015	-0.0068	-33.5
-0.0015	-0.003	-0.0008	-0.0068	-33.6
-0.003	-0.0015	-0.0046	-0.0083	-33.7
-0.0053	0	-0.0053	-0.0046	-33.7
-0.0046	0.0007	-0.0053	0.0007	-33.8
-0.0091	0.0007	-0.0008	0.0007	-33.9
-0.0105	0.0015	0.0007	0.0015	-34
-0.0068	0.0037	0.003	0.0045	-34.1
-0.0008	0.0045	0.003	0.0075	-34.1
0.012	0.0045	-0.003	0.0067	-34.2
0.0187	0.003	-0.0053	0.0067	-34.3
0.018	0.0022	-0.0105	0.0082	-34.4
0.024	0.003	-0.006	0.006	-34.5
0.0165	-0.0008	0.0075	0.0037	-34.5
0.0045	-0.003	0.018	0.0007	-34.6
-0.0068	-0.003	0.0285	-0.0008	-34.7
-0.0113	-0.003	0.0292	0.0007	-34.8
0.0022	-0.0015	0.027	0.0015	-34.9
0.0015	0.0015	0.0247	0.0037	-34.9
-0.0068	-0.0015	0.0157	0.0052	-35
-0.0053	-0.0015	0.0037	0.0037	-35.1
-0.0038	-0.0023	-0.0053	0.0045	-35.2
-0.0053	-0.0053	-0.012	0.0052	-35.3
-0.0075	-0.0038	-0.0143	0.003	-35.3
-0.003	-0.003	-0.0091	0.003	-35.4
0.006	-0.0046	-0.0015	0.003	-35.5
0.0157	-0.006	0.0015	0.0015	-35.6
0.0127	-0.0083	0.003	0.0022	-35.7
0.0037	-0.006	0.003	0.003	-35.7
0.0037	-0.0046	0.0007	0.003	-35.8
0.0045	-0.0046	-0.006	0.0015	-35.9
0.0045	-0.0038	-0.0083	0.003	-36
0.0015	-0.003	-0.0075	0.0007	-36.1
-0.0015	-0.0008	-0.0091	-0.0015	-36.1
-0.006	0.0007	-0.0075	-0.0038	-36.2
-0.0128	0.0007	-0.003	-0.0046	-36.3
-0.0068	0.0015	-0.0075	-0.0023	-36.4
0.0007	0.0037	-0.0105	-0.006	-36.5
0.003	0.003	-0.0135	-0.0068	-36.5
0.0007	0.0007	-0.0143	-0.0053	-36.6
-0.003	-0.003	-0.012	-0.0083	-36.8
-0.0008	-0.003	-0.0091	-0.0068	-36.8
0.0105	-0.003	0.0067	-0.0075	-36.9
0.009	-0.003	0.0217	-0.0075	-36.9
-0.0046	-0.0023	0.0255	-0.0053	-37
-0.0083	-0.0008	0.0292	-0.0068	-37.1
-0.0128	-0.0008	0.027	-0.0023	-37.2
-0.0053	-0.0008	0.018	0.0015	-37.3
0.0105	-0.0008	0.012	-0.0008	-37.4
0.0142	-0.0023	0.012	-0.0015	-37.4
0.0075	0	0.0157	0.0045	-37.5
0.003	-0.0015	0.012	0.0052	-37.6
0.0075	-0.0046	0.0045	0.0052	-37.7
0.0045	-0.0053	-0.0023	0.0045	-37.8
0.0015	-0.006	-0.0083	0.0015	-37.8
-0.0015	-0.0046	-0.0083	0	-37.9
-0.0046	-0.0038	-0.0023	0.0007	-38
-0.0091	-0.003	-0.003	0	-38.1
-0.0128	-0.003	-0.003	0	-38.2
-0.0068	-0.003	-0.0038	0.003	-38.2
-0.0046	-0.0008	-0.0053	0.0052	-38.3
-0.003	-0.0008	-0.0008	0.0052	-38.4
-0.0008	0.0007	0.0007	0.0007	-38.5
-0.0008	-0.0008	0.0052	0.0015	-38.5
0.003	0	0.0015	0.0015	-38.6
0.006	-0.0008	-0.0083	-0.003	-38.7
0.0007	-0.0023	-0.012	-0.0008	-38.8
-0.0015	-0.0008	-0.0128	-0.0023	-38.9
0.0015	0	-0.006	-0.0015	-38.9
0.003	0.0022	0.0082	0.0022	-39
-0.0053	-0.0015	0.015	0.0015	-39.1
-0.0068	-0.0046	0.0157	0.0045	-39.2
-0.0038	-0.0015	0.0157	0.003	-39.3
-0.0105	0	0.0127	0.0015	-39.3
-0.0091	0.0015	0.012	0.0045	-39.4
-0.0008	-0.0008	0.0075	0.0037	-39.5
-0.0015	-0.0015	0.003	0.006	-39.6
-0.0046	-0.003	-0.0068	0.0052	-39.7
-0.0046	-0.003	-0.0158	0.0007	-39.7
-0.0008	-0.0038	-0.0143	-0.0015	-39.8
0.0007	-0.0053	-0.0091	-0.0068	-40
0.0045	-0.0046	0.0052	-0.0053	-40
0.0105	-0.003	0.0127	-0.003	-40.1
0.0195	0	0.012	-0.0083	-40.1
0.0165	0.0015	0.0157	-0.0038	-40.2
-0.0046	0.0015	0.009	-0.003	-40.3
-0.0083	0.0015	0.0022	-0.0053	-40.4
-0.003	0.0007	-0.0068	-0.0068	-40.5
-0.0008	0.0007	-0.0083	-0.0068	-40.5
0.003	0	-0.0008	-0.0053	-40.6
0.0052	-0.0008	0.0022	-0.0023	-40.7
0.0015	0.0007	0.0082	0.0007	-40.7
-0.0015	0.0015	0.0045	-0.0008	-40.8
-0.003	0.0022	0.0015	0.0037	-40.9
-0.006	0.0015	0.0022	0.0052	-41
-0.0091	0.003	-0.0023	0.0045	-41
-0.0068	0.0015	-0.0053	0.0045	-41.1
-0.003	0.0007	-0.0046	0.003	-41.2
-0.0068	0.0015	0.0007	0.0052	-41.3
-0.012	0.0037	0.0052	0.003	-41.3
-0.0068	0.003	0.006	0.0015	-41.4
0	0.0015	0.0052	0	-41.4
-0.0023	0.0015	0.0037	-0.0008	-41.5
-0.0046	-0.0008	0	-0.0008	-41.6
-0.0008	-0.0023	-0.006	-0.0015	-41.7
0.0067	-0.0015	-0.0083	0.0015	-41.7
0.0105	-0.0015	-0.0068	0.003	-41.8
0.0127	-0.0046	-0.0015	0.0007	-41.9
0.0105	-0.0053	0.003	-0.0015	-41.9
0.0105	-0.003	0.0045	-0.0015	-42
0.0142	-0.003	0.0037	0.0015	-42
0.0105	-0.0038	0	0.0007	-42.1
0.0112	-0.0038	0.0015	0.0037	-42.2
0.0067	-0.006	0.003	0.0015	-42.2
-0.0015	-0.0075	0.0052	-0.0008	-42.3
0.003	-0.0053	0.0067	0.0007	-42.3
0.0082	-0.0038	0.0037	-0.0015	-42.4
0.006	-0.0023	0.009	-0.0008	-42.5
0.0037	-0.0015	0.0127	-0.0008	-42.5
-0.0046	0.0007	0.0172	0	-42.6
-0.0143	0.0007	0.0232	0.0015	-42.7
-0.015	0	0.0082	0	-42.8
-0.0068	0	-0.0046	-0.0008	-42.8
-0.0008	-0.0015	-0.0091	-0.0015	-42.9
-0.0015	-0.0015	-0.0135	-0.0046	-42.9
-0.0046	-0.0008	-0.0143	-0.0053	-43
-0.0083	0.0015	-0.0165	-0.0008	-43.1
-0.0113	0.0015	-0.012	0.003	-43.2
-0.0128	-0.0008	-0.012	0.0037	-43.2
-0.0091	-0.0008	-0.0083	0.0037	-43.3
0.0052	-0.0008	-0.003	0.0015	-43.4
0.012	-0.0008	0	0.0037	-43.4
0.015	-0.0015	0.0082	0.0075	-43.5
0.0142	0.0007	0.0052	0.0067	-43.6
0.0067	0.0015	0.0015	0.0082	-43.7
-0.003	0.0007	-0.0015	0.0052	-43.7
-0.0083	0.0007	-0.0008	0.0007	-43.8
-0.0053	0.0015	0.0082	0.003	-43.8
