File Name: 7Npie.log
Channel 1: 'RF', 15941 values, engineering units: mV, no filters.
Channel 2: 'BF', 15941 values, engineering units: mV, no filters.
Channel 3: 'VM', 15941 values, engineering units: mV, no filters.
Channel 4: 'ST', 15941 values, engineering units: mV, no filters.
Channel 5: 'FX', 797 values, engineering units: deg, no filters, extrapolated from 50 to 1000 samples per second.

-0.003	-0.0008	-0.027	-0.0015	-15.6
-0.0098	0.0045	-0.039	-0.0015	-15.6
-0.0143	-0.0008	-0.0473	-0.0046	-15.6
-0.0091	-0.0053	-0.0338	-0.0053	-15.6
0.006	-0.0008	-0.024	-0.0046	-15.6
0.0142	0.0015	-0.015	-0.0053	-15.6
0.0165	-0.0008	-0.0053	-0.0053	-15.6
0.0112	-0.003	0.0097	-0.0053	-15.6
0.003	-0.0015	0.0142	-0.0083	-15.6
0.0015	0.0015	0.0082	-0.0053	-15.6
0.0022	-0.0008	-0.003	0.0007	-15.6
0.003	0.0007	-0.0165	0.0045	-15.6
0.0045	0.0022	-0.0173	0.0075	-15.6
0.0037	-0.0015	-0.0248	0.0075	-15.6
0.0007	-0.0068	-0.0203	0.0045	-15.6
-0.0023	-0.0068	0.0067	0.003	-15.6
-0.0015	-0.0015	0.0405	0.0037	-15.6
0.003	-0.0053	0.0367	0.006	-15.6
-0.0046	-0.0083	0.0045	0.0045	-15.6
-0.0128	-0.0046	-0.0188	-0.0008	-15.6
-0.0128	-0.0008	-0.0353	-0.0023	-15.6
-0.0091	-0.0008	-0.0428	-0.0015	-15.6
-0.0046	-0.0015	-0.0465	0.003	-15.6
-0.0068	0.003	-0.0315	0.006	-15.6
-0.0135	0.0052	-0.0143	0.003	-15.6
-0.0165	0.009	-0.015	0.003	-15.6
-0.0091	0.009	-0.042	0.0037	-15.6
-0.003	0.0075	-0.0773	-0.0008	-15.6
0.0037	0.0075	-0.0803	-0.0015	-15.6
0.0067	-0.0068	-0.0608	-0.0023	-15.6
0.0007	-0.0285	-0.042	-0.0015	-15.5
0.0007	-0.0278	-0.0278	0.0022	-15.5
0.0112	-0.0053	-0.0008	0.0015	-15.5
0.012	-0.0046	0.024	0	-15.5
0.006	-0.0038	0.018	0.003	-15.5
0.0007	0.0007	0.009	0.003	-15.5
-0.012	-0.006	0.0195	0.0007	-15.5
-0.0173	-0.0053	0.0225	-0.0015	-15.5
-0.0233	-0.003	0.0127	0	-15.5
-0.0188	0.0007	0.003	0.0015	-15.5
-0.0091	0.0015	0.0157	0.0015	-15.5
-0.003	0.0037	0.039	0.003	-15.5
0.0045	0.0007	0.0195	0.0015	-15.5
0.0015	-0.0015	-0.0105	0.0007	-15.5
0.0037	-0.0015	-0.033	-0.0008	-15.5
0.006	0	-0.0638	-0.0015	-15.5
0.0015	0.0045	-0.0713	-0.0038	-15.5
-0.0098	0.0007	-0.075	-0.0046	-15.5
-0.0218	0.009	-0.0743	-0.0008	-15.5
-0.0181	0.018	-0.057	0.0037	-15.5
-0.0113	0.018	-0.0338	0.0045	-15.5
-0.0053	0.0135	-0.0203	0.0052	-15.5
0	0.0127	-0.0135	0.0067	-15.5
0.0037	-0.0015	-0.0008	0.006	-15.5
0.0082	-0.048	0.012	0.0022	-15.5
0.009	-0.054	0.0217	0.0015	-15.5
0.0082	-0.0068	0.0195	0.003	-15.5
0.0045	0.0007	0.0097	0.0052	-15.5
-0.003	0.0067	-0.0046	0.003	-15.5
-0.0091	0.0127	-0.0181	0.0007	-15.5
-0.0068	0	-0.0233	0.0052	-15.5
-0.003	0.0052	-0.0315	0.0007	-15.5
-0.0046	-0.0068	-0.0285	-0.003	-15.5
-0.003	-0.0046	-0.0143	-0.0091	-15.5
-0.0053	-0.0046	-0.0015	-0.012	-15.5
-0.0046	-0.0143	-0.0068	-0.0128	-15.5
0.003	0.0045	-0.0248	-0.0158	-15.5
0.009	0.0112	-0.024	-0.0091	-15.5
0.003	0.0015	-0.0225	-0.0053	-15.5
-0.0053	0	-0.0195	-0.0023	-15.5
-0.0113	-0.0008	0	0.0037	-15.5
-0.012	0.0007	0.057	0.0082	-15.5
-0.012	0.006	0.0967	0.0052	-15.5
-0.0091	0.0037	0.0352	-0.0046	-15.5
-0.003	0.0015	-0.0308	-0.0083	-15.5
0.0007	0.0007	-0.0698	-0.0053	-15.5
0.0082	0.0075	-0.0915	-0.0046	-15.5
0.0067	0.0082	-0.081	-0.003	-15.5
0.0045	-0.003	-0.0818	-0.0015	-15.5
0.0015	-0.0008	-0.0706	0.0007	-15.5
-0.0046	0.0037	-0.063	0.0022	-15.5
-0.003	-0.0128	-0.057	-0.0015	-15.5
-0.0015	-0.0353	-0.0555	0.0007	-15.5
0.0007	-0.0143	-0.0465	0.0037	-15.5
-0.0015	0.003	-0.0248	0.0007	-15.5
-0.0008	-0.0015	-0.0173	-0.0008	-15.5
0.0052	0.009	-0.0015	0.0007	-15.5
0.0052	0.0052	0.0075	0.0045	-15.5
0.0045	0.0135	0.0052	0.0105	-15.5
-0.0015	0.0127	0.0112	0.0135	-15.5
-0.0128	0.0015	0.039	0.009	-15.5
-0.0165	0.003	0.0555	0.0045	-15.5
-0.0143	0.0007	0.0697	0.0022	-15.5
-0.0143	0.0015	0.0997	0.0007	-15.5
-0.0158	-0.0098	0.069	0.0007	-15.5
-0.0128	-0.0015	0.0082	-0.0015	-15.5
-0.003	-0.0046	-0.0361	-0.0075	-15.5
0.0075	-0.024	-0.0615	-0.006	-15.5
0.015	-0.0075	-0.0608	-0.0015	-15.5
0.0082	0.0045	-0.063	-0.003	-15.5
-0.003	-0.0046	-0.0495	-0.0038	-15.5
-0.012	-0.0015	-0.0436	-0.0053	-15.5
-0.015	-0.0015	-0.0495	-0.0046	-15.5
-0.0046	0.0007	-0.0495	-0.0053	-15.5
-0.0046	0.0045	-0.057	-0.0046	-15.5
-0.0105	0.0082	-0.0465	-0.0015	-15.5
-0.0135	0.009	-0.0256	-0.0023	-15.5
-0.0105	0.003	-0.0158	0.0007	-15.5
-0.0068	0.0022	-0.0165	0.0037	-15.5
-0.0046	-0.003	-0.0233	0.0075	-15.5
0.0045	-0.0105	-0.0225	0.0067	-15.5
0.0112	-0.0181	-0.0158	0.0045	-15.5
0.0217	-0.0158	-0.0098	0.0037	-15.5
0.0165	-0.003	-0.0015	-0.003	-15.5
0.0082	0.0037	0.0045	-0.0046	-15.5
0.003	0.0045	0.0015	0	-15.5
-0.003	0.009	-0.0023	0.0045	-15.5
-0.0046	0.0105	-0.0053	0.0052	-15.5
-0.006	0.0052	-0.0053	0.0045	-15.5
-0.0046	0.006	-0.0008	0.0045	-15.5
-0.003	0.0015	0.0052	0.0022	-15.5
0.0007	-0.0158	0.006	0.003	-15.5
0.0007	-0.0278	0.0045	0.003	-15.5
-0.0083	-0.015	0.0045	0.0045	-15.5
-0.0195	-0.0038	0.0082	0.0037	-15.5
-0.0278	0.0007	0.0255	0.0045	-15.5
-0.0218	0.0112	0.0277	0.003	-15.5
-0.0188	0.0082	-0.0008	0.0007	-15.5
-0.0143	0.012	-0.0353	0.0015	-15.5
-0.0015	0.012	-0.0675	-0.0008	-15.5
0.0142	-0.0068	-0.081	-0.0015	-15.5
0.0142	-0.0293	-0.0848	-0.0068	-15.5
0.0052	-0.0293	-0.066	-0.006	-15.5
0.0082	-0.0098	-0.0346	-0.003	-15.5
-0.0008	-0.0105	-0.0091	-0.0038	-15.5
0.0022	0.0007	0.0375	-0.0023	-15.5
-0.0008	0.0037	0.054	-0.0023	-15.5
-0.0046	0.0022	0.0202	-0.003	-15.5
0.0015	0.0082	-0.0091	-0.003	-15.5
-0.0038	0.0007	-0.0285	-0.0015	-15.5
-0.0015	0.0015	-0.0428	-0.0023	-15.5
-0.0015	-0.0023	-0.0518	-0.0015	-15.5
-0.0015	-0.0008	-0.0518	0.0015	-15.5
-0.003	0.0007	-0.039	0.0015	-15.5
-0.0046	0.0015	-0.0398	0.0022	-15.5
-0.0075	0	-0.0413	0.0015	-15.5
-0.0053	0.0007	-0.048	0.0015	-15.5
0.0007	0.0067	-0.048	0.003	-15.5
-0.0023	0.0007	-0.027	0.003	-15.5
-0.0046	0.0015	-0.003	0	-15.5
-0.0046	0	0.0217	-0.0023	-15.5
-0.0023	-0.0008	0.027	-0.0038	-15.5
-0.0038	0.0015	0.0285	-0.003	-15.5
-0.0083	-0.0008	0.024	-0.0053	-15.5
-0.0075	0	0.0112	-0.0038	-15.5
-0.0083	0.0007	-0.0068	-0.003	-15.5
-0.0165	0.0037	-0.0263	-0.0038	-15.5
-0.0233	0.0015	-0.033	0.0007	-15.5
-0.0233	0.0015	-0.0375	0.0045	-15.5
-0.0173	0.003	-0.0353	0.0037	-15.5
-0.0098	0.003	-0.0315	-0.0015	-15.6
-0.0046	0.0007	-0.0383	-0.0023	-15.6
0.0105	0.0052	-0.042	-0.0015	-15.6
0.0195	0.006	-0.0315	0.003	-15.6
0.0315	-0.0015	-0.0195	0.0045	-15.6
0.0382	-0.003	-0.0046	0.0015	-15.6
0.0285	-0.0015	0.021	-0.0015	-15.6
0.0045	-0.0008	0.0367	-0.0053	-15.6
-0.0091	-0.0083	0.0375	-0.0046	-15.6
-0.0091	-0.015	0.0315	-0.0038	-15.6
-0.0158	-0.0053	0.0277	-0.0053	-15.6
-0.0165	-0.0008	0.0157	-0.0053	-15.6
-0.0091	-0.0068	0.0007	-0.0023	-15.6
-0.0038	-0.006	-0.0083	-0.0015	-15.6
-0.0023	0	-0.0188	0	-15.6
-0.0015	0.0045	-0.0256	0.0022	-15.6
0.0007	0.015	-0.0346	0.003	-15.6
0.003	0.0217	-0.0428	0.003	-15.6
0.0052	0.012	-0.0458	0.003	-15.6
0.0045	0.006	-0.0525	0.0037	-15.6
0.003	0.0067	-0.0593	0.0022	-15.6
-0.0046	-0.0113	-0.0525	0.0022	-15.6
-0.0053	-0.0525	-0.0398	0.0022	-15.6
-0.006	-0.0518	-0.0293	0.0022	-15.6
-0.0091	-0.0068	-0.024	-0.0053	-15.6
-0.0038	0.0015	-0.0225	-0.0083	-15.6
-0.003	0.006	-0.015	-0.0008	-15.6
-0.0046	0.0052	-0.0105	0.0052	-15.6
-0.015	0.003	-0.003	0.012	-15.6
-0.0248	0.006	-0.006	0.012	-15.6
-0.0256	-0.003	-0.0203	0.0082	-15.5
-0.024	-0.003	-0.027	0.0075	-15.5
-0.015	-0.0075	-0.0353	0.0052	-15.5
-0.0046	-0.0068	-0.033	0.0045	-15.5
0.0045	-0.0053	-0.027	0.003	-15.5
0.0165	0.0075	-0.0256	0.0007	-15.5
0.024	0.027	-0.0068	0.0015	-15.5
0.0232	0.0277	0.0345	0.0037	-15.5
0.0142	0.0232	0.0495	0.0022	-15.5
0.0105	0.0172	0.0292	0.0007	-15.5
0.012	0.009	0.0037	-0.0015	-15.5
0.0082	-0.0091	-0.0256	-0.006	-15.5
0.003	-0.0248	-0.0346	-0.003	-15.5
0.0007	-0.0188	-0.0308	-0.0008	-15.5
-0.0008	-0.0278	-0.0098	-0.0038	-15.5
-0.0046	-0.039	0.0172	-0.0015	-15.5
-0.003	-0.006	0	0.0015	-15.5
-0.003	-0.003	-0.033	0.0022	-15.5
-0.0083	-0.0023	-0.0548	0.003	-15.5
-0.0083	0.0082	-0.0683	0.003	-15.5
-0.0068	0	-0.0615	0.0052	-15.5
-0.0068	0.0082	-0.0458	0.0045	-15.5
-0.006	0.006	-0.0315	0.0045	-15.5
-0.006	0.009	-0.0218	0.0052	-15.5
-0.0083	0.009	-0.0218	-0.0008	-15.5
-0.0098	0.0045	-0.0248	-0.0015	-15.5
-0.0075	0.0052	-0.0353	-0.0015	-15.5
-0.006	0.0022	-0.048	-0.0038	-15.5
-0.0038	0.0015	-0.033	-0.0046	-15.5
-0.0083	-0.0098	-0.0143	-0.006	-15.5
-0.0143	-0.0091	0.0015	-0.0046	-15.5
-0.0105	-0.0008	0.0135	-0.0046	-15.5
-0.006	0.003	0.0082	-0.0023	-15.5
-0.0038	0.0105	0.0067	0.0007	-15.5
0.0007	0.0127	0.015	0.0045	-15.5
-0.0046	0.0105	0.03	0.0022	-15.5
-0.0143	0.0075	0.0495	-0.0053	-15.5
-0.0091	0.003	0.057	-0.0105	-15.5
-0.003	-0.0113	0.0337	-0.0113	-15.5
-0.0015	-0.0278	0.0105	-0.0083	-15.5
-0.0008	-0.0203	-0.0128	-0.0046	-15.5
-0.0008	-0.0046	-0.033	-0.0015	-15.5
-0.0053	0.0007	-0.039	-0.0023	-15.5
-0.0098	-0.0091	-0.0593	0.0015	-15.5
-0.006	-0.0158	-0.0735	0.0045	-15.5
-0.003	0.0007	-0.078	0.0075	-15.5
-0.003	0.0015	-0.0563	0.0082	-15.5
-0.0008	-0.0008	0.0127	0.0052	-15.5
0.0015	0.0045	0.0517	0.0052	-15.5
0.0015	0.0082	0.0127	0.0052	-15.5
-0.0015	0.018	-0.0293	0.0015	-15.5
-0.0098	-0.0015	-0.0593	-0.0046	-15.5
-0.0091	-0.0218	-0.0691	-0.0046	-15.5
0	-0.012	-0.0503	-0.0053	-15.5
0.0045	-0.012	-0.0525	-0.0083	-15.5
0.003	-0.0218	-0.048	-0.006	-15.5
0.0052	-0.0165	-0.0436	-0.0053	-15.5
0.009	-0.0046	-0.0315	-0.0038	-15.5
-0.0046	-0.003	-0.0165	-0.003	-15.5
-0.0128	-0.0046	-0.0105	-0.0023	-15.5
-0.0143	-0.0023	0.012	0.0015	-15.5
-0.0113	0.0015	0.0277	0.0015	-15.5
-0.0015	0.0082	0.024	0.0037	-15.5
0.0052	0.0052	0.0157	0.0052	-15.5
0.0082	0.003	0.0007	0.003	-15.5
-0.0008	0.003	-0.0143	0	-15.5
-0.003	0.003	-0.0203	0.0007	-15.5
-0.0008	0.0022	-0.0233	0.0015	-15.5
0	0.0015	-0.0225	0.0015	-15.5
-0.0015	0.003	-0.015	0.0007	-15.5
-0.0046	-0.0008	-0.0075	0.0045	-15.5
-0.0046	0.0007	-0.0046	0.0045	-15.5
-0.0046	0.0007	-0.0091	0.006	-15.5
-0.0038	0	-0.015	0.0082	-15.5
-0.003	0.0045	-0.0173	0.0052	-15.5
0.0007	0.0082	-0.0218	0	-15.5
0.0007	0.006	-0.0218	-0.0023	-15.5
-0.0053	0.0015	-0.0165	-0.003	-15.5
-0.0143	0.0015	-0.0135	-0.0038	-15.5
-0.0158	0.0067	-0.0105	-0.0046	-15.5
-0.0128	0.0105	-0.0083	-0.0091	-15.5
-0.0105	0.0067	-0.0181	-0.0083	-15.5
-0.0128	0	-0.0225	-0.006	-15.5
-0.0181	-0.0023	-0.0248	-0.0053	-15.5
-0.0158	-0.0128	-0.0293	-0.0046	-15.5
-0.0046	-0.0188	-0.0323	-0.0015	-15.5
0.0142	-0.0046	-0.0383	0.003	-15.5
0.0345	0.0105	-0.0248	0.0037	-15.5
0.0367	0.0172	-0.0023	0.0045	-15.5
0.0232	0.012	0.018	0.0007	-15.5
0.0165	0.0075	0.0277	-0.0053	-15.5
0.0172	0.0075	0.0285	-0.0053	-15.5
0.0127	-0.0091	0.0247	-0.0083	-15.5
0.0052	-0.0368	0.0157	-0.0083	-15.5
-0.003	-0.0405	0.018	-0.0046	-15.5
-0.012	-0.0135	0.0067	-0.0015	-15.5
-0.0173	-0.0091	-0.0225	0.0007	-15.5
-0.0188	-0.006	-0.0503	0.003	-15.5
-0.0203	0.0007	-0.0683	0.006	-15.5
-0.0128	0	-0.0728	0.0082	-15.5
0.0015	0.0067	-0.0706	0.0067	-15.5
0.0052	0.0082	-0.0593	0.0045	-15.5
0.0007	0.012	-0.0495	0.0015	-15.5
-0.0113	0.0105	-0.0361	0.0007	-15.5
-0.0195	0.0105	-0.0256	0.0007	-15.5
-0.0195	0.009	-0.0128	-0.0008	-15.4
-0.0098	0.009	-0.0053	0.0007	-15.4
-0.0008	0.0075	-0.0053	0.0015	-15.4
0.0037	-0.0203	0.0165	0.0007	-15.4
0.0007	-0.0293	0.0502	0.0015	-15.4
-0.0083	-0.0046	0.0577	0.0022	-15.4
-0.0098	-0.0015	0.0217	-0.0008	-15.4
-0.006	0.0067	-0.0173	-0.0008	-15.4
-0.0075	0.0232	-0.0443	0.0007	-15.4
-0.012	0.0157	-0.0503	0.0007	-15.4
-0.0158	0.018	-0.0488	-0.0008	-15.4
-0.0143	0.0105	-0.0593	0	-15.4
-0.0075	-0.0135	-0.0383	-0.0008	-15.4
-0.0068	-0.0608	0.0285	-0.0053	-15.4
-0.0128	-0.0615	0.048	-0.0046	-15.4
-0.0181	-0.0105	0.0345	-0.0008	-15.4
-0.0165	-0.0015	0.0315	-0.0015	-15.4
-0.0105	0.0157	-0.0083	-0.0008	-15.4
-0.003	0.012	-0.033	0.0037	-15.4
0.0022	0.0015	-0.0518	0.0082	-15.4
0.0067	0.009	-0.063	0.0022	-15.4
0.0127	0.0007	-0.0615	-0.0023	-15.4
0.0217	0.009	-0.0825	-0.003	-15.4
0.0322	0.0082	-0.0885	-0.0008	-15.4
0.033	0.0075	-0.0825	0.0037	-15.4
0.018	-0.0023	-0.0645	0.0045	-15.4
0.0045	-0.0068	-0.0465	0.0052	-15.4
-0.003	0.003	-0.0308	0.0052	-15.4
-0.0068	0.0007	-0.0173	0.0067	-15.4
-0.0091	0.0022	-0.0008	0.0067	-15.4
-0.0083	0.0007	0.0112	0.0037	-15.4
-0.0046	-0.003	0.0015	0.003	-15.4
-0.0008	-0.0053	0.0007	0.003	-15.4
-0.0015	-0.0023	-0.0008	-0.0008	-15.4
-0.0046	0.0007	0.0007	-0.0038	-15.4
-0.0046	0.0007	0.0067	-0.0023	-15.4
-0.0068	0.0007	0.0075	-0.003	-15.4
-0.0053	-0.003	0.0105	-0.0046	-15.4
-0.0068	-0.003	0.018	-0.0083	-15.4
-0.0083	-0.0083	0.033	-0.0083	-15.4
-0.0165	-0.0068	0.0345	-0.0068	-15.4
-0.0293	-0.0015	0.0217	-0.0046	-15.4
-0.0256	0.0022	0.0045	-0.0008	-15.4
-0.0165	0.009	-0.012	0.0015	-15.4
-0.0053	0.0097	-0.0233	0.0015	-15.4
-0.0008	-0.0053	-0.0346	-0.0015	-15.5
0.0037	-0.0338	-0.042	-0.003	-15.5
0.0067	-0.0233	-0.042	-0.003	-15.5
0.0045	0.003	-0.0293	-0.006	-15.5
0.0075	0.0037	-0.0143	-0.006	-15.5
0.009	0.0142	-0.0075	-0.003	-15.5
0.006	0.0165	-0.003	0.0007	-15.5
-0.0023	0.0135	-0.0038	0.003	-15.5
-0.012	0.0105	-0.0068	0.0045	-15.5
-0.012	0.0082	-0.024	0.0045	-15.5
-0.006	0.0052	-0.0256	0.0045	-15.4
0.0007	-0.0165	-0.003	0.0022	-15.4
0.0045	-0.024	0.003	0.0045	-15.4
0.012	-0.0128	0.0157	0.0052	-15.4
0.0202	-0.0046	0.048	0.0067	-15.4
0.0195	0	0.0367	0.0045	-15.4
0.009	0.0007	0.0052	-0.0008	-15.4
-0.0015	-0.0015	0	-0.0008	-15.4
-0.0046	0.0007	-0.003	-0.0008	-15.4
-0.006	0.0015	-0.0218	0.0007	-15.4
-0.0083	0.003	-0.0503	-0.0008	-15.4
-0.0135	0.003	-0.0721	-0.0015	-15.4
-0.0083	0.0022	-0.084	-0.0015	-15.4
-0.0075	0.0067	-0.0765	-0.0008	-15.4
-0.0068	0.0082	-0.0653	0.0007	-15.4
-0.0053	0.0052	-0.0525	0.003	-15.4
-0.0105	-0.0015	-0.0436	0.0067	-15.4
-0.0143	-0.0053	-0.0383	0.0097	-15.4
-0.0225	-0.0128	-0.0293	0.0082	-15.4
-0.0218	-0.0233	-0.024	0.0052	-15.4
-0.0158	-0.0225	-0.0181	0.0045	-15.4
-0.012	-0.0053	-0.0143	0.003	-15.4
-0.006	0.0135	0.0052	0.0007	-15.4
-0.006	0.018	0.0465	-0.0046	-15.4
-0.003	0.0052	0.0735	-0.0083	-15.4
0.009	0.0007	0.0517	-0.0083	-15.4
0.0135	-0.0008	0.0217	-0.0098	-15.4
0.0142	-0.0195	-0.006	-0.0113	-15.4
0.0127	-0.0256	-0.039	-0.0105	-15.4
0.009	-0.0143	-0.057	-0.0068	-15.4
0.006	0.0052	-0.0675	-0.0083	-15.4
0.0015	0.0067	-0.0825	-0.0083	-15.4
0.0082	-0.0015	-0.0938	-0.003	-15.4
0.0105	0.0037	-0.0863	-0.0008	-15.4
0.0045	0	-0.0713	-0.0008	-15.4
-0.0046	0	-0.0495	-0.0015	-15.4
-0.0083	-0.0008	-0.0218	-0.003	-15.4
-0.003	-0.0008	-0.0046	-0.0008	-15.4
-0.0023	0.0015	0.003	0.003	-15.4
-0.0015	0.0007	0.0082	0.0045	-15.4
-0.0046	0.003	0.0105	0.0067	-15.4
-0.0083	0.0007	0.0142	0.0052	-15.4
-0.0083	0	0.0382	0.0037	-15.4
-0.0128	0.0022	0.0645	0.0037	-15.4
-0.0233	0.0007	0.048	0.0045	-15.4
-0.0278	-0.0015	-0.0015	0.0052	-15.3
-0.0203	0.0037	-0.033	0.0052	-15.3
-0.0113	0.009	-0.048	0.0045	-15.3
-0.0015	0.0045	-0.0488	0.0015	-15.3
0.0067	0.0052	-0.0443	-0.0015	-15.3
0.0157	0.0082	-0.042	-0.0015	-15.3
0.0247	0.0067	-0.0278	-0.0015	-15.3
0.0262	-0.003	-0.0083	0.0007	-15.3
0.021	-0.0165	0.0105	0.003	-15.3
0	-0.0068	-0.0068	0.0022	-15.3
-0.0158	-0.006	-0.0083	0.0037	-15.3
-0.0128	-0.0098	0.0255	0.0037	-15.3
-0.0113	-0.0046	0.0157	0.0015	-15.3
-0.0083	-0.0091	-0.0083	0.003	-15.3
-0.0113	-0.0038	-0.027	0.0015	-15.3
-0.012	-0.003	-0.0383	0.0015	-15.3
-0.0083	-0.0023	-0.0346	0.003	-15.3
-0.0038	0.0007	-0.0361	0.0022	-15.3
-0.0008	-0.0015	-0.0278	0.0037	-15.3
-0.0015	0	-0.021	0.0007	-15.3
-0.0046	-0.0038	-0.0233	-0.003	-15.3
-0.0046	-0.003	-0.0278	-0.0015	-15.3
-0.0008	-0.003	-0.0293	-0.0015	-15.3
0.0007	-0.0015	-0.0248	-0.003	-15.3
0.0007	-0.0008	-0.0105	-0.0015	-15.3
-0.003	-0.003	0.0007	-0.0015	-15.3
-0.003	-0.0023	-0.0023	-0.0015	-15.3
-0.0046	-0.0015	-0.0038	-0.0023	-15.3
-0.0075	-0.0008	-0.0105	-0.0038	-15.3
-0.0105	-0.0008	-0.0158	-0.0023	-15.3
-0.0128	-0.0015	-0.0158	0.0007	-15.3
-0.012	0.0007	-0.0195	0.0067	-15.3
-0.0105	0.0045	-0.0218	0.0067	-15.3
-0.0068	0.0127	-0.024	0.0015	-15.3
-0.0008	0.0232	-0.027	0.003	-15.3
0.0082	0.0247	-0.024	0.0015	-15.3
0.0112	0.0232	-0.0181	-0.0023	-15.3
0.0165	0.0195	-0.012	-0.0015	-15.3
0.0135	-0.0046	-0.0046	-0.0023	-15.3
0.0052	-0.0495	-0.0075	-0.0038	-15.3
0.009	-0.0578	-0.0091	-0.0023	-15.3
0.012	-0.0075	-0.006	0.0007	-15.3
0.009	0.0045	-0.012	0.0007	-15.3
0.0105	0.0007	-0.0038	0	-15.3
0.012	0.009	0.0082	0.003	-15.3
0.006	0.012	0.0022	0.0007	-15.3
-0.0023	0.0112	-0.003	-0.0053	-15.3
-0.0091	-0.0256	-0.0038	-0.0053	-15.3
-0.0188	-0.0203	0.0015	-0.003	-15.3
-0.027	-0.003	0.0142	-0.0038	-15.3
-0.021	-0.0105	0.0157	-0.003	-15.3
-0.015	-0.0008	0.0082	-0.0068	-15.3
-0.0233	0.0015	-0.0053	-0.0091	-15.3
-0.0225	0.0052	-0.0225	-0.0015	-15.3
-0.0135	0	-0.033	0	-15.3
-0.0128	-0.0015	-0.0346	0	-15.2
-0.0091	0.0007	-0.039	-0.0015	-15.2
-0.006	-0.0008	-0.0361	-0.003	-15.2
-0.0068	0.0037	-0.0346	-0.0015	-15.2
-0.0053	0	-0.0353	-0.003	-15.2
-0.0046	0	-0.0323	-0.0015	-15.2
-0.0046	0.0045	-0.033	0.0045	-15.2
-0.0046	0.0112	-0.0323	0.0097	-15.2
-0.003	0.0135	-0.0368	0.0127	-15.2
-0.0105	0.0142	-0.0495	0.009	-15.2
-0.0233	0.0165	-0.0683	0.003	-15.2
-0.0308	0.0052	-0.078	-0.0008	-15.2
-0.0323	-0.0083	-0.0728	-0.0015	-15.2
-0.0195	-0.0091	-0.0263	0.0022	-15.2
0	0.003	0.018	0.0052	-15.2
0.0142	-0.0046	0.0172	0	-15.2
0.0277	-0.012	0.0277	-0.0083	-15.2
0.036	-0.003	0.033	-0.0091	-15.2
0.0435	-0.0195	0.042	-0.003	-15.2
0.0532	-0.0188	0.0532	0.0007	-15.2
0.0427	-0.003	0.045	-0.0008	-15.2
0.0217	-0.015	0.0262	-0.0046	-15.2
0.0082	-0.0038	0.003	-0.006	-15.2
-0.0083	-0.0008	0.009	-0.0053	-15.2
-0.0173	-0.003	0.027	-0.003	-15.2
-0.0068	0.0082	0.0292	-0.0023	-15.3
-0.0015	0.003	-0.0046	-0.003	-15.3
-0.0158	0.0045	-0.0443	-0.0046	-15.3
-0.0143	0.003	-0.0683	-0.0068	-15.3
-0.0053	0.006	-0.0773	-0.0091	-15.3
-0.0083	-0.0105	-0.0706	-0.0075	-15.3
-0.0105	-0.027	-0.075	-0.0008	-15.3
-0.0143	-0.0015	-0.0675	0.0015	-15.3
-0.0128	0.006	-0.0525	-0.0008	-15.3
-0.0091	-0.0015	-0.039	0.0022	-15.3
-0.0091	0.003	-0.0278	0.0067	-15.3
-0.0105	0.0007	-0.0278	0.0037	-15.3
-0.0091	0.0007	-0.0315	0.0045	-15.3
-0.0105	0	-0.033	0.0067	-15.3
-0.0098	0	-0.0015	0.0067	-15.3
-0.0083	0.003	0.033	0.0052	-15.3
-0.006	0.0007	0.0202	0.0045	-15.3
0	0.003	-0.0053	0.006	-15.3
0.0015	0.0015	-0.024	0.0067	-15.3
0.0022	-0.0008	-0.0323	0.006	-15.3
0	-0.0015	-0.0308	0.0052	-15.3
-0.0015	-0.0015	-0.0293	0.0052	-15.3
-0.0083	0.0007	-0.0256	0.003	-15.3
-0.0091	0.0045	-0.0293	-0.003	-15.3
-0.003	0.0007	-0.0293	-0.006	-15.3
-0.0038	-0.0098	-0.024	-0.0046	-15.3
-0.0046	-0.012	-0.0181	-0.0046	-15.3
-0.003	-0.0091	0.0045	-0.003	-15.3
-0.003	-0.003	0.0337	0.0015	-15.3
-0.0008	0.003	0.0217	0.0015	-15.3
0.0037	0.003	-0.006	0.0007	-15.3
0.0015	0.0007	-0.0143	0.0045	-15.3
0.003	0.0015	-0.0308	0.003	-15.3
0.0067	0.0007	-0.0293	0.0015	-15.3
0.0067	0.0007	-0.0256	0.0015	-15.3
0.0067	-0.0023	-0.027	0.0015	-15.2
0.0007	-0.003	-0.024	0.0045	-15.2
0.0015	0.0007	-0.0233	0.0045	-15.2
0.0045	0	-0.0068	0.0007	-15.2
-0.0046	0.0007	-0.0023	-0.0008	-15.2
-0.0075	-0.0008	-0.0158	0.0015	-15.2
-0.0046	-0.0008	-0.021	0.0015	-15.2
-0.006	-0.0008	-0.0203	-0.0015	-15.2
-0.0068	-0.0023	-0.027	0	-15.2
-0.0083	-0.0015	-0.024	0.0015	-15.2
-0.006	-0.0015	-0.0203	0.003	-15.2
-0.003	0.0015	-0.021	0.0007	-15.2
-0.003	-0.0008	-0.0143	-0.0008	-15.2
-0.003	-0.0023	-0.0046	-0.0053	-15.2
0.0015	-0.0053	0.003	-0.0098	-15.2
0.0037	-0.0075	0.0082	-0.0098	-15.2
-0.006	-0.0023	0.0195	-0.0053	-15.2
-0.015	0	0.0172	-0.0015	-15.2
-0.0143	0.0015	0.018	-0.0015	-15.2
-0.015	-0.0015	0.0345	-0.0023	-15.2
-0.0165	-0.0038	0.0322	-0.0046	-15.2
-0.0143	-0.0015	-0.0008	-0.0068	-15.2
-0.0091	0.0007	-0.039	-0.003	-15.2
-0.003	0.0045	-0.0615	-0.0015	-15.2
-0.0015	0.0112	-0.0721	0.0015	-15.2
-0.0015	0.0082	-0.0765	0.0045	-15.2
-0.0038	-0.0008	-0.0706	0.006	-15.2
-0.0008	-0.0046	-0.0555	0.0067	-15.2
0.0067	-0.0068	-0.0495	0.006	-15.2
0.009	-0.003	-0.0383	0.003	-15.2
0.006	0	-0.0225	0.0015	-15.2
0.0075	0.0082	-0.0083	-0.003	-15.2
0.0082	0.0135	-0.0023	-0.0038	-15.2
0.0052	0.009	-0.0038	0.0037	-15.2
0.0052	0.0045	0.0015	0.0037	-15.2
0.003	-0.006	0.0015	0.0007	-15.2
-0.0053	-0.0233	0.003	-0.0046	-15.2
-0.0195	-0.0263	0.0165	-0.006	-15.2
-0.0233	-0.0113	0.0217	-0.003	-15.2
-0.0195	-0.0038	0.0052	0.0045	-15.2
-0.0105	0.003	-0.0091	0.012	-15.2
-0.0046	0.006	-0.0158	0.012	-15.2
-0.0053	0.0007	-0.024	0.0112	-15.2
-0.0113	0.0007	-0.0293	0.0045	-15.2
-0.0128	0.0015	-0.0278	-0.0008	-15.2
-0.0091	0.0142	-0.0203	0	-15.2
-0.0165	0.0225	-0.012	0.0045	-15.2
-0.0173	0.018	-0.0068	0.0037	-15.2
-0.0083	0.0135	-0.0068	0.003	-15.2
0.0015	0.0127	-0.0083	0.0045	-15.2
0.0127	-0.0046	-0.0173	0.0022	-15.2
0.0225	-0.0458	-0.0263	-0.0023	-15.2
0.0225	-0.0503	-0.0285	-0.0113	-15.2
0.0112	-0.0068	-0.0173	-0.0105	-15.2
0.0172	-0.0075	-0.0098	-0.0068	-15.2
0.0172	-0.0128	-0.0203	-0.0083	-15.2
-0.003	-0.0015	-0.021	-0.0083	-15.2
-0.0075	-0.0015	-0.021	-0.0083	-15.2
0.0007	0.0127	-0.024	-0.006	-15.2
0.009	0.0105	-0.021	-0.0068	-15.2
0.0172	0.0082	-0.0203	-0.0075	-15.2
0.0127	-0.0105	-0.0128	-0.006	-15.2
-0.003	-0.0218	-0.0173	-0.0046	-15.2
-0.0188	-0.0075	-0.0308	-0.006	-15.2
-0.0285	-0.0053	-0.012	-0.003	-15.2
-0.0285	0.0037	0.0195	-0.0008	-15.2
-0.021	0.003	0.0202	0.0007	-15.2
-0.0098	0.006	-0.0083	0.0007	-15.2
0.0007	0.0045	-0.033	0.0022	-15.2
0.0127	0.0015	-0.0375	0.003	-15.2
0.0157	0.003	-0.033	-0.0015	-15.2
0.012	-0.0015	-0.0195	-0.0046	-15.2
0.0105	-0.0015	-0.0158	-0.0023	-15.2
0.0052	0.0007	-0.0015	0.0045	-15.2
-0.0008	0.0082	0.0307	0.009	-15.2
-0.006	0.006	0.0112	0.0105	-15.2
-0.0143	0.0097	-0.0278	0.0075	-15.2
-0.0158	0.012	-0.057	0.003	-15.2
-0.012	-0.0083	-0.078	0.0007	-15.2
-0.0091	-0.0203	-0.078	0.003	-15.2
-0.003	0.0007	-0.096	0.0045	-15.2
0.0015	0.0067	-0.1028	0.003	-15.2
0.0007	0.003	-0.0495	0.0045	-15.2
-0.0053	0.0007	-0.0143	0.003	-15.2
-0.0068	-0.0293	-0.0105	0.003	-15.2
-0.0113	-0.0188	0.0022	0.0015	-15.2
-0.012	0.0052	0.024	-0.0023	-15.2
-0.0053	0.003	0.0555	-0.0046	-15.2
-0.0083	0.015	0.0442	-0.0083	-15.2
-0.0143	0.0142	0.0345	-0.0075	-15.2
-0.0091	0.0022	0.027	-0.0038	-15.2
0.0045	-0.0218	0.003	-0.0053	-15.2
0.006	-0.0256	0.0157	-0.006	-15.2
0.0015	-0.012	0.018	-0.003	-15.2
-0.0091	-0.0181	0.0277	-0.0015	-15.2
-0.0158	-0.0105	0.0412	0	-15.2
-0.0113	-0.003	0.018	0.0015	-15.2
-0.0143	-0.0015	-0.0053	0.0007	-15.2
-0.0113	0.003	-0.0285	0.0022	-15.2
-0.0023	0.0037	-0.0488	0.003	-15.2
0.003	0.0082	-0.054	0.0045	-15.2
-0.0015	0.009	-0.0495	0.0022	-15.2
-0.0046	0.0067	-0.0488	0.0007	-15.2
-0.0053	0.0045	-0.048	0.0007	-15.2
-0.006	0.0045	-0.0495	0.003	-15.2
-0.003	0.0052	-0.0518	0.0045	-15.2
-0.0038	0.003	-0.0488	0.003	-15.2
0.0007	-0.003	-0.039	0.003	-15.2
0.0007	-0.0008	-0.0188	0.0045	-15.2
0.003	0.009	-0.0083	0.0067	-15.2
0.0037	0.0127	0.0015	0.006	-15.3
-0.0008	0.018	-0.0008	0.0075	-15.3
-0.0046	0.0217	-0.015	0.006	-15.3
-0.0075	0.0127	-0.0165	0.003	-15.3
-0.0068	-0.012	-0.0143	0.0015	-15.3
-0.0083	-0.0128	0.003	0.0007	-15.3
-0.0046	0.006	-0.003	0.0022	-15.3
0.003	-0.0008	-0.0263	0.0037	-15.3
0.0082	-0.0135	-0.0346	0.0045	-15.3
0.0157	-0.0315	-0.0398	0.0007	-15.3
0.0202	-0.0346	-0.0368	-0.0046	-15.2
0.0157	-0.012	-0.0256	-0.0105	-15.2
0.0082	-0.0038	-0.0128	-0.0135	-15.2
0.0007	-0.0015	0.0015	-0.012	-15.2
-0.0053	-0.0015	0.0195	-0.0068	-15.2
-0.0075	0.0015	0.0292	-0.003	-15.2
-0.0023	0.0067	0.018	-0.0015	-15.2
0.0075	0.0015	-0.003	0.0007	-15.2
0.0097	0.0037	-0.0203	0.0015	-15.2
0.0075	0.0015	-0.0368	0.0015	-15.2
0.0052	-0.0015	-0.042	0.0007	-15.2
0.0022	-0.0008	-0.0308	0.0007	-15.2
0	0.0007	-0.0278	0.0045	-15.2
-0.0046	0.0052	-0.0323	0.003	-15.2
-0.0143	0.0007	-0.0248	-0.0008	-15.2
-0.0315	-0.0008	-0.0135	-0.0046	-15.2
-0.0353	0.0007	-0.0135	-0.0046	-15.2
-0.024	0.0007	-0.0143	-0.0023	-15.2
-0.0046	-0.0008	-0.0128	0.0007	-15.2
-0.0008	-0.0046	-0.0105	-0.0008	-15.2
-0.0046	-0.0075	-0.0023	-0.003	-15.2
-0.0038	-0.012	0.018	-0.0015	-15.2
-0.006	-0.0091	0.042	-0.0015	-15.2
0.0015	-0.0015	0.0607	-0.0038	-15.2
0.0082	0.006	0.0547	-0.006	-15.2
0.0075	0.0045	0.0135	-0.0046	-15.1
0.0067	-0.003	-0.0278	-0.0038	-15.1
0.0067	0.0007	-0.0585	-0.0015	-15.1
0.009	0.0015	-0.0683	0	-15.1
0.0015	-0.0008	-0.0691	0.0015	-15.1
-0.0068	-0.0008	-0.0728	0.006	-15.1
-0.006	-0.0008	-0.0721	0.0037	-15.1
-0.0053	-0.0008	-0.0675	0.003	-15.1
-0.0091	-0.0046	-0.0458	0.003	-15.1
-0.0068	-0.0053	-0.0293	0.0007	-15.1
-0.0038	0	-0.0135	0.0022	-15.1
-0.0053	-0.0053	0.003	0.0037	-15.1
0	-0.0068	-0.0023	0.0037	-15.1
0.0082	-0.0038	-0.0083	0.0022	-15.1
0.0015	-0.0053	-0.0158	-0.0008	-15.1
-0.0083	-0.0053	-0.0158	-0.0015	-15.1
-0.0023	-0.0083	-0.0098	0.0015	-15.1
-0.003	-0.003	-0.015	0.0052	-15.1
-0.0128	0.0007	-0.0195	0.0075	-15.1
-0.0233	0.003	-0.0105	0.009	-15.1
-0.024	0.0135	0.0427	0.0112	-15.1
-0.0143	0.0247	0.123	0.012	-15.1
-0.0046	0.027	0.126	0.0097	-15.1
0.0045	0.015	0.0427	0.0067	-15.1
0.0082	0.0105	-0.0308	0.003	-15.1
0.0127	-0.0113	-0.081	-0.0083	-15.1
0.0142	-0.054	-0.1013	-0.015	-15.1
0.0075	-0.042	-0.1088	-0.0098	-15.1
0	-0.0181	-0.1223	-0.0083	-15.1
-0.0068	-0.0143	-0.117	-0.0068	-15.1
-0.0188	-0.0053	-0.105	-0.0046	-15.1
-0.0203	-0.0068	-0.0593	-0.0015	-15.1
-0.0113	0.0157	0.0135	0.003	-15.1
-0.0143	0.0165	0.042	0.003	-15.1
0.003	0.0142	0.03	0.0045	-15.1
0.0195	0.0232	0.0105	0.003	-15.1
0.0262	0.009	-0.0105	0.0015	-15.1
0.0367	-0.0143	-0.0015	0.0007	-15.1
0.033	-0.0233	0.003	-0.0008	-15.1
0.0195	-0.003	-0.0143	-0.0038	-15.1
-0.0046	-0.006	-0.024	-0.006	-15.1
-0.0218	0.0015	-0.0465	-0.0068	-15.1
-0.0346	0.0105	-0.0533	-0.0075	-15.1
-0.0263	0.0112	-0.045	-0.003	-15.1
-0.0158	0.009	-0.0278	-0.0038	-15.1
-0.0158	-0.0233	-0.0256	-0.0038	-15.1
-0.0083	-0.015	-0.0443	0	-15.1
-0.003	0.003	-0.0413	0	-15.1
-0.0038	-0.0053	-0.0285	0.0015	-15.1
-0.0075	0.0015	0.0015	0.0015	-15.1
-0.0068	0.0037	0.0292	0.0015	-15.1
-0.0038	0.0015	0.0412	0.0037	-15.1
-0.0008	0.009	0.048	0.006	-15.1
0.0052	0.0067	0.0405	0.0067	-15.1
0.0067	0.0082	0.0465	0.0037	-15.1
0.0067	0.0112	0.0532	-0.0046	-15
0.0015	0.0112	0.042	-0.0023	-15
0.0045	-0.0053	0.0067	0.0022	-15
0.0127	-0.0181	-0.0233	0.0007	-15
0.0082	-0.0053	-0.0346	0.0007	-15
-0.0015	0.003	-0.054	-0.003	-15
-0.0143	0.0052	-0.0443	-0.0015	-15
-0.0181	0.006	-0.033	0	-15
-0.0091	0.0082	-0.033	0.0015	-15
-0.003	0.0105	-0.0353	0.0037	-15
0.0022	0.0067	-0.045	0.0045	-15
-0.003	0.003	-0.0368	-0.0008	-15
-0.0181	-0.0015	-0.0225	-0.0091	-15
-0.0263	-0.0195	0.0067	-0.0083	-15
-0.024	-0.0353	0.0187	-0.003	-15
-0.0195	-0.0181	0.009	-0.0008	-15
-0.0135	-0.0015	-0.0068	0	-15
-0.006	0.0022	-0.0293	0.0067	-15
0.0007	0.0142	-0.0436	0.0067	-15
0.0075	0.012	-0.0458	0	-15
0.018	0.0082	-0.0353	-0.0023	-15
0.0217	0.0022	-0.0346	-0.0046	-15
0.0127	-0.0068	-0.0346	-0.0015	-15
0.0067	-0.0053	-0.027	0	-15
0.0037	-0.0008	-0.0218	0.0007	-15
0	0.0015	-0.0143	0.0045	-15
0	0	-0.0015	0.0037	-15
-0.0046	-0.0053	0.0202	0.003	-15
-0.015	-0.0083	0.0262	0.0045	-15
-0.024	-0.0015	0.0195	0.003	-15
-0.0225	-0.003	0.0127	0.0022	-15
-0.012	-0.0046	-0.012	0.003	-15
-0.0098	-0.0053	-0.0323	0.0022	-15
-0.0083	-0.003	-0.033	0.003	-15
-0.003	0.0067	-0.0105	0.0037	-15
0.003	0.0105	0.0285	0.0015	-15
0.0075	0.0165	0.027	0.0007	-15
0.0082	0.0195	-0.0008	0.0037	-15
0.0075	0.009	-0.0293	0.0037	-15
0.0067	-0.0165	-0.0645	0.003	-15
0.0082	-0.0188	-0.063	0.0052	-15
0.0007	-0.003	-0.0375	0.0007	-15
-0.0098	-0.0083	0.0075	-0.0023	-15
-0.0105	-0.0128	0.0232	0.0007	-15
-0.012	-0.0158	-0.012	0.0007	-15
-0.0113	-0.0091	-0.042	0.0007	-15
-0.0068	-0.0008	-0.0503	0.0007	-15
0.0052	-0.0008	-0.0203	-0.0015	-15
0.018	0.0045	-0.0113	-0.0046	-15
0.018	0.0007	-0.0293	-0.0046	-15
0.003	-0.0023	-0.0465	-0.0023	-15
-0.0091	-0.003	-0.0713	-0.0015	-15
-0.0113	-0.0008	-0.0608	0.0007	-15
-0.0143	-0.0015	-0.0533	0.0007	-15
-0.012	-0.0023	-0.0495	-0.0008	-15
-0.0158	0.0007	-0.0346	0.0007	-15
-0.0195	-0.0008	-0.0323	0.0015	-15
-0.0165	-0.0023	-0.0188	0.003	-15
-0.0098	0.003	-0.0038	0.0015	-15
-0.006	0.0082	0.0315	-0.0008	-15
-0.0068	0	0.0547	0.003	-14.9
-0.003	-0.0015	0.0315	0.0052	-14.9
-0.0046	0.0007	0.0127	0.0045	-14.9
0.0007	0	0.0067	0.0022	-14.9
0.0067	-0.0015	-0.0008	0	-14.9
0.0045	-0.0083	-0.0188	-0.0008	-14.9
-0.0023	-0.0113	-0.0233	-0.0008	-14.9
-0.0068	-0.006	0.0037	-0.0038	-14.9
-0.0068	-0.003	0.0195	-0.006	-14.9
-0.0053	-0.0053	-0.0046	-0.0068	-14.9
0.0015	-0.0008	-0.0323	-0.006	-14.9
0.0045	-0.003	-0.0495	-0.0053	-14.9
0.009	-0.003	-0.0593	-0.0053	-14.9
0.0142	-0.0008	-0.0578	-0.0038	-14.9
0.0052	-0.0053	-0.0518	0.0007	-14.9
0	-0.003	-0.0458	0.0007	-14.9
-0.0023	-0.0046	-0.0383	0.0015	-14.9
-0.006	-0.0023	-0.0323	0.0007	-14.9
-0.012	0.0015	-0.0293	-0.0008	-14.9
-0.0165	0.0067	-0.0218	-0.0008	-14.9
-0.0113	0.0142	-0.0075	-0.0046	-14.9
-0.0068	0.018	0.012	-0.0053	-14.9
-0.0053	0.0195	0.0135	-0.0046	-14.9
0.0052	0.0142	0.0037	-0.003	-14.8
0.0067	-0.0015	0.0022	-0.0008	-14.8
0.0022	-0.0218	-0.0015	-0.0008	-14.8
0.0052	-0.0165	0.003	0.0007	-14.8
0.009	-0.0128	-0.0015	-0.0046	-14.8
0.0045	-0.0256	-0.0165	-0.0008	-14.8
-0.003	0.0007	-0.0195	0.0037	-14.8
-0.0128	0.021	-0.0218	0.0037	-14.8
-0.0158	0.0217	-0.0225	0.0045	-14.8
-0.0015	0.0007	-0.0225	0.0015	-14.8
0.0097	-0.0195	-0.0083	-0.0015	-14.8
0.012	0.0172	0.009	-0.0023	-14.7
0.003	-0.0068	0.0142	-0.003	-14.7
-0.003	-0.0555	0.0037	-0.003	-14.7
0.0015	-0.039	-0.0233	0	-14.7
0.0007	-0.0053	-0.033	0.0022	-14.7
-0.0053	0.0045	-0.0195	-0.0008	-14.7
-0.0143	-0.0023	-0.0143	-0.0008	-14.7
-0.0158	-0.0053	-0.0098	0.0007	-14.7
-0.0143	0.003	-0.015	0.003	-14.7
-0.0105	0.0075	-0.0225	0.0045	-14.7
-0.0053	0.006	-0.0105	0.003	-14.7
-0.003	0.0105	0.0045	0.003	-14.7
-0.0015	0.0045	0.003	0.0015	-14.7
0.0015	0.0045	-0.0105	0.0007	-14.6
0.0097	0.0007	-0.0188	0	-14.6
0	0.0007	-0.0233	0.0015	-14.6
-0.0128	0.0022	-0.0256	0.0045	-14.6
-0.0128	0.003	-0.0233	0.0082	-14.6
-0.0091	0.0067	-0.0188	0.0097	-14.6
-0.0008	0.0045	-0.0195	0.0052	-14.6
0.0052	0.0045	-0.0218	0.0022	-14.6
0.003	0.003	-0.027	-0.0008	-14.6
0.0007	0.0037	-0.0278	-0.0046	-14.6
-0.0046	0.0007	-0.0218	-0.0046	-14.6
-0.0083	-0.0053	-0.0181	-0.0015	-14.6
-0.0053	-0.0046	-0.0143	-0.003	-14.6
-0.0038	-0.0015	-0.0158	-0.0023	-14.6
0.003	-0.0008	-0.0165	-0.003	-14.6
0.0082	-0.0008	-0.0165	-0.0008	-14.6
0.0127	0.0015	-0.0165	0.0007	-14.6
0.0112	-0.0015	-0.0075	-0.0008	-14.6
0.0015	-0.0068	-0.0083	-0.0015	-14.5
-0.0053	-0.0068	-0.0128	-0.0046	-14.5
-0.0083	-0.0083	-0.0113	0.0015	-14.5
-0.006	-0.0038	-0.012	0.0015	-14.5
-0.0015	0.0015	-0.0083	-0.0008	-14.5
-0.0038	0.0015	-0.0113	0.0007	-14.5
-0.0091	-0.0008	-0.0135	-0.0038	-14.5
-0.0128	-0.003	-0.0158	-0.0046	-14.5
-0.0165	-0.0023	-0.0195	-0.0046	-14.5
-0.0165	-0.0023	-0.021	-0.0046	-14.5
-0.0165	-0.0008	-0.024	-0.0038	-14.5
-0.012	-0.0015	-0.0195	-0.0015	-14.5
-0.0053	-0.0008	-0.0203	-0.0015	-14.5
0	0.0007	-0.0203	-0.0015	-14.5
0.006	-0.0008	-0.0263	0	-14.5
0.012	-0.0008	-0.0338	-0.0008	-14.5
0.0165	0.0015	-0.03	0	-14.5
0.0172	0.0052	-0.0285	0	-14.5
0.012	0.0015	-0.0256	-0.0008	-14.5
0.0015	-0.0008	-0.0248	-0.0008	-14.5
-0.0068	0	-0.0225	-0.0008	-14.5
-0.0091	-0.003	-0.0203	-0.0015	-14.5
-0.0075	-0.0053	-0.0308	-0.0008	-14.5
-0.0015	-0.003	-0.0368	0.0007	-14.5
0	-0.0008	-0.0308	0.0022	-14.5
-0.0008	0.0015	-0.0165	0.0052	-14.5
0	0.009	0.024	0.0052	-14.5
0.0015	0.0142	0.0412	-0.0008	-14.5
-0.0008	0.012	0.0195	0	-14.5
-0.0008	0.006	-0.003	0.0007	-14.5
0.003	-0.012	-0.0218	-0.0023	-14.5
0.0015	-0.0315	-0.012	-0.0015	-14.5
-0.012	-0.015	0.0022	0.0007	-14.5
-0.024	0	0.0037	-0.0008	-14.5
-0.0135	-0.003	-0.0091	-0.0008	-14.5
-0.0128	0.006	-0.0315	0.0037	-14.5
-0.0091	-0.003	-0.042	0.0045	-14.5
-0.0046	-0.003	-0.045	0.0007	-14.5
-0.0053	-0.003	-0.0465	-0.0015	-14.5
-0.0038	-0.0046	-0.033	-0.0008	-14.5
-0.006	-0.0008	-0.0158	-0.003	-14.5
-0.0046	-0.0046	-0.0105	-0.003	-14.5
-0.0008	0.0007	-0.0091	0.0007	-14.5
0.0007	-0.0015	-0.0105	0.0015	-14.5
-0.0015	0.0022	-0.0105	-0.0008	-14.5
-0.0015	0.003	-0.0091	-0.003	-14.5
0.0007	0.0007	-0.0105	-0.006	-14.5
-0.0008	0.0015	-0.0113	-0.0008	-14.5
-0.0008	0.0022	-0.0128	0.0082	-14.5
-0.0023	0.0007	-0.0173	0.0112	-14.5
-0.0046	-0.003	-0.0181	0.012	-14.4
-0.0038	-0.0023	-0.012	0.0045	-14.4
-0.0046	-0.0068	-0.0091	-0.003	-14.4
-0.0046	-0.0083	-0.0128	-0.0023	-14.4
-0.006	-0.0008	-0.0135	-0.003	-14.4
-0.0091	0.0075	-0.0158	-0.0008	-14.4
-0.0143	0.0112	-0.0256	0.0045	-14.4
-0.0143	0.009	-0.0315	0.0067	-14.4
-0.0091	0.0067	-0.0278	0.006	-14.4
-0.003	0.0052	-0.0181	0.0075	-14.4
0.0045	0.0045	0.0007	0.0067	-14.4
0.0135	-0.0113	0.021	0.003	-14.4
0.018	-0.0308	0.0337	-0.0008	-14.4
0.0142	-0.0248	0.018	-0.0015	-14.4
0.0105	-0.0105	-0.0046	-0.003	-14.4
0.0067	-0.0068	-0.0203	-0.003	-14.4
0.0007	0.003	-0.0361	-0.0015	-14.4
-0.0015	0.0037	-0.0353	0.0007	-14.4
-0.0015	-0.0008	-0.042	0.0015	-14.4
-0.0046	-0.0008	-0.0458	0	-14.4
-0.0091	-0.0008	-0.0353	0.0007	-14.4
-0.0083	0.003	-0.0128	0.0015	-14.4
-0.0083	0.0037	-0.0008	0.0015	-14.4
-0.0075	0.0037	-0.0278	-0.0008	-14.4
-0.0091	0	-0.0503	-0.0038	-14.4
-0.0098	-0.0023	-0.0488	-0.0023	-14.4
-0.0023	-0.0008	-0.0405	-0.003	-14.4
0.0007	-0.0008	-0.0091	-0.003	-14.4
0.0052	0.0015	0.0225	-0.0038	-14.4
0.003	-0.003	0.0165	-0.0083	-14.4
0.003	-0.0053	-0.0068	-0.0075	-14.3
0.0082	-0.0046	-0.0315	-0.0068	-14.3
0.0067	-0.003	-0.0465	-0.0075	-14.3
0.003	-0.0015	-0.0368	-0.0053	-14.3
-0.0008	-0.003	-0.0293	-0.0046	-14.3
-0.0015	0	-0.0233	-0.0015	-14.3
-0.0046	0.0007	-0.0203	-0.0008	-14.3
-0.0068	-0.0008	-0.0233	-0.0015	-14.3
-0.0083	-0.0023	-0.0256	-0.0008	-14.3
-0.0105	-0.003	-0.0278	0	-14.3
-0.0083	-0.0038	-0.0181	-0.0008	-14.3
-0.0091	-0.003	-0.0053	-0.0008	-14.3
-0.0098	-0.0008	-0.0015	0.0007	-14.3
-0.006	-0.0015	-0.0046	0.0007	-14.3
-0.0046	-0.0008	-0.0015	0.0007	-14.3
-0.0105	-0.0015	-0.0023	0.0015	-14.3
-0.0195	-0.0008	-0.003	0.0045	-14.3
-0.0218	0.0022	-0.003	0.0045	-14.3
-0.0188	0.0045	-0.0053	0.0052	-14.3
-0.0143	0.0105	-0.0068	0.0067	-14.3
-0.0038	0.0195	-0.0091	0.0067	-14.3
0.0052	0.0202	-0.0068	0.0067	-14.3
0.0105	0.0172	-0.0158	0.0045	-14.3
0.0165	0.0202	-0.024	0	-14.3
0.024	0.0007	-0.0158	-0.003	-14.3
0.0232	-0.0346	-0.0083	-0.006	-14.3
0.015	-0.0315	-0.0008	-0.0053	-14.3
0.0097	-0.0285	0.003	-0.0075	-14.3
0.0007	-0.048	-0.003	-0.0053	-14.3
-0.0083	-0.0218	-0.0083	-0.0015	-14.3
-0.0105	-0.0015	-0.0105	-0.0008	-14.3
-0.0143	-0.0083	-0.012	-0.0008	-14.3
-0.0158	0	-0.0165	0.0007	-14.3
-0.0135	0	-0.0218	0.0015	-14.3
-0.0091	0.006	-0.0285	0.0015	-14.3
-0.0083	0.0052	-0.03	0.0052	-14.3
-0.0091	0.0015	-0.024	0.0045	-14.3
-0.0075	0.0037	-0.0203	0.003	-14.3
-0.0068	0.003	-0.0195	0.0022	-14.3
-0.0075	0.0045	-0.0218	0.0015	-14.3
-0.0083	0.003	-0.0195	0.0007	-14.3
-0.006	0.0067	-0.0203	0.0007	-14.3
-0.0075	0.0052	-0.0195	0	-14.3
-0.006	0.0045	-0.0188	0.0015	-14.3
-0.003	0.0015	-0.0203	0.0022	-14.3
-0.0023	0	-0.0188	0.0022	-14.3
-0.0023	0.0015	-0.0181	0.0045	-14.3
0.0015	0	-0.0165	0.0052	-14.3
0.0007	0.003	-0.015	0.0052	-14.3
-0.003	0.0052	-0.0143	0.003	-14.2
-0.0046	0.0037	-0.0128	0.003	-14.2
-0.0015	-0.0008	-0.0165	0.0045	-14.2
0	-0.0015	-0.0143	0.0037	-14.2
0.0015	-0.0023	-0.012	0.003	-14.2
0.0022	-0.0038	-0.0128	0.0015	-14.2
0.0007	0	-0.0128	0.0015	-14.2
0.0007	-0.003	-0.0128	0.0015	-14.2
0.0007	-0.0046	-0.0173	0.0007	-14.2
0.0015	-0.0008	-0.0218	0.003	-14.2
0.0007	0.003	-0.0203	0.003	-14.2
0	0.0015	-0.0173	0.0052	-14.2
0	0.0015	-0.015	0.0052	-14.2
-0.0015	0.0007	-0.0135	0.003	-14.1
-0.003	-0.0023	-0.0135	0.0007	-14.1
-0.0046	-0.0008	-0.0165	-0.0008	-14.1
-0.006	-0.0015	-0.0143	-0.0015	-14.1
-0.0053	-0.0023	-0.0098	-0.0053	-14.1
-0.0053	-0.003	-0.012	-0.0068	-14.1
-0.0038	-0.0038	-0.0128	-0.0105	-14.1
-0.0053	-0.003	-0.0135	-0.0091	-14.1
-0.0046	-0.0023	-0.0143	-0.0046	-14
-0.0008	-0.0008	-0.0143	-0.0053	-14
-0.0015	0.0007	-0.0158	-0.003	-14
-0.0015	0.0007	-0.0165	-0.0015	-14
-0.0008	-0.0008	-0.0181	0	-14
-0.0008	-0.0023	-0.0195	-0.0008	-14
-0.0023	-0.0015	-0.0188	-0.0015	-14
-0.0008	-0.0015	-0.0181	-0.0015	-14
-0.0008	-0.0046	-0.0165	-0.003	-14
-0.0008	-0.003	-0.0173	-0.003	-14
0.0022	-0.0046	-0.0181	-0.0068	-13.9
-0.0008	-0.006	-0.0158	-0.0046	-13.9
-0.0008	-0.0046	-0.0143	-0.0046	-13.9
-0.0008	-0.0053	-0.0143	-0.0068	-13.9
-0.003	-0.0015	-0.015	-0.0046	-13.9
-0.0008	0.0007	-0.0158	-0.0015	-13.9
-0.0046	0.0007	-0.0158	0.003	-13.9
-0.0015	-0.0008	-0.0165	0.0045	-13.8
-0.0038	-0.0015	-0.0158	0.0082	-13.8
-0.006	-0.0015	-0.0143	0.009	-13.8
-0.003	-0.003	-0.0181	0.0075	-13.8
-0.0046	-0.0023	-0.0188	0.0082	-13.8
-0.003	-0.0008	-0.0173	0.0045	-13.8
-0.0038	0	-0.0181	0.0045	-13.8
-0.0046	-0.0008	-0.0181	0.0037	-13.7
-0.0046	-0.0008	-0.0188	0.0015	-13.7
-0.0046	-0.0008	-0.0165	-0.0008	-13.7
-0.0053	0.0007	-0.0165	-0.003	-13.7
-0.0068	0	-0.0181	-0.003	-13.7
-0.0038	-0.0008	-0.0195	-0.0015	-13.7
-0.0015	0.0007	-0.0203	-0.0015	-13.6
0	0	-0.0173	-0.0015	-13.6
0.003	-0.0008	-0.0158	-0.0015	-13.6
0.003	-0.0008	-0.0158	0	-13.6
0.0022	-0.0015	-0.0158	0.0022	-13.6
0	-0.003	-0.015	0.0037	-13.6
-0.0015	-0.0023	-0.0143	0.0037	-13.6
-0.003	0.0007	-0.0135	0.0052	-13.5
-0.0053	0.0015	-0.0158	0.0052	-13.5
-0.0046	0	-0.015	0.0015	-13.5
-0.0015	0.0007	-0.0158	-0.0008	-13.5
-0.003	0.0007	-0.0181	-0.0015	-13.5
-0.003	0	-0.0188	-0.003	-13.5
-0.003	-0.0008	-0.0195	-0.003	-13.5
-0.0023	-0.0015	-0.0195	-0.0038	-13.5
-0.0008	0	-0.0188	-0.0053	-13.5
-0.003	0.0007	-0.0181	-0.0053	-13.5
-0.0038	0.0022	-0.015	-0.0046	-13.4
-0.003	0.0007	-0.012	-0.0046	-13.4
-0.0015	0.0007	-0.012	-0.0046	-13.4
-0.0038	0.003	-0.0128	-0.003	-13.4
-0.003	0.0007	-0.0158	-0.0023	-13.4
-0.0015	0.0007	-0.0173	-0.0015	-13.4
-0.0046	0	-0.0158	0	-13.4
-0.003	-0.0015	-0.0158	-0.0015	-13.3
-0.0015	-0.0023	-0.015	-0.0015	-13.3
-0.0046	-0.003	-0.0143	-0.0008	-13.3
-0.0046	-0.0023	-0.0158	-0.0015	-13.3
-0.0038	-0.003	-0.0181	0.0022	-13.3
-0.0015	-0.0015	-0.0173	0.0045	-13.2
-0.0053	-0.003	-0.0173	0.0052	-13.2
-0.0046	-0.0023	-0.0203	0.0052	-13.2
-0.0008	-0.0015	-0.0195	0.0067	-13.2
-0.0023	-0.0015	-0.0181	0.0075	-13.1
-0.0015	0.0007	-0.0181	0.0067	-13.1
-0.0046	0.0007	-0.0181	0.0045	-13.1
-0.0053	0	-0.0143	0.0037	-13.1
-0.0046	-0.0008	-0.0143	0.003	-13.1
-0.003	-0.0015	-0.0143	0.0015	-13.1
-0.0038	-0.003	-0.0135	0.0015	-13.1
-0.0046	-0.0015	-0.0158	0.0007	-13
-0.0015	-0.003	-0.0181	0.0007	-13
-0.0015	0	-0.0203	0.0022	-13
-0.003	0.0052	-0.0188	0.0045	-13
-0.003	0.0045	-0.0188	0.0052	-12.9
-0.003	-0.0008	-0.0181	0.0022	-12.9
0.003	-0.003	-0.0195	-0.0023	-12.9
0.0097	-0.0008	-0.0181	-0.0008	-12.9
0.0067	-0.0143	-0.0128	-0.003	-12.9
-0.0008	-0.0338	-0.0098	-0.0038	-12.9
-0.0068	-0.0218	-0.0083	-0.003	-12.9
-0.0083	-0.0053	-0.006	-0.0023	-12.9
-0.0068	-0.0068	-0.0053	0.0007	-12.9
-0.0068	-0.003	-0.0105	0	-12.8
-0.0068	-0.0015	-0.012	0.0007	-12.8
-0.0046	-0.0015	-0.0135	0.0015	-12.8
-0.0053	0.0007	-0.0158	-0.0023	-12.8
-0.006	-0.0008	-0.0143	-0.0046	-12.8
-0.006	0.0007	-0.0181	-0.0053	-12.8
-0.0068	0	-0.0195	-0.0068	-12.8
-0.006	0.0015	-0.0165	-0.0083	-12.8
-0.0068	0.003	-0.012	-0.0083	-12.8
-0.0068	0.0015	-0.0083	-0.0091	-12.8
-0.0053	0.0022	-0.0135	-0.0083	-12.7
-0.0046	0.0037	-0.0203	-0.0083	-12.7
-0.0046	0.003	-0.024	-0.0068	-12.7
-0.0046	0.0022	-0.0256	-0.0053	-12.7
-0.003	0.0022	-0.0256	-0.006	-12.7
-0.0023	0.0037	-0.0256	-0.0046	-12.7
-0.003	0.0052	-0.024	-0.0015	-12.7
-0.0046	0.003	-0.0233	-0.0046	-12.7
-0.006	0.0015	-0.0195	-0.003	-12.7
-0.0053	-0.0015	-0.0195	-0.0015	-12.7
-0.0046	-0.003	-0.0165	-0.0015	-12.7
-0.0015	-0.0015	-0.0143	0.003	-12.7
-0.0015	0.0022	-0.0158	-0.0008	-12.7
-0.0008	0.0037	-0.015	-0.0008	-12.7
0.0015	0.0007	-0.0158	0.0015	-12.7
0.003	-0.0008	-0.0158	0.0037	-12.7
0.0075	0	-0.0165	0.0045	-12.7
0.0067	0	-0.0158	0.0052	-12.6
0	0.0015	-0.0143	0.006	-12.6
-0.0015	0.0015	-0.012	0.0067	-12.6
-0.003	0.0007	-0.0105	0.0052	-12.6
-0.0046	0.0007	-0.0098	0.0052	-12.6
-0.0008	0.0015	-0.0128	0.0052	-12.6
0.0022	0.0007	-0.0158	0.0045	-12.6
0.003	0.0007	-0.0128	0.0022	-12.6
0.0015	-0.0008	-0.0135	0.0007	-12.6
0.0007	-0.0046	-0.0135	-0.0008	-12.6
0	-0.0053	-0.0143	0	-12.6
-0.0038	-0.0046	-0.0143	0	-12.6
-0.0053	-0.0046	-0.0158	-0.0023	-12.6
-0.0068	-0.0046	-0.0165	-0.003	-12.5
-0.0091	-0.0038	-0.0165	-0.003	-12.5
-0.0075	-0.003	-0.0173	-0.0046	-12.5
-0.0038	-0.0038	-0.0188	-0.003	-12.5
-0.0008	-0.0038	-0.0181	-0.0008	-12.5
-0.0015	-0.0053	-0.0158	0.0015	-12.4
-0.0015	-0.003	-0.0128	0.0045	-12.4
-0.0038	-0.0015	-0.0105	0.0037	-12.4
-0.0053	0.0007	-0.0128	0.003	-12.4
-0.003	0.0015	-0.015	0.003	-12.4
-0.0008	-0.0008	-0.0158	0.0007	-12.4
0	0	-0.0128	-0.0008	-12.3
-0.0015	-0.0008	-0.0173	0.0015	-12.3
-0.0038	-0.0008	-0.0203	0.003	-12.3
-0.0053	-0.0015	-0.0165	0.0015	-12.3
-0.0015	-0.0046	-0.0165	0.0007	-12.3
-0.0015	-0.0046	-0.0158	-0.0008	-12.3
-0.0053	-0.0046	-0.0173	0.0007	-12.3
-0.0053	-0.0023	-0.0181	0.0007	-12.3
-0.0053	-0.0015	-0.0181	0	-12.3
-0.006	-0.0015	-0.0173	0	-12.2
-0.006	-0.0008	-0.0181	0	-12.2
-0.006	-0.0008	-0.0181	0.0007	-12.2
-0.0046	-0.0008	-0.0158	0.003	-12.2
-0.0046	-0.0023	-0.0181	0.0052	-12.2
-0.0046	-0.0015	-0.0165	0.0045	-12.2
-0.003	-0.0023	-0.0158	0.003	-12.2
-0.0046	-0.0023	-0.0158	0.0015	-12.2
-0.0053	-0.0023	-0.0158	0.0022	-12.2
-0.0068	-0.003	-0.0181	0.0037	-12.2
-0.0068	-0.0046	-0.0158	0.003	-12.2
-0.0038	-0.0023	-0.0158	0.0045	-12.2
-0.0046	-0.0008	-0.0143	0.003	-12.2
-0.0023	-0.0008	-0.0158	0.0022	-12.2
-0.0015	0.0022	-0.0165	0.003	-12.2
-0.003	0.0015	-0.0158	0.003	-12.2
-0.0053	0.0007	-0.0158	0.0037	-12.1
-0.0053	0.0007	-0.0143	0.0045	-12.1
-0.0015	0	-0.015	0.0037	-12.1
-0.0015	-0.0015	-0.0158	-0.0008	-12.1
-0.0015	-0.0015	-0.0165	-0.0023	-12.1
-0.0008	0.0015	-0.0158	-0.003	-12.1
-0.0046	0.0015	-0.0158	-0.003	-12.1
-0.0083	0.0015	-0.0173	-0.0023	-12.1
-0.0075	0	-0.0173	-0.0015	-12.1
-0.0046	0	-0.0173	-0.0023	-12.1
-0.0008	0.0007	-0.0181	-0.003	-12.1
0.0007	0	-0.0195	-0.0015	-12.1
0	0	-0.0195	0.0007	-12.1
0.0007	-0.0008	-0.0181	-0.0015	-12
-0.0008	0.0007	-0.0165	-0.0015	-12
-0.003	0.0007	-0.0173	-0.003	-12
-0.003	-0.0015	-0.0143	-0.0038	-12
-0.0023	-0.0008	-0.0128	-0.003	-12
0.0007	-0.0023	-0.0128	-0.003	-12
0.003	-0.003	-0.0158	-0.0008	-12
0.0015	-0.0015	-0.0173	0.0007	-12
0.0015	-0.0008	-0.0158	0.0022	-11.9
0.0015	-0.0008	-0.0165	0.0015	-11.9
0.003	-0.0023	-0.0165	0.0022	-11.9
-0.0008	-0.0008	-0.0173	0.003	-11.9
-0.0008	-0.0008	-0.0173	0.003	-11.9
-0.0015	0.0007	-0.0165	0.0007	-11.9
-0.0008	0.0007	-0.0158	0.0007	-11.9
-0.0008	-0.0015	-0.0143	0	-11.8
-0.0053	-0.0008	-0.0143	-0.0008	-11.8
-0.0053	-0.0015	-0.0158	-0.0015	-11.8
-0.0068	-0.0008	-0.0158	-0.0023	-11.8
-0.003	-0.0015	-0.0165	-0.0015	-11.8
-0.0038	-0.0015	-0.0181	-0.003	-11.8
-0.0068	-0.003	-0.0158	-0.0023	-11.8
-0.0075	-0.0053	-0.0165	-0.003	-11.7
-0.0053	-0.003	-0.0165	-0.0015	-11.7
0.0007	-0.003	-0.0181	-0.0008	-11.7
0.003	-0.003	-0.0181	-0.0015	-11.7
0.0037	-0.0038	-0.0165	0.0015	-11.7
0.0007	-0.003	-0.0181	-0.0008	-11.7
-0.0038	-0.0023	-0.0128	-0.0008	-11.7
-0.0008	-0.003	-0.015	0.0015	-11.7
0.0045	-0.0023	-0.0195	0.0015	-11.7
0.0015	-0.0008	-0.0203	0.0045	-11.7
-0.0015	0.0015	-0.0203	0.003	-11.7
0	0	-0.0181	0.0015	-11.7
-0.0008	0	-0.0165	0.0007	-11.7
-0.0046	0.0007	-0.0165	0.0015	-11.7
-0.0046	0.0015	-0.0181	0.003	-11.7
0.0007	0	-0.0181	0.0015	-11.7
0.003	-0.0023	-0.0165	0.0007	-11.7
-0.0008	-0.0008	-0.0165	0.0015	-11.7
-0.0015	-0.0008	-0.0165	0.0007	-11.6
-0.0068	0.0015	-0.0143	-0.0015	-11.6
-0.0113	0.0007	-0.0113	0	-11.6
-0.0105	-0.0023	-0.0105	0	-11.6
-0.0105	-0.003	-0.0075	-0.0008	-11.6
-0.0083	-0.003	-0.0105	-0.0008	-11.6
-0.0023	-0.003	-0.0165	0.0007	-11.6
0.0007	-0.0023	-0.0158	0	-11.6
-0.0015	-0.0015	-0.015	0.0007	-11.6
0.0015	-0.0038	-0.0143	0.0007	-11.6
0.003	-0.006	-0.0135	0.0007	-11.6
0.0022	-0.0053	-0.0143	0.0007	-11.6
0.0015	-0.0046	-0.0158	0.0007	-11.6
0	-0.0015	-0.0165	0.0007	-11.5
0	-0.0008	-0.0173	0.0007	-11.5
-0.003	-0.0015	-0.0188	0.0015	-11.5
-0.0053	-0.0023	-0.0173	0.003	-11.5
-0.0023	-0.003	-0.0181	0.0015	-11.5
-0.003	-0.003	-0.0165	0.0007	-11.5
-0.0023	-0.003	-0.0143	0.0007	-11.5
-0.0046	-0.0046	-0.015	0.003	-11.5
-0.0053	-0.0038	-0.0143	0.0007	-11.5
-0.0053	-0.0015	-0.0143	-0.0015	-11.5
-0.0083	-0.0015	-0.0143	-0.003	-11.5
-0.0068	0.0007	-0.0158	-0.0053	-11.5
-0.0053	0.0015	-0.0203	-0.0053	-11.5
-0.003	0.0015	-0.0203	-0.003	-11.5
-0.0053	0.0015	-0.0203	-0.0023	-11.5
-0.0091	0	-0.0195	-0.0008	-11.5
-0.0091	-0.0008	-0.0158	0	-11.5
-0.012	-0.003	-0.0143	0.0015	-11.5
-0.0091	-0.0023	-0.0143	0.003	-11.5
-0.0053	-0.0015	-0.0128	0.0015	-11.5
-0.003	0	-0.012	0.0037	-11.5
-0.003	-0.0008	-0.0128	0.0045	-11.5
-0.0038	-0.0015	-0.0128	0.0052	-11.5
-0.0038	-0.0023	-0.0128	0.0045	-11.5
-0.0015	-0.003	-0.0158	0.0045	-11.5
0	-0.0023	-0.0173	0.003	-11.5
0.003	-0.0046	-0.0181	-0.0015	-11.5
0.0045	-0.0015	-0.021	-0.003	-11.5
0.0045	0	-0.021	-0.0023	-11.5
0.0007	-0.0008	-0.0188	-0.003	-11.5
-0.0008	0.0007	-0.0203	-0.0023	-11.6
-0.0038	0.0015	-0.0203	-0.0008	-11.6
-0.0046	0.0022	-0.0173	0	-11.6
-0.0023	0.003	-0.0158	-0.0015	-11.7
0	0.0007	-0.0188	-0.0046	-11.7
0.0007	-0.0023	-0.0195	-0.0046	-11.7
-0.0015	-0.0053	-0.0181	-0.0053	-11.8
-0.0038	-0.0023	-0.0173	-0.0053	-11.8
-0.0083	0.0022	-0.015	-0.0038	-11.9
-0.0105	0.0037	-0.0143	-0.0015	-11.9
-0.0105	0.0045	-0.0158	-0.0015	-12
-0.0083	0.0045	-0.0165	-0.0023	-12.1
-0.0008	0.003	-0.0143	-0.0038	-12.1
-0.0015	0.0015	-0.0128	-0.0053	-12.2
-0.0023	-0.0008	-0.012	-0.0053	-12.2
-0.0038	-0.0008	-0.012	-0.0053	-12.2
-0.0046	-0.0015	-0.0135	-0.0046	-12.3
-0.003	-0.0038	-0.012	-0.0038	-12.3
-0.0038	-0.0023	-0.012	-0.0023	-12.4
-0.0068	-0.0023	-0.0135	-0.0015	-12.4
-0.0105	-0.003	-0.0135	-0.0015	-12.5
-0.0091	-0.0015	-0.0128	0	-12.5
-0.0105	0.0007	-0.0143	-0.0015	-12.6
-0.0091	-0.0015	-0.0173	-0.0015	-12.6
-0.0046	-0.0023	-0.0188	-0.0008	-12.6
-0.0046	-0.0046	-0.0181	0	-12.7
-0.0008	-0.003	-0.0195	0.0015	-12.7
0.0022	-0.0008	-0.0203	0	-12.8
0.003	-0.003	-0.0218	-0.0008	-12.8
0.003	-0.0015	-0.0181	0	-12.9
0.0022	0	-0.0143	0	-13
-0.0008	0.0007	-0.0135	0	-13
-0.0008	0.0015	-0.0143	0.003	-13.1
-0.0008	0.0015	-0.0158	0.0052	-13.1
-0.0015	0.0015	-0.0165	0.0052	-13.1
0.0007	-0.0008	-0.0165	0.0037	-13.2
0.0015	-0.0008	-0.0165	0.0015	-13.2
-0.0008	-0.0023	-0.0165	0.0007	-13.3
-0.003	-0.003	-0.0165	0	-13.3
-0.0015	-0.003	-0.0181	-0.0023	-13.4
-0.0015	-0.0046	-0.0203	-0.003	-13.5
-0.0015	-0.003	-0.0181	-0.0046	-13.5
-0.003	-0.0038	-0.015	-0.0046	-13.5
-0.0038	-0.0046	-0.0158	-0.0023	-13.5
-0.0038	-0.003	-0.0158	-0.0015	-13.5
-0.0038	-0.0015	-0.0143	0.0007	-13.6
-0.003	-0.0015	-0.0128	-0.0015	-13.6
-0.0038	-0.0046	-0.0143	0	-13.7
-0.003	-0.0053	-0.0128	0.0015	-13.7
-0.0023	-0.0046	-0.0105	-0.0008	-13.7
-0.003	-0.0046	-0.0105	0	-13.8
-0.003	-0.0046	-0.0128	-0.0015	-13.8
-0.0015	-0.006	-0.0165	0.0007	-13.9
-0.0015	-0.0053	-0.0181	0	-13.9
-0.0015	-0.0038	-0.0181	-0.0008	-13.9
-0.0008	-0.003	-0.0195	0.0007	-14
0	-0.0015	-0.0195	-0.0015	-14
0.0007	-0.0015	-0.0173	-0.003	-14
0.0007	-0.0008	-0.0165	-0.0008	-14
0.0007	-0.0008	-0.0158	-0.0008	-14.1
0.0007	-0.0015	-0.0143	0.0007	-14.2
-0.0008	0.0007	-0.015	0.003	-14.2
-0.0008	0.0007	-0.0143	0.003	-14.2
-0.0015	0.0007	-0.0128	0.0037	-14.2
-0.003	0.0015	-0.0143	0.0015	-14.3
-0.0046	0.0007	-0.0143	0.003	-14.3
-0.0046	0.0007	-0.015	0.0067	-14.3
-0.0046	0.0015	-0.0143	0.0045	-14.4
-0.0046	0.0015	-0.0143	0.0045	-14.4
-0.0038	0.0007	-0.015	0.0007	-14.4
-0.0046	0.0007	-0.0158	-0.0023	-14.4
-0.0046	0.0007	-0.0158	-0.0068	-14.4
-0.0068	-0.0023	-0.0158	-0.0075	-14.5
-0.0075	-0.0008	-0.0173	-0.0068	-14.5
-0.0091	-0.0015	-0.0181	-0.0083	-14.5
-0.0091	-0.0038	-0.0188	-0.0046	-14.6
-0.0068	-0.0015	-0.0173	-0.0015	-14.6
-0.0053	0	-0.0165	0.0007	-14.6
-0.003	0.0015	-0.0181	0.0037	-14.7
-0.0023	-0.0008	-0.0195	0.0052	-14.7
-0.0008	-0.0023	-0.0203	0.009	-14.8
-0.0015	-0.0015	-0.0173	0.0097	-14.8
-0.0015	-0.0015	-0.0143	0.0082	-14.8
-0.0008	-0.0015	-0.0158	0.003	-14.9
-0.0008	-0.0015	-0.0165	0.0015	-14.9
-0.0008	-0.0008	-0.0158	0.003	-14.9
-0.0015	0.0007	-0.0158	0.0045	-14.9
-0.0008	-0.0008	-0.015	0.006	-15
-0.0008	-0.0008	-0.0158	0.0075	-15
-0.0015	-0.0008	-0.0181	0.0067	-15.1
-0.0008	-0.0008	-0.0195	0.006	-15.1
-0.0015	-0.0015	-0.0181	0.0037	-15.1
-0.0008	0	-0.0158	0	-15.2
0.003	0	-0.0143	-0.0008	-15.2
0.0015	-0.0008	-0.015	-0.0015	-15.3
-0.0015	0.0015	-0.0143	-0.0023	-15.3
0.0007	0.0015	-0.0135	-0.003	-15.3
0.0007	0	-0.0143	-0.0046	-15.3
-0.0008	-0.0008	-0.0135	-0.003	-15.4
-0.0015	-0.0015	-0.0135	-0.003	-15.4
-0.003	-0.003	-0.0165	-0.0023	-15.5
-0.003	-0.0015	-0.0165	-0.0008	-15.5
-0.0008	0	-0.015	0.0015	-15.6
0.0007	-0.0008	-0.015	0.003	-15.6
0	-0.0008	-0.0158	0.0007	-15.7
-0.0015	-0.0008	-0.0165	-0.0023	-15.8
-0.003	-0.0015	-0.0165	-0.0015	-15.8
-0.0038	-0.0015	-0.0143	-0.003	-15.8
-0.0023	-0.0023	-0.0135	-0.003	-15.9
-0.0015	-0.0008	-0.0143	-0.0015	-15.9
-0.0008	-0.0015	-0.0143	-0.0023	-16
-0.0038	0.0007	-0.012	0.0007	-16.1
-0.0046	0.003	-0.012	0.0045	-16.1
-0.0053	0.0022	-0.0128	0.0045	-16.2
-0.006	0.0007	-0.0128	0.0045	-16.2
-0.0046	0.0007	-0.015	0.003	-16.2
-0.003	0	-0.0173	0.0015	-16.3
-0.0046	0.0007	-0.0188	0.003	-16.4
-0.0068	0	-0.0195	0.0045	-16.4
-0.0046	0.0007	-0.0181	0.0037	-16.5
-0.0046	0.003	-0.0173	0.003	-16.6
-0.0068	0.003	-0.0165	0.0045	-16.6
-0.0053	0.0015	-0.0165	0.0045	-16.7
-0.0053	-0.0008	-0.0203	0.0022	-16.7
-0.0046	-0.0008	-0.0218	0.0015	-16.8
-0.0038	-0.003	-0.0218	-0.0008	-16.8
-0.0046	-0.0038	-0.0195	-0.0046	-16.9
-0.0008	-0.0053	-0.0195	-0.0053	-17
-0.003	-0.0046	-0.0203	-0.0053	-17
-0.0046	-0.0046	-0.0165	-0.0046	-17.1
-0.0023	-0.0053	-0.0143	-0.0068	-17.1
-0.0053	-0.006	-0.0143	-0.0053	-17.2
-0.0038	-0.0046	-0.0165	-0.0046	-17.3
-0.0023	-0.003	-0.0188	-0.0038	-17.3
-0.0023	-0.0008	-0.012	-0.0023	-17.4
-0.0008	0.0007	-0.0105	-0.006	-17.5
-0.0015	-0.0008	-0.0128	-0.003	-17.5
-0.003	0.0015	-0.0143	0	-17.6
-0.0046	0.003	-0.0173	-0.0023	-17.6
-0.0015	0.0007	-0.0173	-0.0008	-17.7
-0.0046	-0.0008	-0.0173	-0.0008	-17.8
-0.0053	-0.0038	-0.0181	-0.0083	-17.8
-0.0053	-0.006	-0.0158	-0.0158	-17.9
-0.0046	-0.0053	-0.0128	-0.0128	-18
-0.0015	-0.003	-0.012	-0.006	-18
-0.0008	0	-0.0083	-0.003	-18.1
-0.0008	0	-0.006	-0.0008	-18.2
-0.0008	-0.0008	-0.0083	-0.0015	-18.2
0.0007	-0.0008	-0.0128	0.0007	-18.3
-0.0015	-0.0023	-0.0158	0	-18.4
-0.0023	-0.003	-0.0225	0	-18.5
-0.0023	-0.0015	-0.0263	-0.0008	-18.5
-0.0046	0	-0.0218	-0.003	-18.6
-0.0015	0.0007	-0.0233	-0.0023	-18.7
-0.0023	0.0015	-0.0218	-0.0046	-18.7
-0.0008	0.0015	-0.0195	-0.0068	-18.8
0.0015	0.0007	-0.0195	-0.0083	-18.9
-0.0015	0.0015	-0.0165	-0.0083	-18.9
-0.003	-0.0008	-0.0165	-0.0053	-19
-0.0068	-0.003	-0.0173	-0.003	-19.1
-0.0046	-0.0015	-0.0195	-0.0008	-19.2
-0.0053	-0.0015	-0.0181	0.0007	-19.2
-0.0053	-0.0023	-0.0135	0.0015	-19.3
-0.0008	-0.0008	-0.0128	0.0045	-19.3
-0.0008	-0.003	-0.0128	0.0037	-19.4
-0.0015	-0.006	-0.0135	0.003	-19.4
-0.003	-0.0068	-0.015	0.0037	-19.5
-0.0008	-0.0046	-0.0158	0.0067	-19.6
0.0037	-0.0008	-0.015	0.0052	-19.7
0.0052	0.0015	-0.0158	0.0067	-19.7
0.0045	0.003	-0.0105	0.009	-19.8
0.0015	0.003	-0.0135	0.009	-19.8
-0.003	0.0007	-0.0195	0.0097	-19.9
-0.0098	0.0007	-0.0203	0.0067	-20
-0.0091	-0.0008	-0.0225	0.0045	-20
-0.0068	-0.003	-0.021	0.0015	-20.1
-0.0091	-0.0038	-0.0203	0	-20.2
-0.0083	-0.0015	-0.0173	0	-20.3
-0.0068	-0.0038	-0.0173	-0.003	-20.3
-0.0053	-0.003	-0.0173	-0.003	-20.4
-0.0053	-0.003	-0.0165	-0.0015	-20.5
-0.0053	-0.0053	-0.0158	-0.0008	-20.5
-0.0046	-0.003	-0.0143	-0.0023	-20.5
-0.0053	-0.0008	-0.0105	0.0007	-20.6
-0.0053	0.0007	-0.0105	0.0015	-20.7
-0.0038	-0.0008	-0.0143	-0.0015	-20.7
-0.0015	-0.0008	-0.0165	-0.0008	-20.7
-0.0008	-0.0008	-0.0181	0	-20.8
-0.0015	-0.0015	-0.0158	0	-20.9
-0.0008	-0.0023	-0.0158	0.0015	-20.9
-0.0008	-0.0015	-0.0173	0.0037	-21
-0.0008	-0.0015	-0.0165	0.0052	-21.1
-0.003	-0.0023	-0.0173	0.0052	-21.1
-0.006	-0.003	-0.0165	0.0015	-21.2
-0.0008	-0.0038	-0.0143	-0.0008	-21.2
-0.0008	-0.003	-0.0143	0.0007	-21.3
0	-0.0015	-0.0143	0.0015	-21.3
0.0007	-0.003	-0.0143	0.0007	-21.4
0.0015	-0.0038	-0.0135	0.0007	-21.5
0.003	-0.003	-0.012	0.0007	-21.5
0.0007	-0.0015	-0.0143	-0.0008	-21.6
0.0007	0	-0.0173	0.0007	-21.6
0.0022	0.0007	-0.0158	0.0037	-21.6
0.003	0.003	-0.0128	0.0067	-21.7
0.0015	0.0052	-0.0143	0.0082	-21.8
0	0.0052	-0.0143	0.0045	-21.8
-0.0023	0.003	-0.0158	0.0007	-21.9
-0.0038	0.0015	-0.0158	-0.0008	-22
-0.0046	0.003	-0.0158	-0.0008	-22
-0.003	0.0015	-0.0195	-0.003	-22.1
-0.0038	0.0015	-0.0181	-0.0053	-22.1
-0.003	0.003	-0.0165	-0.0053	-22.2
-0.0008	0.0015	-0.0158	-0.0068	-22.2
-0.003	-0.0008	-0.0158	-0.0075	-22.3
-0.0053	-0.0038	-0.0158	-0.0075	-22.4
-0.0075	-0.0038	-0.0143	-0.0053	-22.4
-0.006	-0.003	-0.0158	-0.0038	-22.5
-0.0053	-0.0015	-0.0143	-0.0046	-22.5
-0.0068	-0.0015	-0.0158	-0.0038	-22.6
-0.0083	-0.003	-0.0143	-0.0015	-22.6
-0.0083	-0.0023	-0.0158	0.0007	-22.7
-0.0068	-0.0038	-0.0181	0.0015	-22.7
-0.0083	-0.0046	-0.0165	0.0045	-22.8
-0.0053	-0.0015	-0.0181	0.0082	-22.8
-0.006	-0.0023	-0.0203	0.009	-22.9
-0.0053	-0.0023	-0.0195	0.0082	-23
-0.0015	-0.0038	-0.0158	0.0015	-23
-0.0008	-0.0038	-0.0135	-0.003	-23
0.003	-0.003	-0.0128	-0.0046	-23.1
0	-0.003	-0.0143	-0.0053	-23.1
-0.0008	-0.0023	-0.0158	-0.0008	-23.2
0.0015	-0.0046	-0.0158	0.0015	-23.3
-0.0008	-0.0023	-0.0158	0.0015	-23.3
-0.0008	-0.003	-0.0165	0.003	-23.4
-0.0015	-0.003	-0.0181	0.0052	-23.4
-0.003	0.0015	-0.0173	0.0082	-23.4
-0.0046	0	-0.0165	0.0082	-23.5
-0.0038	-0.0023	-0.0158	0.0067	-23.6
-0.003	-0.003	-0.0165	0.003	-23.6
-0.0068	-0.003	-0.0188	0.0007	-23.7
-0.0068	-0.003	-0.021	-0.0015	-23.8
-0.0075	-0.0015	-0.0218	-0.0046	-23.8
-0.0083	-0.0008	-0.0203	-0.0046	-23.9
-0.0053	0	-0.0195	-0.0008	-23.9
-0.0068	0.0015	-0.0195	0.0007	-23.9
-0.006	0	-0.0188	0.003	-24
-0.0015	0	-0.0158	0.0045	-24.1
-0.0015	0.0007	-0.012	0.006	-24.1
-0.0008	0.0007	-0.0105	0.0067	-24.2
0	0.0015	-0.012	0.0022	-24.3
-0.0008	0.0007	-0.0158	-0.0015	-24.3
-0.0008	0.0007	-0.015	-0.0015	-24.3
-0.0008	0.0007	-0.0128	-0.0038	-24.4
-0.0008	-0.0023	-0.0135	-0.0128	-24.5
-0.0015	-0.0046	-0.0128	-0.0203	-24.5
-0.0015	-0.003	-0.0158	-0.0195	-24.6
-0.0008	-0.0038	-0.0158	-0.0195	-24.7
-0.003	-0.0053	-0.0135	-0.0188	-24.7
-0.0015	-0.0046	-0.0165	-0.012	-24.8
-0.0015	-0.0015	-0.0195	-0.0053	-24.8
0	-0.003	-0.0181	-0.0008	-24.9
0.0007	-0.0023	-0.015	0.0082	-24.9
0.0007	0.0007	-0.0143	0.0067	-25
0.0007	-0.0015	-0.0128	-0.0015	-25
-0.0008	-0.003	-0.0143	-0.0023	-25.1
0.0015	-0.003	-0.0128	0	-25.2
0.0007	-0.0046	-0.0165	0.0007	-25.2
-0.0008	-0.0046	-0.0203	-0.003	-25.2
-0.0015	-0.0046	-0.0181	-0.0015	-25.3
0	-0.0015	-0.0165	0.0045	-25.3
0.0007	0.0015	-0.012	0.0075	-25.4
-0.0008	0.0015	-0.0128	0.0142	-25.4
0	0.0015	-0.0158	0.018	-25.5
-0.0015	-0.0015	-0.0158	0.0217	-25.5
-0.003	-0.0008	-0.0173	0.0292	-25.6
-0.0068	0.0015	-0.0158	0.0232	-25.7
-0.0091	0.0007	-0.015	0.0142	-25.7
-0.0091	-0.0008	-0.0165	0.0112	-25.7
-0.0091	-0.0015	-0.0195	0.0135	-25.8
-0.0075	-0.003	-0.0188	0.0127	-25.8
-0.0068	-0.0015	-0.0195	0.009	-25.9
-0.003	-0.003	-0.0195	0.003	-25.9
-0.0046	-0.0015	-0.0195	-0.0015	-25.9
-0.0023	0.0007	-0.0188	-0.0046	-26
-0.0008	-0.0008	-0.0165	-0.0068	-26
-0.0008	0	-0.0158	-0.0053	-26.1
-0.0008	-0.0008	-0.012	-0.0046	-26.1
-0.0008	-0.0008	-0.0128	-0.0046	-26.1
0.0015	0	-0.0158	-0.0053	-26.1
0	-0.0015	-0.0143	-0.003	-26.2
-0.0008	0	-0.0158	0.0037	-26.2
-0.0015	0.003	-0.0158	0.0127	-26.2
-0.003	0.0022	-0.0165	0.015	-26.3
-0.0015	0	-0.0158	0.0127	-26.3
-0.003	-0.0008	-0.012	0.012	-26.4
-0.006	-0.003	-0.0105	0.006	-26.4
-0.0046	-0.0053	-0.0098	0.0007	-26.4
-0.0038	-0.0046	-0.0128	-0.003	-26.5
-0.0053	-0.0023	-0.015	-0.0046	-26.5
-0.0038	-0.0015	-0.0158	-0.003	-26.5
-0.003	-0.0015	-0.0158	-0.0053	-26.6
-0.003	-0.0015	-0.0158	-0.0068	-26.6
-0.003	0.0007	-0.0165	-0.0083	-26.6
-0.0015	0.0022	-0.0158	-0.0105	-26.6
-0.0015	0.0015	-0.0165	-0.0128	-26.6
-0.0008	-0.0008	-0.0218	-0.0143	-26.7
-0.0008	0	-0.0203	-0.015	-26.7
-0.0038	-0.0015	-0.0188	-0.0053	-26.7
-0.0015	-0.0008	-0.0203	0.0045	-26.8
-0.0008	0.0015	-0.0181	0.0052	-26.8
-0.0008	-0.0008	-0.0165	0.0045	-26.8
-0.0015	-0.0015	-0.0158	-0.0015	-26.9
-0.003	-0.0053	-0.0181	-0.0053	-26.9
-0.0008	-0.0068	-0.0173	-0.0068	-26.9
0	-0.003	-0.0181	-0.0046	-26.9
0.0007	-0.0038	-0.0165	-0.0015	-27
0	-0.0046	-0.0143	0.0007	-27
0.0015	-0.0023	-0.0105	0.003	-27
0	0	-0.006	0.012	-27
-0.0008	0.0007	-0.0075	0.0217	-27
0.0007	0.0007	-0.0098	0.0255	-27.1
-0.003	0.0007	-0.0128	0.021	-27.1
-0.003	-0.0008	-0.0135	0.015	-27.2
-0.0038	0.0007	-0.012	0.0097	-27.2
-0.0046	-0.0008	-0.0143	0.0015	-27.2
-0.0053	-0.0015	-0.015	-0.0053	-27.3
-0.0068	-0.0023	-0.0181	-0.0105	-27.3
-0.0083	-0.0015	-0.0203	-0.0143	-27.4
-0.0068	-0.0046	-0.0225	-0.0218	-27.4
-0.0053	-0.0068	-0.0218	-0.0203	-27.5
-0.0053	-0.0038	-0.0195	-0.0128	-27.5
-0.0068	-0.0008	-0.0203	0.0037	-27.5
-0.0053	0.006	-0.0188	0.0307	-27.5
-0.0053	0.009	-0.0158	0.0352	-27.6
-0.0053	0.0082	-0.0143	0.0277	-27.6
-0.0046	0.0045	-0.012	0.021	-27.7
-0.006	-0.0015	-0.0165	0.012	-27.7
-0.0053	-0.0053	-0.0218	0.0037	-27.7
-0.0053	-0.0105	-0.0256	0.0052	-27.8
-0.006	-0.0091	-0.024	0.0045	-27.8
-0.0053	-0.0068	-0.0218	0.003	-27.9
-0.003	-0.0068	-0.021	0.006	-27.9
-0.0046	-0.0046	-0.0158	0.006	-27.9
-0.0083	-0.003	-0.015	0.006	-28
-0.0091	-0.0008	-0.0128	0.003	-28
-0.0068	-0.0008	-0.0113	0.0007	-28.1
-0.006	0.0007	-0.0128	-0.0015	-28.1
-0.0053	0.0007	-0.0135	-0.0053	-28.1
-0.003	-0.0008	-0.0143	-0.0075	-28.2
-0.003	-0.0015	-0.0158	-0.0135	-28.2
-0.0008	-0.0008	-0.0165	-0.0173	-28.3
-0.0023	0	-0.015	-0.0158	-28.3
-0.0008	-0.0008	-0.0128	-0.0158	-28.4
0.0015	0.0007	-0.0128	-0.0143	-28.4
0.003	0.0015	-0.0143	-0.0091	-28.4
0.0015	0.0015	-0.012	-0.003	-28.5
0.0007	0.0007	-0.0128	0	-28.5
0.0022	0.0015	-0.015	0.0045	-28.5
0.0015	0.0015	-0.0143	0.003	-28.6
-0.0015	-0.0015	-0.0143	-0.0008	-28.6
-0.0046	-0.0023	-0.0158	0.003	-28.7
-0.0046	-0.0015	-0.0173	0.0037	-28.7
-0.0046	-0.0023	-0.0173	-0.0015	-28.8
-0.0023	-0.0038	-0.0181	-0.0105	-28.8
-0.003	-0.0068	-0.0165	-0.0173	-28.8
-0.003	-0.0091	-0.012	-0.0143	-28.9
-0.003	-0.0098	-0.012	-0.0158	-28.9
-0.003	-0.0098	-0.0128	-0.0203	-28.9
-0.0023	-0.0083	-0.0143	-0.0203	-29
-0.003	-0.0068	-0.0181	-0.0188	-29
-0.0015	-0.0015	-0.0218	-0.0143	-29.1
-0.003	-0.0015	-0.0218	-0.0075	-29.1
-0.0008	-0.0008	-0.024	-0.0046	-29.2
-0.0008	-0.0015	-0.0203	-0.0098	-29.2
-0.0015	-0.0038	-0.0165	-0.0158	-29.3
-0.003	-0.003	-0.0203	-0.0083	-29.3
-0.0008	0.0015	-0.0181	0.0015	-29.3
0.0007	0.0105	-0.015	0.0045	-29.3
0.0007	0.0135	-0.0128	0.0045	-29.4
0.003	0.0082	-0.0113	0.0105	-29.4
-0.0008	0.0067	-0.0135	0.0307	-29.5
-0.0015	0.012	-0.0128	0.054	-29.5
-0.003	0.0082	-0.0181	0.0667	-29.5
-0.0046	0.0015	-0.0233	0.0517	-29.6
-0.0046	0.0015	-0.024	0.0367	-29.6
-0.0053	-0.0015	-0.0225	0.027	-29.7
-0.0046	-0.006	-0.0165	0.0075	-29.7
-0.003	-0.0068	-0.012	-0.0008	-29.7
-0.0015	-0.0091	-0.0105	-0.0053	-29.7
-0.003	-0.0105	-0.012	-0.0098	-29.8
-0.003	-0.0053	-0.0143	-0.0083	-29.8
-0.0015	-0.0008	-0.0128	0.0075	-29.8
-0.0015	0.0052	-0.0135	0.0082	-29.9
0	0.0105	-0.0181	-0.0165	-29.9
0	0.0015	-0.0203	-0.0405	-30
-0.003	0.0045	-0.0188	-0.0511	-30
-0.0046	0.009	-0.0143	-0.0315	-30
-0.0053	-0.003	-0.015	-0.0323	-30.1
-0.0046	-0.0143	-0.0173	-0.0473	-30.1
-0.003	-0.0181	-0.0173	-0.0428	-30.1
-0.0015	-0.0105	-0.0188	-0.0428	-30.2
-0.0015	-0.0068	-0.0225	-0.0443	-30.2
-0.0008	-0.006	-0.0233	-0.0428	-30.2
0.0007	-0.0053	-0.0218	-0.0293	-30.3
0.0007	-0.006	-0.0181	-0.0068	-30.3
0.0015	-0.0015	-0.0128	0.0127	-30.4
-0.0015	-0.0008	-0.0113	0.0277	-30.4
-0.0046	0.003	-0.0105	0.0397	-30.5
-0.0046	0.0067	-0.006	0.03	-30.5
-0.0091	0.0045	-0.0068	0.0007	-30.6
-0.0105	-0.0015	-0.0068	-0.0075	-30.6
-0.0105	-0.0053	-0.0113	-0.0008	-30.6
-0.0091	-0.0053	-0.0128	0.0015	-30.6
-0.0068	-0.0053	-0.015	0.003	-30.7
-0.0075	-0.0046	-0.0181	0.006	-30.7
-0.0091	-0.0053	-0.015	0.003	-30.8
-0.006	-0.0053	-0.0158	-0.0083	-30.8
-0.0046	-0.0046	-0.0181	-0.0173	-30.9
-0.003	-0.0075	-0.0188	-0.0203	-30.9
-0.0015	-0.0068	-0.0188	-0.0128	-31
-0.0008	-0.0015	-0.0181	-0.0038	-31.1
0.0007	0.0022	-0.0173	0.0045	-31.1
0	0.0015	-0.015	0.0135	-31.1
0.0007	-0.003	-0.0181	0.0217	-31.1
-0.0008	-0.006	-0.0218	0.0067	-31.1
-0.0008	-0.0091	-0.0225	-0.0173	-31.2
-0.0008	-0.0098	-0.0233	-0.027	-31.2
-0.0015	-0.006	-0.0218	-0.0158	-31.3
-0.0008	0.0022	-0.0165	0.0015	-31.3
-0.0015	0.0045	-0.0158	0.0112	-31.4
-0.003	0.0045	-0.0143	0.024	-31.4
-0.0046	0.0045	-0.015	0.0255	-31.4
-0.0046	0.0015	-0.0165	0.027	-31.5
-0.003	0.003	-0.0195	0.0232	-31.5
-0.0008	0.0045	-0.021	0.0082	-31.5
0.0007	0.0007	-0.0165	0.0045	-31.6
0.003	-0.0105	-0.012	-0.0008	-31.6
0.0037	-0.021	-0.0135	-0.006	-31.6
0.003	-0.0256	-0.0165	0.003	-31.7
0.0015	-0.0195	-0.0173	0.006	-31.7
-0.0015	-0.0083	-0.0165	0.012	-31.8
-0.0008	0.003	-0.0143	0.0307	-31.8
-0.0008	0.021	-0.0128	0.0292	-31.9
-0.0008	0.0292	-0.0098	0.0157	-31.9
-0.0023	0.0315	-0.0128	0.0165	-32
-0.006	0.0337	-0.0195	-0.0023	-32
-0.0083	0.009	-0.0203	-0.0443	-32
-0.0068	-0.0113	-0.0203	-0.0675	-32.1
-0.003	-0.0188	-0.0195	-0.0675	-32.1
-0.003	-0.0256	-0.0165	-0.042	-32.2
-0.0046	-0.012	-0.0203	-0.0511	-32.3
-0.0046	0.0037	-0.0188	-0.042	-32.3
-0.003	0.0157	-0.0181	-0.003	-32.4
-0.0046	0.0195	-0.0158	-0.0128	-32.4
-0.0053	0.0135	-0.0143	-0.0413	-32.4
-0.006	0.0075	-0.0135	-0.0218	-32.5
-0.0068	0.0007	-0.0091	0.0127	-32.5
-0.0046	-0.0083	-0.012	-0.0225	-32.6
-0.0038	-0.0091	-0.015	-0.021	-32.6
-0.0015	-0.012	-0.0165	0.0165	-32.7
0	-0.0195	-0.0181	0.0405	-32.8
-0.0008	-0.0218	-0.021	0.0802	-32.8
-0.003	-0.0165	-0.0195	0.063	-32.8
-0.0015	0.0052	-0.0083	0.054	-32.8
-0.0008	0.0157	-0.0046	0.0915	-32.9
0.0015	0.0127	-0.0053	0.0735	-32.9
-0.0008	0.018	-0.0105	0.0405	-32.9
-0.0046	0.0225	-0.0128	0.0157	-32.9
-0.0046	0.0217	-0.0143	-0.0068	-33
-0.0038	0.0277	-0.012	0.027	-33
0	0.033	-0.0083	0.036	-33.1
-0.003	0.0052	-0.0143	-0.0015	-33.1
-0.0083	-0.0203	-0.0165	-0.0278	-33.1
-0.0091	-0.0203	-0.0173	-0.0315	-33.2
-0.0091	-0.0195	-0.0181	-0.0015	-33.2
-0.0046	-0.0158	-0.0203	-0.015	-33.2
-0.003	-0.0165	-0.024	-0.0256	-33.3
0.0007	-0.0113	-0.0188	-0.0368	-33.3
0.003	-0.0105	-0.0188	-0.0578	-33.3
0.0015	-0.0128	-0.0181	-0.0465	-33.3
0.0037	-0.0091	-0.0181	-0.0323	-33.4
0	-0.0091	-0.0188	-0.0038	-33.4
-0.0015	-0.0053	-0.0181	-0.0015	-33.5
0	-0.0053	-0.0165	-0.0225	-33.5
-0.0023	-0.0046	-0.0135	-0.0353	-33.6
-0.003	-0.0008	-0.0128	-0.0645	-33.6
0	-0.0046	-0.0105	-0.078	-33.7
0.0007	-0.0105	-0.0128	-0.0638	-33.7
0.0015	-0.0053	-0.0143	-0.0105	-33.8
0.0007	0.015	-0.0105	0.0847	-33.8
-0.0015	0.015	-0.012	0.1057	-33.8
-0.0046	0.0022	-0.0105	0.072	-33.8
-0.0053	-0.0068	-0.0098	0.0592	-33.9
-0.0053	-0.0091	-0.0128	0.042	-33.9
-0.0046	0.0015	-0.0158	0.033	-34
-0.0015	0.0045	-0.0203	0.0645	-34
-0.0008	-0.0038	-0.0218	0.0675	-34.1
0.0015	-0.0023	-0.0188	0.0007	-34.1
0.0015	0.0045	-0.0143	-0.0263	-34.2
0	0.0045	-0.0128	-0.0181	-34.2
-0.0015	0.0015	-0.0143	-0.0368	-34.3
-0.0015	-0.0053	-0.0181	-0.0135	-34.3
0	0.003	-0.0181	0.0795	-34.4
-0.0023	0.0105	-0.0173	0.072	-34.4
-0.0046	0.009	-0.0181	-0.048	-34.5
-0.003	0.012	-0.0165	-0.0368	-34.6
0	0.0127	-0.0158	0.0292	-34.7
0.0007	0.0015	-0.015	0.0337	-34.7
0	-0.0015	-0.0181	0.0465	-34.8
-0.0015	0.0105	-0.0188	0.1132	-34.8
-0.003	0.0165	-0.0143	0.105	-34.9
-0.0046	0.0127	-0.015	0.009	-35
-0.006	-0.0068	-0.0158	-0.0233	-35
-0.0068	-0.0135	-0.0165	-0.0315	-35.1
-0.0068	-0.0135	-0.015	-0.0158	-35.1
-0.0053	-0.0105	-0.0135	-0.012	-35.2
-0.003	-0.0046	-0.0143	0.021	-35.3
-0.0015	-0.0068	-0.0158	0.0337	-35.4
-0.0015	-0.0008	-0.0158	0.0022	-35.4
-0.0015	0.0127	-0.0143	0.006	-35.5
-0.0008	0.018	-0.0173	-0.0158	-35.6
-0.003	0.0045	-0.0143	-0.024	-35.6
-0.0068	-0.0181	-0.0165	-0.0555	-35.7
-0.0091	-0.0308	-0.0203	-0.0856	-35.8
-0.0083	-0.0315	-0.0203	-0.0788	-35.9
-0.003	-0.0165	-0.0195	-0.0848	-36
0.0007	-0.0008	-0.0158	-0.093	-36
0.0067	-0.0008	-0.015	-0.09	-36.1
0.0105	0.0007	-0.0135	-0.0315	-36.2
0.0082	0.0015	-0.0165	0.0247	-36.2
0.006	0.0052	-0.0165	0.045	-36.3
0.0007	0.0285	-0.012	0.1042	-36.4
-0.003	0.0427	-0.012	0.144	-36.5
-0.0083	0.0217	-0.0165	0.0652	-36.5
-0.0181	0.0015	-0.021	-0.0128	-36.6
-0.0165	0.0015	-0.0203	0.0112	-36.7
-0.0143	0.009	-0.0158	0.051	-36.8
-0.0105	0.0082	-0.0143	0.0217	-36.9
-0.0098	-0.0068	-0.0225	-0.0173	-36.9
-0.0105	-0.015	-0.0203	-0.0338	-37
-0.0091	-0.0233	-0.0188	-0.0518	-37.1
-0.0083	-0.0218	-0.0181	-0.0578	-37.2
-0.0053	-0.0143	-0.0143	-0.0825	-37.2
-0.0046	-0.0105	-0.0128	-0.1013	-37.3
-0.003	-0.0173	-0.0091	-0.0923	-37.4
-0.003	-0.024	-0.0105	-0.0735	-37.4
-0.0015	-0.0218	-0.0158	-0.0346	-37.5
-0.0015	-0.0158	-0.0218	0.0645	-37.6
-0.003	0.0022	-0.024	0.1777	-37.7
0	0.009	-0.0233	0.1447	-37.8
0.0015	0.009	-0.021	-0.0068	-37.8
0.0045	-0.0015	-0.0128	-0.054	-37.9
0.0022	-0.0203	-0.0105	-0.0721	-38
0.003	-0.0233	-0.012	-0.1028	-38
0.0052	-0.039	-0.0135	-0.1088	-38.1
0.0052	-0.0691	-0.0195	-0.111	-38.2
0.0067	-0.0683	-0.021	-0.0488	-38.3
0.0075	-0.0346	-0.0195	0.0217	-38.3
0.0082	0.0037	-0.0203	0.048	-38.4
0.0022	0.0525	-0.0181	0.1057	-38.5
-0.0023	0.135	-0.0113	0.189	-38.6
-0.0053	0.1372	-0.0105	0.0825	-38.7
-0.0113	0.039	-0.0181	0.0195	-38.7
-0.012	0.0007	-0.0165	0.0307	-38.8
-0.0083	-0.0068	-0.0143	-0.024	-38.9
-0.006	-0.012	-0.0203	0.0037	-39
-0.0038	-0.003	-0.0203	0.0022	-39.1
-0.0008	-0.0113	-0.0203	-0.012	-39.2
-0.0008	-0.0083	-0.021	-0.0548	-39.3
0.0007	-0.0195	-0.0225	-0.0706	-39.4
0.0015	-0.0158	-0.0218	-0.0428	-39.5
0.0022	-0.0068	-0.0203	-0.0293	-39.5
0.0022	-0.0091	-0.0158	-0.0165	-39.6
0.003	-0.0173	-0.0091	-0.0143	-39.7
0.0045	-0.0263	-0.0083	0.0277	-39.8
0.0045	-0.0075	-0.0105	0.06	-39.9
-0.0015	0.0082	-0.0143	0.0742	-40
-0.0046	0.0217	-0.0158	0.0517	-40.1
-0.0046	0.0315	-0.0105	0.012	-40.1
-0.006	0.024	-0.0158	-0.0278	-40.2
-0.012	-0.003	-0.0218	-0.0608	-40.4
-0.015	-0.0105	-0.0203	-0.0803	-40.4
-0.0105	-0.0038	-0.0173	-0.0495	-40.5
-0.0068	-0.0105	-0.0113	0.0667	-40.6
-0.003	0.0045	-0.0068	0.0855	-40.7
-0.0015	0.012	-0.0098	-0.0233	-40.8
-0.0008	0.0067	-0.0105	-0.0691	-40.9
-0.0015	0.0015	-0.0158	-0.0495	-41
-0.0015	-0.003	-0.0135	0.0165	-41
-0.0008	-0.0075	-0.0105	0.093	-41.1
0	-0.0128	-0.0135	0.1125	-41.3
0.0015	-0.0285	-0.0128	0.0952	-41.4
0.0007	-0.0413	-0.0143	0.0052	-41.4
-0.0008	-0.0346	-0.0158	-0.084	-41.5
0	-0.0158	-0.0158	-0.0975	-41.6
0.0015	0.0262	-0.015	-0.0511	-41.7
-0.0015	0.0277	-0.0188	0.042	-41.8
-0.0023	0.0292	-0.0203	0.0457	-41.9
-0.0015	0.0615	-0.0203	0.0105	-42
-0.0053	0.0405	-0.0195	0.0307	-42.1
-0.0046	0.0015	-0.0158	0.0255	-42.2
-0.0083	-0.0188	-0.0181	0.0232	-42.3
-0.0091	-0.0195	-0.0203	-0.0046	-42.3
-0.0053	-0.0248	-0.0158	-0.0091	-42.4
-0.0015	-0.0218	-0.0091	0.033	-42.5
0.0007	0.0052	-0.0075	0.0307	-42.6
-0.0008	0.0202	-0.0113	-0.0098	-42.7
-0.0046	0.0105	-0.0128	-0.0413	-42.8
-0.0053	0.003	-0.0135	-0.0375	-42.8
-0.0068	-0.0023	-0.0165	-0.0405	-42.9
-0.0113	-0.0098	-0.0188	-0.0555	-43
-0.0075	-0.03	-0.024	-0.0788	-43.1
-0.0075	-0.0511	-0.0203	-0.09	-43.2
-0.0053	-0.027	-0.012	-0.0698	-43.3
-0.003	-0.0165	-0.0143	-0.033	-43.4
-0.0023	-0.0135	-0.0158	-0.0233	-43.5
-0.0008	-0.0008	-0.0165	0.0007	-43.5
-0.0008	0.006	-0.0158	0.0375	-43.6
-0.0015	0.0067	-0.0158	0.027	-43.7
-0.003	-0.0015	-0.0143	-0.0038	-43.8
-0.003	-0.0008	-0.0105	-0.0135	-43.9
-0.0046	-0.0068	-0.012	0.0277	-44
-0.006	0.0015	-0.0158	0.0877	-44.1
-0.0068	0.006	-0.0203	0.0915	-44.1
-0.0068	0.0015	-0.0181	0	-44.2
-0.0023	-0.0068	-0.0181	-0.0548	-44.3
-0.0008	-0.0046	-0.0158	-0.057	-44.4
0.0007	0.0082	-0.0158	-0.0578	-44.5
-0.0015	0.0045	-0.0173	-0.0195	-44.5
-0.0038	-0.003	-0.0158	-0.006	-44.6
-0.0068	-0.0068	-0.0188	-0.0181	-44.7
-0.0113	0.0045	-0.0173	0.0315	-44.8
-0.0128	0.0007	-0.0195	0.1485	-44.9
-0.0143	0.0015	-0.021	0.123	-44.9
-0.012	0.009	-0.0195	0.0277	-45
-0.0158	-0.0008	-0.021	-0.0046	-45.1
-0.0143	-0.0008	-0.0173	0.0225	-45.2
-0.0098	0.0052	-0.0173	0.0487	-45.3
-0.0053	0.0052	-0.0158	-0.0585	-45.3
0.0007	-0.0091	-0.0128	-0.0998	-45.4
0.0067	-0.0015	-0.0105	-0.0353	-45.5
0.0082	0.0022	-0.0105	-0.03	-45.6
0.0082	-0.0023	-0.0135	0.003	-45.7
0.0052	0.0165	-0.0165	0.0277	-45.8
-0.0023	0.0127	-0.0218	0.0307	-45.8
-0.0046	-0.0143	-0.0195	0.0547	-45.9
-0.0053	-0.0413	-0.0195	0.0165	-46
-0.0053	-0.0405	-0.0195	-0.0053	-46.1
-0.0038	-0.0225	-0.0195	-0.0263	-46.2
-0.006	-0.0143	-0.0225	-0.0645	-46.3
-0.0046	0.009	-0.0165	-0.015	-46.4
-0.0015	0.027	-0.015	0.1162	-46.4
-0.0046	0.009	-0.015	0.1462	-46.5
-0.003	-0.0008	-0.0158	0.0877	-46.6
0.003	0.0195	-0.0165	0.0217	-46.7
0.0052	0.0202	-0.0158	-0.0698	-46.8
0.0045	-0.006	-0.0158	-0.0721	-46.8
0.003	-0.0083	-0.0173	-0.084	-46.9
0.003	-0.0128	-0.0173	-0.0615	-47
-0.0008	-0.0188	-0.0158	-0.027	-47.1
-0.0015	-0.0128	-0.0135	-0.0315	-47.2
-0.0015	-0.0188	-0.0173	0.018	-47.3
-0.0046	-0.0053	-0.0181	0.0097	-47.3
-0.003	-0.0083	-0.0218	-0.0165	-47.4
-0.0091	-0.024	-0.027	-0.0465	-47.5
-0.0091	-0.0278	-0.0195	-0.093	-47.6
-0.0015	-0.021	-0.0105	-0.1403	-47.6
0.0052	-0.0046	-0.006	-0.1868	-47.7
0.012	-0.0083	-0.003	-0.1343	-47.8
0.0112	0	-0.0105	0.0502	-47.9
0.003	0.0427	-0.0173	0.192	-48
-0.0046	0.0592	-0.0165	0.2392	-48
-0.0105	0.0375	-0.0181	0.2272	-48.1
-0.0135	0.042	-0.0158	0.081	-48.2
-0.012	0.0352	-0.0105	-0.0533	-48.3
-0.0083	-0.0046	-0.0091	-0.0105	-48.3
-0.0083	-0.0023	-0.0113	0.0202	-48.4
-0.0068	0.0007	-0.0128	0.0022	-48.5
-0.0053	0.0015	-0.0143	0.003	-48.6
-0.0038	0.0022	-0.0113	-0.0173	-48.6
0.0007	-0.0195	-0.0098	-0.0308	-48.8
0.0015	-0.0195	-0.0113	-0.057	-48.8
0.003	-0.024	-0.0113	-0.0788	-48.9
0.0067	-0.024	-0.0113	-0.111	-49
0.009	-0.015	-0.0128	-0.0871	-49
0.0075	-0.0068	-0.0195	-0.0346	-49.1
0.0067	-0.0046	-0.0143	-0.0053	-49.2
0.0052	-0.0128	-0.0105	0.0652	-49.2
-0.0015	-0.0181	-0.0173	0.0892	-49.3
-0.0105	-0.0315	-0.0218	0.042	-49.4
-0.0143	-0.0203	-0.021	0.0045	-49.5
-0.0098	0.0427	-0.0195	-0.0158	-49.5
-0.0053	0.0592	-0.0225	0.0225	-49.6
-0.0053	0.0187	-0.027	0.1342	-49.7
-0.0046	0.009	-0.0256	0.1012	-49.7
-0.0015	0.0142	-0.0233	0.063	-49.8
-0.0038	0.015	-0.0181	0.069	-49.9
-0.0015	-0.0015	-0.0128	-0.0315	-50
0.0007	-0.0165	-0.0158	-0.084	-50
0.0007	-0.0143	-0.0158	-0.0623	-50.1
0.0015	-0.0128	-0.012	-0.0436	-50.2
0.0015	-0.0128	-0.0113	-0.039	-50.3
0.003	-0.0068	-0.0083	-0.0428	-50.3
0.003	0.0037	-0.0091	-0.0953	-50.4
0.0045	-0.0053	-0.0105	-0.156	-50.5
0.0067	-0.0165	-0.0128	-0.1381	-50.5
0.0067	-0.0203	-0.0128	-0.015	-50.6
0.003	-0.0015	-0.0181	0.0577	-50.7
-0.006	0.0195	-0.0285	0.0817	-50.8
-0.0165	0.0135	-0.0293	0.18	-50.9
-0.0181	0.0015	-0.0256	0.15	-50.9
-0.0165	-0.0068	-0.0165	0.0457	-51
-0.0143	-0.0008	-0.0128	0.063	-51.1
-0.0158	-0.0083	-0.0158	0.0345	-51.1
-0.0173	0	-0.0158	0.0457	-51.2
-0.0135	0.0127	-0.0165	0.0532	-51.3
-0.0105	0.0022	-0.0165	-0.006	-51.3
-0.0105	-0.0083	-0.0165	-0.0308	-51.4
-0.0083	-0.0181	-0.0143	-0.0856	-51.5
-0.0053	-0.0248	-0.0113	-0.0938	-51.6
-0.0015	-0.0218	-0.0105	-0.048	-51.7
-0.0008	-0.0091	-0.0113	-0.0113	-51.8
-0.003	0.0105	-0.0143	-0.0256	-51.8
-0.003	0.0157	-0.0165	0.0135	-51.9
-0.0038	-0.0143	-0.0203	0.0105	-52
-0.0046	-0.0158	-0.0181	-0.1065	-52.1
-0.0015	-0.0135	-0.0128	-0.159	-52.2
0.003	-0.0248	-0.0091	-0.1335	-52.2
0.0105	0.0022	-0.0053	-0.0353	-52.3
0.009	0.0307	-0.012	0.0862	-52.4
0	0.0405	-0.0218	0.156	-52.5
-0.0091	0.0337	-0.0256	0.1342	-52.6
-0.0143	0.0382	-0.0195	0.0577	-52.7
-0.0091	0.0202	-0.0128	-0.0046	-52.7
-0.0038	0.009	-0.0105	-0.0518	-52.8
0.0022	0.0127	-0.0068	0.0097	-52.9
0.0052	0.0187	-0.0053	0.1702	-53
0.009	0.045	-0.0075	0.2332	-53.1
0.0082	-0.0135	-0.0173	0.123	-53.1
-0.0015	-0.0706	-0.027	-0.0308	-53.2
-0.003	-0.0578	-0.027	-0.0361	-53.4
-0.0053	-0.0375	-0.0225	-0.0256	-53.4
-0.0091	0.0037	-0.0195	-0.0375	-53.5
-0.0083	0.0495	-0.0195	0.0097	-53.6
-0.0083	0.0795	-0.0181	0.033	-53.6
-0.0053	0.0592	-0.0188	0	-53.7
-0.0023	0.0112	-0.0181	-0.0405	-53.8
0.0022	-0.012	-0.0165	-0.0346	-53.9
0.0037	-0.0165	-0.0203	-0.0113	-54
0.0007	-0.0181	-0.0233	-0.0053	-54.1
0.0015	-0.0225	-0.0225	-0.0346	-54.2
0.003	-0.021	-0.0233	-0.0615	-54.2
0.0045	-0.0181	-0.0203	-0.0735	-54.3
0.0082	-0.0218	-0.0143	-0.096	-54.4
0.0127	-0.033	-0.0053	-0.1403	-54.5
0.0105	-0.0375	-0.0038	-0.1305	-54.6
0.0082	-0.0368	-0.012	-0.0758	-54.7
0.0052	-0.0158	-0.0203	-0.0518	-54.7
-0.0008	0.009	-0.0278	0.0075	-54.8
-0.0053	0.0135	-0.024	0.0345	-54.9
-0.0098	0.033	-0.0143	0.0802	-55
-0.0158	0.039	-0.0158	0.1365	-55.1
-0.0173	0.021	-0.0233	0.0525	-55.1
-0.0195	0.0157	-0.0256	-0.0338	-55.2
-0.0143	-0.0053	-0.0158	-0.0488	-55.3
-0.0091	-0.0181	-0.0128	-0.084	-55.4
-0.0091	-0.0105	-0.0135	-0.09	-55.4
-0.0068	-0.0046	-0.0083	-0.0758	-55.5
-0.003	0.0082	-0.0068	-0.0803	-55.6
-0.0015	-0.0068	-0.0075	-0.0518	-55.7
-0.0015	-0.0165	-0.0075	-0.0338	-55.8
-0.003	-0.0113	-0.0105	-0.003	-55.8
-0.003	-0.015	-0.0128	0.0052	-55.9
-0.0015	-0.015	-0.0158	-0.0488	-56
-0.0015	-0.012	-0.015	-0.0668	-56.1
0.0015	-0.0015	-0.0158	0.0067	-56.2
0.0015	0.012	-0.015	0.1252	-56.3
-0.0068	0.027	-0.0188	0.2197	-56.3
-0.015	0.0307	-0.021	0.2085	-56.4
-0.0203	0.006	-0.0233	0.084	-56.5
-0.0195	-0.0218	-0.0218	-0.0548	-56.6
-0.012	-0.015	-0.0135	-0.1215	-56.7
-0.003	0.015	-0.0158	-0.0893	-56.7
-0.0008	0.0157	-0.0165	-0.0158	-56.8
-0.0015	-0.0105	-0.0113	0.0682	-56.9
0.0045	-0.0293	-0.0128	0.0465	-57
0.0052	-0.0256	-0.0143	0.0022	-57
0.0052	-0.0098	-0.0158	0.0652	-57.1
0.0015	0.0195	-0.0195	0.0495	-57.2
-0.0008	0.0202	-0.0195	0.0112	-57.2
0.0015	0.0007	-0.021	-0.021	-57.3
0.0037	-0.006	-0.0218	-0.0248	-57.4
0.0075	-0.0105	-0.0188	0.039	-57.5
0.0067	0.0082	-0.0203	0.1005	-57.6
0.0015	0.018	-0.0165	0.0937	-57.6
-0.0015	0.0052	-0.015	0.0045	-57.7
-0.0053	0.0015	-0.015	-0.0195	-57.8
0	0.0015	-0.0105	-0.0195	-57.9
0.0022	0.003	-0.0143	-0.003	-58
0.0015	0.0007	-0.0128	-0.0218	-58
0.0045	-0.0158	-0.0128	-0.0833	-58.1
0.003	-0.024	-0.0098	-0.1035	-58.2
0.0045	-0.0293	-0.0091	-0.1193	-58.2
0.0045	-0.0398	-0.0083	-0.108	-58.3
0.0067	-0.0181	-0.0053	-0.0143	-58.4
0.0067	0.0292	-0.0098	0.0937	-58.5
0.0037	0.066	-0.0158	0.1425	-58.5
-0.0015	0.0495	-0.0218	0.1845	-58.6
-0.0083	0.0165	-0.021	0.201	-58.7
-0.0128	-0.0008	-0.0181	0.1065	-58.8
-0.0158	-0.0368	-0.0165	0.012	-58.9
-0.0143	-0.0195	-0.0128	-0.0503	-59
-0.012	0.0322	-0.012	-0.0878	-59
-0.006	0.0337	-0.0165	-0.0195	-59.1
-0.0046	0.0105	-0.0203	0.0082	-59.2
-0.0046	-0.015	-0.0158	0.018	-59.3
-0.003	-0.0181	-0.0113	-0.0083	-59.3
0	-0.0225	-0.0128	-0.042	-59.4
-0.0015	-0.0293	-0.012	-0.0105	-59.5
-0.003	-0.0248	-0.0113	-0.006	-59.5
-0.0023	-0.027	-0.0135	-0.0181	-59.7
-0.0038	-0.03	-0.015	-0.0878	-59.7
0.0037	-0.0308	-0.0068	-0.1523	-59.8
0.0075	-0.0165	-0.0023	-0.1103	-59.8
0.003	-0.0113	-0.0075	0.018	-59.9
-0.0046	0.0052	-0.0173	0.1837	-59.9
-0.0143	0.024	-0.0293	0.2632	-60
-0.0181	0.0015	-0.0233	0.0645	-60.1
-0.0143	-0.0008	-0.0173	-0.039	-60.2
-0.0105	0.0052	-0.0143	0.0727	-60.2
-0.0053	0.0082	-0.0113	0.0435	-60.3
-0.003	0.0195	-0.0128	0.0502	-60.3
-0.006	0.0127	-0.0158	0.0127	-60.4
-0.0053	0.0082	-0.0225	-0.0323	-60.5
-0.0053	-0.0023	-0.0233	-0.0623	-60.5
-0.0038	-0.0128	-0.0225	-0.0938	-60.6
0.0007	-0.0165	-0.0188	-0.0511	-60.7
0.0037	-0.0181	-0.0181	-0.0675	-60.8
0.0082	-0.0233	-0.0233	-0.0975	-60.8
0.012	-0.0338	-0.0233	-0.1853	-60.9
0.018	-0.0563	-0.0218	-0.165	-61
0.021	-0.0533	-0.0188	-0.015	-61
0.0142	-0.0375	-0.024	0.0945	-61.1
0	-0.0458	-0.0278	0.165	-61.1
-0.003	0.0442	-0.0173	0.186	-61.2
-0.0008	0.141	-0.0143	0.0652	-61.2
-0.0128	0.075	-0.0256	-0.0743	-61.3
-0.0195	-0.0023	-0.027	-0.03	-61.3
-0.0128	0	-0.0225	0.0352	-61.4
-0.0091	0.0045	-0.0181	0.0232	-61.5
-0.006	-0.0023	-0.0091	-0.0518	-61.6
-0.0053	-0.0158	-0.0105	-0.0173	-61.6
-0.0053	-0.0256	-0.0135	0.0255	-61.7
-0.0046	-0.0181	-0.0128	0.0217	-61.7
-0.0053	-0.0091	-0.0143	0.0007	-61.8
-0.0091	0.0172	-0.0173	-0.0788	-61.8
-0.0091	0.0495	-0.0195	-0.0495	-61.9
-0.0075	0.018	-0.0181	-0.0195	-62
-0.0075	0.0037	-0.0128	0.033	-62
-0.0068	0.0052	-0.0165	0.075	-62.1
-0.0113	-0.0195	-0.0165	-0.0053	-62.2
-0.0105	-0.0135	-0.0128	0.0052	-62.2
-0.012	-0.0233	-0.0098	0.0817	-62.2
-0.0083	-0.0046	-0.0098	0.0037	-62.3
-0.0046	0.0052	-0.0128	-0.0315	-62.3
-0.0008	-0.0053	-0.015	-0.0413	-62.4
0.0052	-0.0008	-0.0158	-0.066	-62.5
0.0097	-0.0203	-0.0091	-0.033	-62.5
0.015	-0.0263	-0.0068	-0.0743	-62.6
0.015	-0.0263	-0.0091	-0.0953	-62.6
0.0165	-0.042	-0.0128	-0.1125	-62.6
0.012	-0.048	-0.0143	-0.1553	-62.7
0.009	-0.042	-0.0143	-0.0623	-62.7
0.003	-0.0233	-0.024	0.135	-62.8
-0.0046	0.0637	-0.027	0.225	-62.8
-0.0128	0.105	-0.0263	0.1965	-62.9
-0.0233	0.0307	-0.024	0.1275	-63
-0.021	-0.0105	-0.0173	0.0652	-63
-0.0173	0.0195	-0.0128	0.0052	-63
-0.012	0.03	-0.0113	-0.0338	-63.1
-0.0105	0.0247	-0.0143	-0.0256	-63.2
-0.0105	0.0352	-0.0113	-0.0346	-63.2
-0.0053	0.024	-0.0098	-0.0353	-63.2
-0.003	0.0097	-0.0105	-0.039	-63.3
-0.0046	-0.0068	-0.0105	-0.012	-63.3
-0.003	-0.0083	-0.0135	0.0345	-63.4
0.0015	0.0007	-0.015	-0.0128	-63.4
0.003	-0.0083	-0.0188	-0.0346	-63.5
0.003	-0.0015	-0.0188	-0.027	-63.5
0.0015	-0.0015	-0.0173	-0.0368	-63.5
0.003	-0.0128	-0.0181	-0.0413	-63.6
0.0015	-0.0248	-0.0203	-0.0691	-63.6
0.0022	-0.0315	-0.0218	-0.0743	-63.6
0.0022	-0.0203	-0.0203	-0.0473	-63.7
-0.0008	-0.0023	-0.0203	-0.0008	-63.7
-0.0053	0.0277	-0.0218	0.0352	-63.8
-0.0105	0.0352	-0.027	0.057	-63.8
-0.0105	0.0105	-0.0293	0.0157	-63.9
-0.0068	-0.012	-0.0218	-0.0293	-63.9
0.0007	-0.0113	-0.0165	0.0502	-63.9
0.0037	0.0142	-0.0143	0.111	-64
0.0037	0.0277	-0.0203	0.0787	-64
-0.0015	0.0067	-0.0256	0.0217	-64.1
-0.0046	0.012	-0.0233	-0.0165	-64.1
-0.006	0.003	-0.0218	0.0082	-64.1
-0.0068	-0.0308	-0.0203	-0.021	-64.2
-0.0046	-0.0218	-0.0203	-0.0683	-64.2
-0.0046	-0.021	-0.0165	-0.1103	-64.3
-0.003	-0.0068	-0.0128	-0.0721	-64.3
-0.0038	0.0142	-0.0128	0.018	-64.3
-0.0068	0	-0.0181	0.0195	-64.4
-0.0075	-0.0173	-0.0181	0.057	-64.4
-0.0015	-0.0225	-0.0083	0.0382	-64.4
0.0037	-0.0068	-0.0105	-0.0046	-64.4
0.0052	-0.0158	-0.0158	-0.0668	-64.5
0.0022	-0.0233	-0.0181	-0.057	-64.5
0.0015	-0.0233	-0.0203	0.0607	-64.6
-0.003	-0.0413	-0.0188	0.1747	-64.6
-0.0143	-0.0308	-0.015	0.18	-64.6
-0.0158	-0.0023	-0.0091	-0.03	-64.7
-0.0098	0.027	-0.0038	-0.057	-64.8
-0.0015	0.0855	-0.003	0.0112	-64.8
0.0015	0.063	-0.0053	0.0142	-64.8
0.0007	-0.0173	-0.0083	0.0112	-64.8
-0.0008	-0.0098	-0.0113	-0.1013	-64.8
-0.003	-0.0256	-0.0128	-0.1523	-64.9
-0.0046	-0.0038	-0.0091	-0.15	-64.9
-0.0038	0.018	-0.0046	-0.0046	-64.9
-0.0023	-0.0023	-0.0068	0.0765	-65
-0.0053	0.012	-0.0128	0.0315	-65
-0.006	-0.003	-0.0143	0.0405	-65.1
-0.0091	-0.0046	-0.0165	0.021	-65.1
-0.0091	-0.0105	-0.0143	-0.0015	-65.1
-0.0068	-0.0083	-0.0113	-0.0615	-65.2
-0.0053	-0.0053	-0.0128	-0.0608	-65.2
-0.0038	0.003	-0.0181	-0.0293	-65.2
-0.0091	-0.0091	-0.0195	-0.1313	-65.3
-0.0083	-0.0525	-0.0105	-0.1515	-65.3
-0.0038	-0.0256	-0.012	0.0082	-65.3
-0.0015	0.0255	-0.0195	0.081	-65.3
-0.0015	0.0442	-0.0233	0.138	-65.4
-0.003	0.0412	-0.0225	0.1762	-65.4
-0.0053	0.0195	-0.0173	0.1485	-65.4
-0.012	-0.0068	-0.0165	0.1522	-65.5
-0.0143	-0.0135	-0.0105	0.0705	-65.5
-0.0128	-0.0248	-0.0083	0.0225	-65.6
-0.0098	-0.0338	-0.012	-0.0563	-65.6
-0.006	0.0045	-0.0128	-0.1238	-65.6
-0.0046	0.0562	-0.012	-0.0503	-65.7
-0.003	0.0697	-0.0113	-0.0181	-65.7
-0.0053	0.0397	-0.015	0.1027	-65.7
-0.006	0.0157	-0.0158	0.0975	-65.7
-0.006	-0.0068	-0.015	0.0037	-65.8
-0.0046	-0.0233	-0.012	-0.0015	-65.8
-0.0023	-0.0315	-0.0128	-0.0518	-65.9
-0.0015	-0.0428	-0.0181	-0.0338	-65.9
0.0015	-0.0233	-0.0195	-0.0068	-65.9
0.0037	-0.0165	-0.0203	-0.0105	-66
0.0052	-0.0225	-0.0165	-0.0593	-66
0.0045	-0.0128	-0.0181	-0.039	-66
0.0022	-0.0128	-0.0195	-0.0165	-66.1
0.0082	0.0195	-0.012	-0.0361	-66.1
0.0195	0.0382	-0.0046	0.0142	-66.1
0.0157	0.0202	-0.0083	0.048	-66.2
0.003	0.0202	-0.0188	-0.012	-66.2
-0.0053	0.018	-0.0278	-0.0773	-66.2
-0.003	0.0105	-0.0278	-0.042	-66.2
0.0022	0.009	-0.0256	-0.057	-66.2
0.003	0.0202	-0.0248	0.0645	-66.2
0.003	0.033	-0.0165	0.165	-66.3
0.0015	0.0382	-0.0173	0.051	-66.3
-0.0008	0.0202	-0.0181	0.0142	-66.3
-0.0015	-0.0128	-0.0173	-0.054	-66.4
-0.0015	-0.063	-0.0203	-0.1006	-66.4
-0.003	-0.0848	-0.0203	-0.024	-66.4
0.0007	-0.0593	-0.0195	-0.0645	-66.4
0.003	-0.06	-0.0158	-0.0593	-66.5
0.0007	-0.0533	-0.0128	-0.0083	-66.5
0.0007	-0.0285	-0.0181	-0.0008	-66.5
-0.0023	-0.012	-0.0278	0.063	-66.5
-0.0083	-0.0075	-0.027	0.0142	-66.6
-0.0075	-0.0105	-0.0203	-0.0308	-66.6
-0.003	-0.0008	-0.0143	-0.0691	-66.6
-0.0008	-0.0053	-0.0143	-0.1125	-66.6
0.0022	-0.0346	-0.0143	-0.0203	-66.6
0.0052	-0.0495	-0.0083	0.093	-66.7
0.0007	-0.015	-0.0105	0.1312	-66.7
-0.0128	0.0127	-0.024	0.1177	-66.7
-0.0181	0.042	-0.024	-0.0113	-66.8
-0.0113	0.0742	-0.015	-0.0083	-66.8
-0.0083	0.0405	-0.0173	0.0772	-66.8
-0.0075	0.0202	-0.0165	0.099	-66.9
-0.0053	0.0442	-0.0143	0.1575	-66.9
-0.0046	0.0457	-0.0181	0.0652	-66.9
-0.0083	0.0217	-0.0233	-0.0256	-66.9
-0.0098	-0.0128	-0.0203	-0.081	-67
-0.0068	-0.0293	-0.0158	-0.1185	-67
-0.0038	-0.054	-0.015	-0.0743	-67
-0.0023	-0.0555	-0.0188	-0.0413	-67.1
-0.0046	-0.0293	-0.024	-0.0713	-67.1
-0.0091	-0.0203	-0.0256	-0.123	-67.1
-0.0188	-0.0008	-0.027	0.0105	-67.1
-0.0218	0.0022	-0.027	0.1365	-67.1
-0.0158	0.0007	-0.0225	0.0375	-67.2
-0.0075	0.0112	-0.0158	-0.0803	-67.2
-0.0008	0.0142	-0.0091	-0.0998	-67.2
0.0015	0.0435	-0.0083	-0.0143	-67.2
-0.0038	0.069	-0.0128	0.0255	-67.3
-0.0091	0.033	-0.0135	0.0532	-67.3
-0.003	0.0052	-0.0068	0.0607	-67.3
-0.0015	-0.0068	-0.0083	-0.0046	-67.4
-0.0008	-0.012	-0.0068	0.0052	-67.4
0.0022	-0.0008	-0.0098	-0.0218	-67.4
0.003	-0.012	-0.0143	-0.078	-67.4
0.0052	-0.0083	-0.0188	-0.0803	-67.5
0.0067	0.0037	-0.0248	-0.0405	-67.5
0.009	0.015	-0.0195	0.0315	-67.5
0.0082	-0.0083	-0.0113	0.054	-67.5
0.0082	-0.0533	0	0.0015	-67.5
0.0127	-0.0773	0.0045	-0.111	-67.5
0.0142	-0.1103	0.003	-0.1238	-67.6
0.0165	-0.06	-0.0008	0.0292	-67.6
0.0082	-0.0195	-0.0278	0.159	-67.6
-0.0075	-0.0615	-0.0458	0.192	-67.6
-0.0046	0.033	-0.0375	0.0382	-67.7
0.0045	0.1162	-0.0308	-0.1988	-67.7
-0.0008	0.0877	-0.0308	0.0277	-67.7
-0.012	0.0952	-0.0346	0.1972	-67.7
-0.0173	0.072	-0.0233	0.0337	-67.7
-0.006	0.0472	0.0007	0.0307	-67.8
0.0022	0.0285	0.0112	-0.015	-67.8
0.0052	0.003	0.0112	0.0052	-67.8
0.0045	-0.0098	0.0022	-0.0225	-67.8
-0.0038	-0.0233	0.0007	-0.063	-67.8
-0.006	-0.0443	0.0022	-0.0113	-67.9
-0.0098	-0.0675	-0.006	-0.0248	-67.9
-0.0083	-0.0638	-0.0083	-0.006	-67.9
-0.0083	-0.0585	-0.0165	-0.0278	-67.9
-0.0068	-0.0278	-0.021	-0.0578	-67.9
-0.0008	0.0015	-0.0188	-0.0578	-68
0.0045	-0.0015	-0.0203	-0.0143	-68
0.0045	-0.0091	-0.0195	-0.0113	-68
0.003	-0.0015	-0.0225	-0.0256	-68
0	0.0067	-0.021	-0.0158	-68
-0.0015	0.0135	-0.0181	-0.0293	-68
0.0052	0.0157	-0.0195	-0.0046	-68.1
0.0067	0.0105	-0.0218	0.009	-68.1
0.0052	0.009	-0.027	-0.1253	-68.1
0.009	-0.0143	-0.0293	-0.2235	-68.1
0.0082	-0.0256	-0.0263	-0.0743	-68.2
0.006	0.012	-0.0256	0.1215	-68.2
0.0082	0.051	-0.0188	0.2002	-68.2
0.0127	0.057	-0.0135	0.1042	-68.3
0.006	0.03	-0.0165	0.0847	-68.3
-0.0008	0.009	-0.0181	0.0787	-68.3
-0.006	0.0247	-0.0233	0.033	-68.3
-0.0143	0.0082	-0.0263	0.0855	-68.4
-0.0158	-0.0091	-0.0256	0.0757	-68.4
-0.015	-0.012	-0.021	0.0652	-68.4
-0.0113	-0.0308	-0.0195	0.0435	-68.4
-0.0135	-0.0195	-0.0195	0.042	-68.5
-0.012	-0.0098	-0.021	-0.003	-68.5
-0.0143	-0.0083	-0.0195	-0.0195	-68.5
-0.0165	-0.0091	-0.0135	-0.0128	-68.5
-0.012	-0.0113	-0.012	-0.0195	-68.5
-0.006	-0.0068	-0.0083	-0.0091	-68.6
-0.0015	0.0022	-0.0053	-0.0046	-68.6
-0.0038	0.0067	-0.0083	0.0262	-68.6
-0.0105	-0.012	-0.0128	0.0135	-68.7
-0.015	-0.0158	-0.0158	0.0292	-68.7
-0.0188	-0.0046	-0.012	-0.1006	-68.7
-0.0135	-0.0023	-0.0075	-0.1763	-68.8
0.0007	0.0127	-0.0046	-0.0668	-68.8
0.0052	0.0345	-0.006	-0.1006	-68.8
0.0097	0.024	-0.0091	-0.0578	-68.8
0.0067	0.0112	-0.0158	0.0442	-68.9
-0.003	-0.0015	-0.0233	0.105	-68.9
-0.0053	-0.0218	-0.0188	0.0727	-68.9
-0.006	-0.033	-0.0181	0.0262	-68.9
-0.0075	-0.0203	-0.0195	0.0315	-68.9
-0.0038	0.0307	-0.0165	-0.0683	-69
0.0022	0.0405	-0.0158	-0.0143	-69
0.0067	0.0427	-0.0113	-0.0075	-69
0.006	0.039	-0.0135	-0.0105	-69.1
0.0067	0.0127	-0.0181	0.0195	-69.1
0.0075	-0.0015	-0.0188	-0.0308	-69.2
0.0067	-0.0256	-0.0128	0.009	-69.2
0.0082	-0.0195	-0.0158	0.03	-69.2
-0.0008	-0.024	-0.0315	0.018	-69.3
-0.0165	-0.0293	-0.0405	-0.0046	-69.3
-0.0128	-0.0113	-0.0278	-0.012	-69.3
-0.0015	-0.0053	-0.0195	0.0532	-69.3
-0.0015	-0.0091	-0.0173	0.0592	-69.4
-0.0015	-0.0368	-0.0128	-0.0428	-69.4
-0.0008	-0.0691	-0.0165	-0.021	-69.5
0.0052	-0.0398	-0.015	-0.0256	-69.5
0.0052	-0.0128	-0.0083	-0.0323	-69.5
0.0045	-0.0075	-0.0053	0.0045	-69.6
0.0067	0.0135	-0.0023	0.0075	-69.6
0.006	0.0067	-0.0038	0.0382	-69.6
0.009	0.0142	-0.0068	-0.0015	-69.7
0.0067	0.0195	-0.0091	0	-69.7
0.0015	0.006	-0.0083	-0.0165	-69.7
-0.0008	0.0007	-0.0128	-0.0225	-69.8
-0.003	0.0037	-0.0143	0.003	-69.8
-0.006	0.009	-0.0181	-0.0083	-69.8
-0.0091	0.009	-0.0195	0.009	-69.8
-0.0105	0.012	-0.0135	0.0135	-69.9
-0.0083	-0.003	-0.0128	-0.0256	-69.9
-0.006	-0.0105	-0.0113	-0.033	-70
-0.0083	0.0052	-0.0158	0.0615	-70
-0.0158	0.0172	-0.0256	0.078	-70
-0.0173	0.027	-0.0263	0.0142	-70.1
-0.0195	0.021	-0.0188	-0.0173	-70.1
-0.0405	-0.0225	-0.012	-0.027	-70.2
-0.0458	-0.0405	-0.012	-0.0188	-70.2
-0.0233	-0.0233	-0.012	-0.0458	-70.2
-0.0181	-0.0068	-0.0113	-0.0825	-70.2
-0.0105	0.012	-0.0105	-0.1403	-70.3
-0.0091	0.0262	-0.012	-0.1133	-70.3
-0.0143	0.009	-0.0173	0.012	-70.4
-0.0083	-0.012	-0.0203	0.1102	-70.4
-0.0083	-0.0113	-0.0256	0.0825	-70.4
-0.003	0.0067	-0.0233	-0.024	-70.4
0.0045	0.024	-0.0173	-0.0668	-70.5
0.0082	-0.0053	-0.0203	-0.063	-70.5
0.0067	-0.0278	-0.0233	-0.033	-70.5
0.0067	-0.0443	-0.0256	0.0457	-70.6
0.009	-0.0315	-0.0233	0.1447	-70.6
0.0045	0.003	-0.0233	0.1275	-70.6
0.0022	0.0045	-0.024	0.039	-70.7
0.0007	0.0007	-0.0248	-0.015	-70.7
0.0015	0.0022	-0.0218	-0.027	-70.7
0.0022	0.0135	-0.0143	-0.033	-70.7
-0.0008	-0.0038	-0.012	0.0232	-70.8
0.003	0.0022	-0.0143	0.027	-70.8
0.0052	0.0157	-0.0113	-0.0706	-70.8
0.0082	0.0307	-0.0046	-0.0465	-70.9
0.0067	0.045	-0.0053	0.0307	-70.9
0.0037	0.0172	-0.0091	0.0585	-70.9
0.0007	0.003	-0.0128	0.0735	-71
-0.0015	-0.0278	-0.0128	0.084	-71
0.003	-0.0443	-0.0128	0.021	-71
0.0075	-0.0458	-0.0113	-0.0353	-71.1
0.0127	-0.0405	-0.012	-0.081	-71.1
0.012	-0.0053	-0.0195	-0.0645	-71.1
0.0082	0.0105	-0.0195	-0.0788	-71.1
0.009	0.021	-0.0158	-0.0645	-71.1
0.0105	0.039	-0.0098	0.1155	-71.2
0.0082	-0.0113	-0.0113	0.102	-71.2
0.003	-0.057	-0.0173	-0.0203	-71.2
0	-0.006	-0.0203	0.0075	-71.3
-0.0046	0.0487	-0.0256	0.0855	-71.3
-0.003	0.099	-0.0233	-0.063	-71.3
-0.0023	0.0727	-0.0173	-0.0803	-71.3
-0.0015	0.0127	-0.0135	0.0435	-71.4
-0.0008	0.0142	-0.0158	-0.0008	-71.4
-0.0053	-0.0091	-0.0173	0.0285	-71.4
-0.0091	-0.0233	-0.0181	-0.0008	-71.5
-0.012	-0.027	-0.0203	-0.0075	-71.5
-0.0098	-0.033	-0.0173	0.0097	-71.6
-0.0075	-0.0473	-0.0195	-0.0383	-71.6
-0.0053	-0.0691	-0.0218	-0.0368	-71.6
-0.0015	-0.0346	-0.0225	0.0412	-71.6
0.0007	-0.0068	-0.0203	0.1267	-71.6
0	-0.012	-0.0173	0.0825	-71.6
-0.0068	-0.0181	-0.0158	-0.039	-71.6
-0.0053	-0.0256	-0.0105	-0.1598	-71.6
-0.0008	-0.0015	-0.0091	-0.1305	-71.6
-0.0008	0.0405	-0.012	-0.003	-71.7
-0.0083	0.054	-0.0195	0.0742	-71.7
-0.0105	0.0427	-0.0165	0.0952	-71.7
-0.0083	0.0067	-0.0135	-0.0225	-71.7
-0.012	-0.0285	-0.0165	-0.0743	-71.7
-0.0105	-0.0256	-0.0113	-0.0458	-71.8
-0.0105	-0.0195	-0.0083	-0.0105	-71.8
-0.0105	-0.0143	-0.0105	0.0187	-71.8
-0.0091	-0.012	-0.015	0.009	-71.8
-0.0083	0.0045	-0.0195	0.0847	-71.8
-0.0083	0.0075	-0.0165	0.09	-71.9
-0.0091	-0.006	-0.0181	0.0405	-71.9
-0.0068	0.0015	-0.0173	0.0337	-71.9
-0.003	-0.0053	-0.0128	0.0187	-71.9
-0.0015	0.0067	-0.0135	0.0082	-71.9
-0.006	0.0255	-0.0188	-0.006	-72
-0.0075	0.0165	-0.0181	-0.0788	-72
-0.0128	-0.0135	-0.012	-0.105	-72
-0.015	-0.0181	-0.0098	-0.0293	-72
-0.012	-0.0008	-0.0128	-0.0053	-72
-0.0105	-0.0083	-0.0158	0.027	-72
-0.012	-0.003	-0.0158	0.0247	-72
-0.0113	0.003	-0.0143	-0.03	-72
-0.0038	0.009	-0.012	-0.0353	-72.1
-0.0008	0.0082	-0.0135	-0.057	-72.1
-0.0008	-0.0023	-0.0173	-0.0368	-72.1
-0.0008	-0.0083	-0.0143	-0.033	-72.1
0.0007	-0.0135	-0.0105	-0.0743	-72.1
-0.0008	-0.003	-0.0105	-0.06	-72.2
-0.0015	0.0157	-0.0105	0.0345	-72.2
-0.0046	0.0412	-0.0091	0.1717	-72.2
-0.0046	0.0465	-0.0113	0.1447	-72.3
-0.003	0.0472	-0.0165	0.0315	-72.3
-0.0046	0.0195	-0.0173	0.0052	-72.3
-0.0068	-0.0083	-0.0181	-0.0075	-72.3
-0.0046	0.0075	-0.0143	0.0105	-72.3
-0.0023	-0.0105	-0.0158	0.0382	-72.3
-0.003	-0.0188	-0.0203	0.039	-72.3
0.0007	-0.0083	-0.0181	0.0472	-72.3
0.0015	-0.0143	-0.0173	0.0187	-72.4
-0.0015	-0.0293	-0.024	-0.0143	-72.4
-0.0046	-0.0091	-0.0293	-0.0675	-72.4
-0.0015	0.009	-0.0285	-0.1178	-72.4
0.0022	-0.0233	-0.0218	-0.0706	-72.4
0.0052	-0.0195	-0.021	-0.0346	-72.5
0.0097	-0.021	-0.0225	0.003	-72.5
0.0097	-0.015	-0.021	-0.0578	-72.5
0.0082	0.0262	-0.0181	-0.0803	-72.5
0.0045	0.0502	-0.015	0.0007	-72.5
-0.0015	0.0202	-0.0181	0.0352	-72.5
0.0007	-0.0023	-0.0128	0.0802	-72.5
0	0.0082	-0.0083	0.0307	-72.6
-0.0015	-0.0015	-0.012	0.0592	-72.6
0.0007	-0.0015	-0.0135	0.0577	-72.6
-0.0046	-0.0158	-0.0203	0.0217	-72.6
-0.0053	-0.0165	-0.0165	0	-72.6
-0.0046	-0.0158	-0.0105	-0.0743	-72.6
-0.0015	-0.0293	-0.0075	-0.0998	-72.6
0.0015	-0.0405	-0.0068	-0.1335	-72.6
0.0045	-0.06	-0.012	-0.0083	-72.6
0.003	-0.0743	-0.0158	0.1177	-72.6
0.0007	-0.0706	-0.0173	0.1635	-72.6
0.0007	-0.024	-0.0181	0.2167	-72.6
-0.0008	0.033	-0.021	0.057	-72.6
-0.003	0.0705	-0.0218	-0.0735	-72.7
-0.0038	0.0862	-0.0203	-0.057	-72.7
-0.0015	0.0622	-0.0165	-0.078	-72.7
0.0007	0.012	-0.0128	-0.096	-72.7
0.003	-0.0023	-0.0173	-0.105	-72.7
0.0015	0.0007	-0.0181	-0.0256	-72.7
-0.003	-0.0098	-0.0135	0.0232	-72.7
-0.003	-0.0098	-0.0091	-0.0143	-72.8
-0.0015	-0.0105	-0.0135	-0.0458	-72.8
-0.0015	-0.0105	-0.0203	0.0052	-72.8
-0.0008	-0.0105	-0.0225	0.0232	-72.8
0.003	0.0165	-0.0188	-0.0015	-72.8
0.0022	0.021	-0.0135	0.0442	-72.8
0.0007	0.0045	-0.0158	0.027	-72.8
0.0015	0.0022	-0.015	0.0135	-72.8
-0.0015	-0.0285	-0.0135	-0.0046	-72.8
-0.0038	-0.0165	-0.012	-0.024	-72.8
-0.0008	0.0037	-0.0083	-0.039	-72.9
0	-0.0008	-0.0083	-0.0863	-72.9
-0.0046	0	-0.012	-0.1065	-72.9
-0.0038	-0.0173	-0.0143	-0.1163	-72.9
-0.0015	-0.0293	-0.0165	0.0075	-72.9
-0.0038	-0.015	-0.0128	0.2475	-72.9
-0.0053	0.0157	-0.0105	0.219	-72.9
-0.0083	0.0165	-0.015	0.0105	-72.9
-0.0068	0.009	-0.0128	-0.039	-72.9
-0.003	0.0082	-0.0165	-0.03	-72.9
-0.0068	0.015	-0.0203	0.1095	-73
-0.0046	0.0007	-0.0188	0.1102	-73
0.0007	-0.0256	-0.0203	-0.0263	-73
-0.0015	-0.0248	-0.0188	0.0015	-73
-0.0015	-0.027	-0.0128	-0.0765	-73
0	0.0045	-0.012	-0.0856	-73
0.0007	0.0127	-0.0128	-0.0353	-73
0	0.0105	-0.0135	-0.039	-73
-0.006	-0.003	-0.0218	-0.0428	-73
-0.0105	-0.033	-0.024	-0.0706	-73
-0.0091	-0.0083	-0.0233	0.0555	-73
-0.0068	0.018	-0.024	0.1095	-73
-0.0068	0.0495	-0.0263	0.0645	-73
-0.012	0.0457	-0.0218	0.0352	-73
-0.0128	-0.003	-0.0158	-0.0533	-73
-0.0053	-0.012	-0.012	-0.0368	-73
0.0015	-0.0105	-0.0091	-0.0098	-73
0.003	-0.0263	-0.0068	-0.081	-73
0.0082	-0.0308	-0.0105	-0.0578	-73
0.003	-0.0091	-0.0256	0.0607	-73
-0.0143	0.0127	-0.0413	0.2272	-73.1
-0.027	0.0247	-0.0443	0.2055	-73.1
-0.0278	-0.0083	-0.0233	-0.0353	-73.1
-0.0181	-0.0428	-0.0008	-0.0953	-73.1
-0.0105	-0.0143	0.0075	-0.1381	-73.1
-0.0053	0.0015	0.0037	-0.0938	-73.1
-0.0075	-0.0068	-0.0075	0.027	-73.1
-0.0105	-0.0308	-0.0143	0.015	-73.1
-0.0113	-0.0315	-0.0181	0.0787	-73.1
-0.0098	-0.0143	-0.0233	0.0465	-73.1
-0.0075	-0.033	-0.0248	-0.012	-73.1
-0.0053	-0.0181	-0.0181	-0.0181	-73.1
-0.0015	-0.0015	-0.0105	-0.0428	-73.1
-0.0008	0.012	-0.0083	-0.033	-73.2
0.0015	0.039	-0.0091	-0.0375	-73.2
0.0052	0.0345	-0.0113	-0.0428	-73.2
0.009	0.0142	-0.0075	-0.0458	-73.2
0.0105	-0.0008	-0.0075	-0.0218	-73.2
0.0112	0.0075	-0.0113	0.018	-73.2
0.0082	0.0225	-0.0158	0.0427	-73.2
0.003	0.0262	-0.0181	0.042	-73.3
0.003	0.0015	-0.012	0.0015	-73.3
0.0045	-0.0165	-0.0091	0.0232	-73.3
0.0067	0.0075	-0.0113	0.048	-73.3
0.003	0.0202	-0.0165	-0.0953	-73.3
-0.0023	0.033	-0.0143	-0.1426	-73.3
0.0007	0.0675	-0.012	-0.006	-73.3
0.0007	0.0577	-0.015	0.0277	-73.3
0.0015	0.0202	-0.0128	0.024	-73.3
0.003	-0.021	-0.0158	0.0262	-73.3
0.0015	-0.0525	-0.0165	0.0112	-73.3
0.003	-0.0346	-0.0188	-0.0046	-73.3
0.0015	-0.0443	-0.0195	-0.0263	-73.3
0.0007	-0.0728	-0.015	-0.0203	-73.3
0.0015	-0.0728	-0.0158	-0.0405	-73.3
0.0022	-0.078	-0.0195	-0.0615	-73.3
0.003	-0.0548	-0.024	-0.0795	-73.3
0.0067	0.003	-0.027	-0.1568	-73.4
0.009	0.0495	-0.0293	-0.1388	-73.4
0.0075	0.1102	-0.0278	0.1582	-73.4
-0.003	0.1117	-0.0225	0.336	-73.4
-0.0165	0.0277	-0.0203	0.1642	-73.4
-0.0233	-0.0293	-0.0128	0.0217	-73.4
-0.0158	-0.0165	-0.0053	0.0082	-73.4
-0.0158	0.0525	-0.0091	-0.0256	-73.4
-0.0203	0.054	-0.0091	0.009	-73.4
-0.0158	0.0195	0.0007	0.0712	-73.4
-0.0143	0.0217	-0.0008	0.0382	-73.4
-0.0113	0.0255	-0.0068	0.0112	-73.4
-0.0105	0.006	-0.0143	0.003	-73.4
-0.0083	-0.0181	-0.0203	0.003	-73.4
-0.0053	-0.0256	-0.0233	-0.0135	-73.4
-0.0053	-0.0383	-0.024	-0.015	-73.4
-0.0008	-0.0368	-0.0203	-0.0188	-73.4
0.0022	-0.0315	-0.0218	-0.0225	-73.4
0.0045	-0.027	-0.0218	-0.0135	-73.4
0.0015	-0.0181	-0.0203	-0.0173	-73.4
-0.0046	-0.0143	-0.0195	-0.012	-73.4
-0.0165	-0.0091	-0.0181	-0.0128	-73.4
-0.0181	-0.0083	-0.0195	-0.003	-73.4
-0.006	-0.0053	-0.0203	0.0007	-73.5
-0.0015	-0.0105	-0.0181	0.009	-73.5
0.0067	-0.0113	-0.012	0.0165	-73.5
0.012	0.0037	-0.0105	-0.0008	-73.5
0.0075	0.009	-0.0158	-0.0308	-73.5
0.0045	0.0142	-0.0143	-0.0803	-73.5
0.0037	0.0075	-0.012	-0.111	-73.5
-0.0046	-0.0203	-0.012	-0.0361	-73.5
-0.0075	-0.0158	-0.0091	0.054	-73.5
-0.0008	-0.0091	-0.0091	0.0165	-73.5
-0.003	-0.0218	-0.0105	-0.012	-73.5
-0.0015	0.0127	-0.0098	0.039	-73.5
0.0015	0.0367	-0.012	0.105	-73.5
-0.0008	0.0067	-0.0128	0.0862	-73.5
-0.0008	-0.0105	-0.0143	0.0367	-73.5
-0.0023	-0.0046	-0.0188	0.0255	-73.5
-0.0023	-0.0023	-0.0181	0.0045	-73.5
-0.0015	-0.012	-0.0173	-0.0398	-73.6
-0.0008	-0.0338	-0.0173	-0.0233	-73.6
0.0015	-0.0443	-0.0195	-0.0091	-73.6
0.006	-0.0346	-0.0233	-0.045	-73.6
0.0082	-0.0256	-0.0233	-0.0383	-73.6
0.0067	-0.0195	-0.0203	-0.0375	-73.6
0.0045	-0.0143	-0.0165	-0.0068	-73.6
0.0007	-0.0038	-0.0181	0.006	-73.6
-0.0053	0.0067	-0.0203	0.003	-73.6
-0.0105	0.0232	-0.0165	-0.0181	-73.6
-0.012	0.027	-0.0173	-0.045	-73.6
-0.0083	0.0142	-0.0158	-0.0181	-73.7
-0.0023	0.0045	-0.0165	0.012	-73.7
-0.0015	0	-0.0165	-0.0053	-73.7
0.0007	0.0097	-0.0158	-0.0195	-73.7
0.0045	0.0112	-0.0158	-0.0128	-73.7
0.0082	0.0037	-0.0113	0	-73.7
0.009	0.018	-0.0143	0.0165	-73.7
0.0052	0.0142	-0.021	-0.0233	-73.7
-0.0008	-0.0091	-0.0256	-0.0788	-73.7
-0.0015	-0.0195	-0.021	-0.123	-73.7
0.0022	0.0067	-0.0158	-0.042	-73.8
-0.0008	0.0337	-0.0165	0.03	-73.8
-0.006	0.0142	-0.0143	0.0517	-73.8
-0.006	0.0165	-0.015	0.1042	-73.8
-0.0091	0.0277	-0.0195	0.0652	-73.8
-0.0098	0.0135	-0.0195	0.1005	-73.8
-0.0091	0.0015	-0.0143	0.054	-73.8
-0.006	-0.012	-0.0068	-0.0413	-73.8
-0.003	-0.0165	-0.0068	-0.0645	-73.8
-0.0046	-0.0046	-0.0128	-0.0968	-73.8
-0.0053	-0.0135	-0.0173	-0.048	-73.8
-0.0053	-0.0188	-0.0173	0.0045	-73.8
-0.0008	-0.0165	-0.0181	0.063	-73.8
0	-0.0143	-0.0233	0.0817	-73.8
-0.0098	-0.0015	-0.0353	0.093	-73.8
-0.0143	-0.0038	-0.039	0.0457	-73.8
-0.0158	-0.0008	-0.0361	-0.0691	-73.8
-0.0128	-0.012	-0.0293	-0.045	-73.8
-0.0083	-0.0181	-0.0203	0.0165	-73.8
-0.0083	0.0172	-0.0128	-0.03	-73.9
-0.0128	0.027	-0.0105	-0.0083	-73.9
-0.012	-0.0083	-0.0068	0.0075	-73.9
-0.0083	-0.0091	-0.0015	-0.0128	-73.9
-0.0046	0.0202	0.0045	0.0345	-73.9
-0.003	0.0345	0.003	0.0262	-73.9
-0.0053	0.0352	-0.0091	-0.0083	-73.9
-0.0046	0.0157	-0.0181	-0.0608	-73.9
-0.003	-0.0075	-0.0218	0.0195	-74
-0.0008	0.0007	-0.0256	0.1447	-74
0	0.0045	-0.0293	0.1537	-74
-0.0053	-0.0293	-0.0383	0.0135	-74
-0.0181	-0.0465	-0.042	-0.1125	-74
-0.0158	-0.0233	-0.024	-0.042	-74.1
-0.0053	0.0277	-0.015	0.0285	-74.1
-0.003	0.051	-0.0143	0.0547	-74.1
-0.0008	0.0277	-0.0143	0.0165	-74.1
0	0.015	-0.0165	-0.0128	-74.1
0.0022	0.0037	-0.015	-0.0698	-74.1
0.0045	-0.0068	-0.0128	-0.105	-74.2
0.003	-0.0346	-0.0091	-0.0495	-74.2
0.0007	-0.0473	-0.012	-0.0315	-74.2
0	-0.033	-0.0165	0.0195	-74.2
0	-0.0338	-0.0195	0.0247	-74.3
-0.003	-0.0323	-0.0218	-0.0428	-74.3
-0.0023	-0.0346	-0.0181	-0.0638	-74.3
0.0045	-0.0218	-0.0143	-0.024	-74.3
0.0082	-0.0015	-0.0098	-0.0008	-74.3
0.0097	0.0045	-0.0091	-0.0293	-74.3
0.0052	-0.0008	-0.0143	-0.0998	-74.3
0.0082	0.003	-0.0105	-0.1733	-74.3
0.0097	0.012	-0.006	-0.1013	-74.3
0.006	0.0015	-0.0075	0.0727	-74.4
0.0015	-0.003	-0.0105	0.1785	-74.4
-0.0038	-0.0015	-0.012	0.1702	-74.4
-0.0008	0.0045	-0.0105	0.0967	-74.4
-0.0008	-0.0038	-0.0083	-0.0105	-74.4
-0.003	-0.003	-0.0105	0.009	-74.5
-0.0068	0.0142	-0.0098	0.0367	-74.5
-0.0068	0.0232	-0.0143	-0.039	-74.5
-0.0083	0.042	-0.0181	0.0217	-74.5
-0.0113	0.027	-0.0158	0.0067	-74.5
-0.0105	0.0037	-0.0173	-0.0046	-74.6
-0.0105	-0.0015	-0.0158	0.0127	-74.6
-0.0105	-0.0075	-0.015	-0.0075	-74.6
-0.0068	0.0015	-0.015	0.018	-74.6
-0.0046	0.0045	-0.0128	0.0037	-74.6
-0.0008	0.0082	-0.012	0.0232	-74.6
0.0037	0.0105	-0.0091	0.0142	-74.7
0.0052	0.0067	-0.0105	0.0157	-74.7
0.003	0.0045	-0.0105	0.0172	-74.7
0.0007	0.003	-0.012	0.0165	-74.7
0.0007	0.0007	-0.0143	0.0195	-74.7
0.0015	-0.0046	-0.0173	0.0082	-74.7
0.0015	-0.0053	-0.0203	0	-74.7
0.0045	-0.0075	-0.0233	-0.0256	-74.7
0.0052	-0.0091	-0.0248	-0.0165	-74.8
0.0067	-0.0128	-0.0225	-0.024	-74.8
0.0067	-0.021	-0.0233	-0.0308	-74.8
0.0067	-0.0233	-0.0263	-0.0165	-74.8
0.0045	-0.024	-0.027	-0.0068	-74.8
-0.0008	-0.0105	-0.0248	0.012	-74.8
-0.0015	0.0075	-0.0195	0.0255	-74.9
-0.0068	0.0097	-0.0173	0.0142	-74.9
-0.0098	0.0112	-0.0165	0.0007	-74.9
-0.012	0.0045	-0.012	-0.0173	-74.9
-0.0128	-0.0053	-0.0083	-0.0195	-74.9
-0.0098	0.0007	-0.0105	0.0097	-74.9
-0.0091	0.003	-0.0143	0.0157	-74.9
-0.0091	-0.0038	-0.0143	0.0007	-74.9
-0.0091	-0.0046	-0.0128	-0.0473	-74.9
-0.0053	0.0007	-0.0128	-0.0668	-74.9
-0.0046	0.0045	-0.0128	-0.0323	-74.9
-0.0038	0.0082	-0.0143	-0.0128	-74.9
-0.0068	-0.0091	-0.0218	0.0067	-74.9
-0.0083	-0.0278	-0.0225	-0.0068	-74.9
-0.003	-0.0256	-0.0203	0.0067	-74.9
-0.0046	-0.0218	-0.024	0.0075	-74.9
-0.0068	-0.0128	-0.027	-0.0181	-75
-0.0046	-0.0091	-0.0225	0.018	-75
-0.003	0.0022	-0.0128	0.0277	-75
-0.003	0.0157	-0.0068	0.0487	-75
-0.0008	0.0195	-0.0015	0.0285	-75
0.0015	0.0142	0.0015	-0.006	-75
0.003	0.0067	-0.0015	0.0142	-75
0.003	0.018	-0.006	0.018	-75
-0.0008	0.0225	-0.0053	0.0232	-75
-0.003	0.0052	-0.0091	-0.0008	-75
-0.0068	0.0187	-0.0135	-0.0323	-75
-0.0053	0.0307	-0.0135	-0.0375	-75
-0.0038	-0.0008	-0.0181	-0.0233	-75
-0.003	-0.0113	-0.0181	0.024	-75
-0.0008	0.0015	-0.0158	0.0412	-75
0	-0.0008	-0.0128	0.003	-75
-0.003	-0.0008	-0.0128	-0.0143	-75
-0.006	-0.0083	-0.0128	-0.0015	-75
-0.0075	-0.039	-0.0135	0.0232	-75
-0.0083	-0.075	-0.0195	0.0652	-75
-0.0053	-0.0683	-0.0225	0.0405	-75
-0.003	-0.0233	-0.021	-0.0405	-75
0.0015	0.0315	-0.0225	-0.039	-75
0.0015	0.078	-0.0195	-0.0188	-75
0.0045	0.066	-0.0128	-0.0615	-75
0.0075	0.0585	-0.0068	-0.0218	-75
0.006	0.0427	-0.006	-0.0098	-75
0	0.0052	-0.0165	-0.0143	-75
-0.0098	-0.0181	-0.0256	-0.0218	-75
-0.0135	-0.0548	-0.0285	0.0165	-75
-0.0105	-0.0668	-0.027	0.0502	-75
-0.0053	-0.0203	-0.0233	-0.0495	-75
-0.0015	0.0022	-0.0233	-0.0173	-75
-0.0008	-0.003	-0.0256	-0.021	-75
0	0.0187	-0.027	0.0682	-75
0	0.0105	-0.027	0.0817	-75
-0.0068	-0.0083	-0.027	0.0157	-75
-0.0083	-0.0278	-0.0248	0.057	-75
-0.0038	-0.033	-0.024	0.0067	-75
0.0007	-0.0293	-0.0181	0.0015	-75
0.006	-0.027	-0.012	-0.0458	-75
0.0045	0.0112	-0.0128	-0.027	-75
0.0015	0.0195	-0.0165	-0.0293	-75
0.0045	0.0255	-0.0143	-0.0765	-75
0.006	0.048	-0.0128	-0.066	-75
0.006	0.0352	-0.0098	0.0277	-75
0.0052	0	-0.0083	0.0915	-75
0.0037	0.012	-0.015	0.0765	-75
-0.0023	0.0075	-0.0181	0.0832	-75
-0.0083	-0.024	-0.0218	-0.0158	-75
-0.0105	-0.0256	-0.0195	-0.0323	-75
-0.0105	-0.0346	-0.0181	-0.0091	-75
-0.0105	-0.0248	-0.0203	-0.0278	-75
-0.0098	-0.0248	-0.0158	-0.0293	-75.1
-0.0105	-0.0188	-0.0143	-0.0195	-75.1
-0.0068	-0.0068	-0.0113	-0.0105	-75.1
-0.0015	-0.0068	-0.0105	-0.0158	-75.1
0	0.0015	-0.0128	-0.0143	-75.1
0.0022	-0.006	-0.0143	-0.0225	-75.1
0.0015	-0.0128	-0.0105	-0.0173	-75.1
0.0015	-0.0128	-0.0083	-0.0233	-75.1
0.003	-0.0038	-0.0083	-0.0203	-75.1
-0.0015	0.0052	-0.0053	-0.0083	-75.1
-0.003	0.0195	-0.006	0.0127	-75.2
-0.0053	0.0322	-0.0053	0.0217	-75.2
-0.0091	0.042	-0.0083	0.003	-75.2
-0.0091	0.048	-0.0105	-0.012	-75.2
-0.0091	0.0382	-0.012	-0.0053	-75.2
-0.0068	0.0367	-0.0143	0.0082	-75.2
-0.0068	0.0337	-0.012	-0.0091	-75.2
-0.0105	0.0112	-0.0143	-0.024	-75.2
-0.012	-0.012	-0.0173	-0.027	-75.2
-0.0143	-0.0158	-0.0195	-0.0195	-75.2
-0.015	-0.012	-0.0188	-0.0181	-75.2
-0.0128	-0.0188	-0.0135	-0.0263	-75.2
-0.0105	-0.0248	-0.0105	-0.0135	-75.2
-0.0068	-0.027	-0.0113	0.0022	-75.2
-0.0091	-0.0256	-0.0188	0.027	-75.2
-0.0135	-0.027	-0.0218	0.0345	-75.2
-0.0128	-0.021	-0.021	0.012	-75.2
-0.0075	-0.0015	-0.021	-0.0083	-75.1
-0.0053	0.0172	-0.0218	-0.0398	-75.1
-0.0068	0.0037	-0.0233	-0.045	-75.1
0.0015	-0.0046	-0.0218	-0.0263	-75.1
0.0045	-0.003	-0.0195	-0.0233	-75.1
0.0037	-0.0091	-0.0165	0.0105	-75.1
0.0052	0	-0.0181	0.0052	-75.1
0.0067	-0.0046	-0.021	-0.048	-75.1
0.0052	-0.003	-0.021	-0.0675	-75.1
0.003	0.0015	-0.0218	-0.0818	-75.1
0.0022	-0.0008	-0.0218	-0.0871	-75
0.0007	-0.003	-0.0218	-0.0863	-75
0.0015	-0.0038	-0.0203	-0.093	-75
0.0015	0	-0.0203	-0.0856	-75
0.0007	0.0015	-0.0165	-0.0765	-75
0.0015	0.003	-0.0158	-0.0533	-74.9
0.0015	0.0007	-0.0173	-0.0398	-74.9
0	-0.0023	-0.0158	-0.0398	-74.9
0.0007	-0.006	-0.0173	-0.0518	-74.9
0.0022	-0.012	-0.0158	-0.078	-74.9
0.0022	-0.012	-0.012	-0.057	-74.9
0.006	-0.0046	-0.0128	0.0157	-74.8
-0.0008	0.006	-0.0158	0.0975	-74.8
-0.0083	0.0097	-0.0158	0.123	-74.8
-0.0083	0.0045	-0.0135	0.0862	-74.8
-0.0075	-0.0008	-0.012	0.0817	-74.8
-0.0046	-0.0015	-0.0105	0.0855	-74.7
-0.0015	-0.0128	-0.012	0.0277	-74.7
0.0015	-0.0195	-0.0098	-0.0075	-74.7
0.0007	-0.0105	-0.0098	0.0465	-74.7
0.0007	-0.0091	-0.0128	0.171	-74.7
-0.0008	-0.0015	-0.0135	0.1552	-74.6
-0.0046	0.0082	-0.0165	0.0472	-74.6
-0.0023	-0.0008	-0.0181	0.0607	-74.6
-0.0015	0.0015	-0.0195	0.0412	-74.6
-0.003	0.0082	-0.024	0.0292	-74.5
-0.0053	0.003	-0.0256	0.0682	-74.5
-0.0075	-0.0015	-0.024	0.1042	-74.5
-0.0075	0.003	-0.021	0.1132	-74.4
-0.0068	0.0082	-0.0158	0.129	-74.4
-0.0068	0.0075	-0.012	0.0975	-74.4
-0.0053	0.0082	-0.0091	0.0142	-74.3
-0.0046	0.009	-0.006	-0.057	-74.3
-0.003	0.0007	-0.0046	-0.1433	-74.3
-0.0046	-0.0015	-0.0083	-0.0465	-74.3
-0.0083	0.0195	-0.0173	0.0555	-74.3
-0.0091	0.018	-0.0188	0.1425	-74.3
-0.0158	-0.0068	-0.0195	0.207	-74.2
-0.0181	-0.0233	-0.0165	0.0562	-74.2
-0.0128	-0.0308	-0.0128	-0.0518	-74.2
-0.0083	-0.0293	-0.0135	-0.0623	-74.2
-0.003	-0.0225	-0.0143	-0.0053	-74.1
0	-0.0143	-0.0203	0.0112	-74.1
-0.0015	-0.0165	-0.0233	-0.0113	-74.1
-0.0008	-0.0091	-0.024	0.0742	-74.1
0.0007	0.003	-0.024	0.0697	-74
-0.0008	0.0112	-0.024	0.033	-74
-0.0038	-0.0008	-0.0233	0.0555	-74
-0.0015	-0.0015	-0.0135	0.0142	-74
0.0037	0.0157	-0.0091	0.0082	-74
0.0052	0.015	-0.0105	0.042	-73.9
0.0037	0.048	-0.0105	-0.0683	-73.9
0	0.0457	-0.0098	-0.0668	-73.9
0.0007	0.018	-0.0105	-0.0256	-73.9
0.0045	0.0097	-0.0143	-0.057	-73.8
0.003	-0.0143	-0.0165	-0.0128	-73.8
0.0007	-0.0203	-0.0188	-0.0315	-73.8
-0.0015	-0.0158	-0.0188	-0.012	-73.8
-0.0023	-0.0128	-0.0165	-0.0428	-73.8
0.003	-0.0195	-0.0165	-0.0368	-73.8
0.0052	-0.0128	-0.021	0.0112	-73.8
0.0052	0.0022	-0.0203	0.0165	-73.8
0.0052	0.0015	-0.0233	0.0217	-73.8
0	0	-0.0233	-0.0383	-73.7
-0.0053	0.0067	-0.0195	-0.0495	-73.7
-0.0083	0.0007	-0.0203	0.0127	-73.7
-0.0098	-0.0038	-0.0181	0.0285	-73.7
-0.006	-0.0068	-0.0165	0.0112	-73.7
-0.003	-0.0143	-0.0188	0.03	-73.6
-0.003	-0.006	-0.0203	-0.0181	-73.6
0	0.0007	-0.0143	-0.0458	-73.6
0.0022	0.0127	-0.0083	-0.057	-73.6
0.003	0.0142	-0.0083	-0.0443	-73.6
0.0045	0.0127	-0.0075	0.003	-73.6
0.006	0.0105	-0.0068	0.0045	-73.5
0.0075	0.0045	-0.0053	-0.012	-73.5
0.0067	0.0112	-0.0068	-0.0053	-73.5
0.0052	0.0007	-0.0113	0.0255	-73.5
0	-0.0128	-0.0158	0.0255	-73.5
-0.0008	-0.012	-0.0181	0.0292	-73.5
-0.0023	-0.0068	-0.0173	-0.0256	-73.4
-0.0015	0.0067	-0.0143	-0.0465	-73.4
0	0.0157	-0.0128	-0.024	-73.4
-0.006	0.006	-0.015	-0.033	-73.4
-0.003	0.0037	-0.0181	-0.03	-73.4
-0.0023	0.0015	-0.0195	-0.0315	-73.4
-0.0015	-0.0053	-0.0181	-0.0128	-73.4
-0.0015	-0.0068	-0.0188	0.0157	-73.4
-0.003	-0.0098	-0.0181	0.0135	-73.4
-0.0046	-0.0098	-0.0181	-0.0181	-73.4
-0.0083	-0.0203	-0.0195	-0.0195	-73.3
-0.0098	-0.0195	-0.0218	0.0075	-73.3
-0.0105	-0.012	-0.0203	0.012	-73.3
-0.0068	-0.015	-0.0165	0.0037	-73.3
-0.0038	-0.006	-0.0173	-0.0015	-73.3
-0.0046	0.0045	-0.0188	-0.0143	-73.3
0.0007	0.0105	-0.0158	0.0007	-73.2
0	0.015	-0.0105	0.003	-73.2
-0.0023	0.018	-0.0083	-0.0113	-73.2
-0.003	0.0142	-0.0083	-0.0105	-73.2
-0.0023	0.012	-0.0105	-0.0181	-73.1
-0.0015	0.012	-0.0165	-0.0015	-73.1
-0.0038	0.0067	-0.0203	-0.003	-73.1
-0.006	-0.0008	-0.0195	-0.012	-73.1
-0.0053	-0.0075	-0.0143	-0.0105	-73.1
-0.0015	-0.0135	-0.0046	-0.0203	-73
0.0007	-0.0113	0.0015	-0.006	-73
-0.0015	-0.0023	-0.0038	-0.003	-73
-0.0053	-0.0046	-0.0068	-0.048	-72.9
-0.0105	-0.0075	-0.0128	-0.075	-72.9
-0.0105	-0.0053	-0.0143	-0.024	-72.9
-0.0091	-0.0038	-0.0165	0.0577	-72.9
-0.0105	-0.0143	-0.0225	0.1087	-72.9
-0.0135	-0.0225	-0.0256	0.0562	-72.9
-0.012	-0.0233	-0.0248	0.0187	-72.9
-0.0068	-0.0113	-0.0218	0.0382	-72.8
-0.0083	0.0097	-0.0233	-0.0083	-72.8
-0.0068	0.0082	-0.021	-0.0233	-72.8
-0.0053	0.0075	-0.0218	-0.0113	-72.7
-0.0038	-0.0008	-0.0233	-0.0158	-72.7
-0.0023	-0.0075	-0.021	-0.0256	-72.7
-0.003	-0.0128	-0.0195	0.0022	-72.6
-0.0023	-0.0158	-0.0158	0.036	-72.6
-0.0046	0.0015	-0.0135	0.0195	-72.6
-0.0091	-0.0053	-0.0098	0.0142	-72.6
-0.0098	-0.0083	-0.0091	-0.0158	-72.5
-0.0091	-0.0046	-0.0135	-0.024	-72.5
-0.0083	0.003	-0.0113	-0.012	-72.5
-0.0046	0.009	-0.0091	-0.0203	-72.5
-0.0015	-0.0008	-0.0083	-0.0046	-72.5
0.0007	-0.0008	-0.0075	0.0075	-72.4
0.0007	-0.0053	-0.0128	-0.0135	-72.4
-0.003	-0.0046	-0.0158	0.0052	-72.4
-0.0038	0.0015	-0.0158	0.0345	-72.3
-0.0008	-0.0008	-0.0135	-0.0503	-72.3
-0.0015	0.0015	-0.012	-0.054	-72.3
-0.0038	0.0067	-0.0158	0.0412	-72.2
-0.0046	0.0045	-0.0195	0.033	-72.2
-0.0068	-0.003	-0.0195	0.0082	-72.2
-0.0091	-0.0008	-0.0128	-0.0233	-72.1
-0.0068	-0.0143	-0.0091	-0.0668	-72.1
-0.0075	-0.0181	-0.0105	-0.0353	-72.1
-0.0105	-0.0143	-0.015	0.012	-72
-0.0113	-0.0158	-0.0195	0.0795	-72
-0.0113	0.0127	-0.0188	0.048	-72
-0.0083	0.048	-0.0181	-0.0383	-72
-0.0068	0.0405	-0.0195	0.003	-72
-0.0053	0.0052	-0.0218	0.012	-71.9
-0.0015	0	-0.0203	-0.003	-71.9
-0.0023	-0.003	-0.015	0.0097	-71.9
-0.0015	-0.0053	-0.012	-0.0068	-71.8
0.0015	-0.0046	-0.0135	-0.0443	-71.8
0.0015	-0.0128	-0.0188	-0.0803	-71.8
0.0015	-0.015	-0.024	-0.0608	-71.7
0.0045	-0.0188	-0.0293	-0.024	-71.7
0.0045	-0.0203	-0.0293	0.0165	-71.7
0.0045	-0.0188	-0.0218	0.012	-71.6
0.0052	-0.0203	-0.0173	-0.0465	-71.6
0.0015	-0.027	-0.0135	-0.0256	-71.6
0.0007	-0.0143	-0.0083	0.0435	-71.6
0.0037	0.0202	-0.0098	0.1192	-71.6
0.0007	0.0397	-0.015	0.0465	-71.6
-0.003	0.0315	-0.0158	-0.0608	-71.5
-0.0046	0.0195	-0.0203	-0.0225	-71.5
-0.0075	0.0105	-0.0233	-0.0623	-71.5
-0.0068	-0.0098	-0.0173	-0.054	-71.4
-0.0053	-0.0225	-0.0128	-0.0038	-71.4
-0.0038	-0.0173	-0.0105	0.0607	-71.4
-0.0015	-0.0113	-0.0083	0.1245	-71.4
-0.0015	0.0015	-0.0083	0.0375	-71.3
-0.0008	0.006	-0.006	0.0127	-71.3
-0.0015	0.0015	-0.0015	-0.0015	-71.3
-0.0008	0.0157	-0.0046	-0.0083	-71.3
0.0015	0.0165	-0.0053	0.0157	-71.2
0.0045	0.0052	-0.0091	0.0127	-71.2
0.0052	0.006	-0.0158	0.0472	-71.2
0.003	0.006	-0.0165	0.0525	-71.2
0.0037	0.0015	-0.0188	0.0255	-71.1
0.0015	-0.0105	-0.0165	-0.0158	-71.1
0.0007	-0.0113	-0.015	-0.0135	-71.1
0.0045	-0.012	-0.0181	-0.0083	-71.1
0.0052	-0.0143	-0.021	-0.012	-71.1
0.0067	-0.0098	-0.0218	-0.0046	-71.1
0.0052	-0.0068	-0.0218	0.0112	-71.1
0.0037	-0.0053	-0.0218	0.0277	-71
-0.0015	0.003	-0.0203	0.0052	-71
-0.0053	0.0045	-0.0188	-0.0105	-71
-0.003	-0.003	-0.0105	-0.0383	-71
-0.003	-0.0053	-0.003	-0.0353	-71
0	-0.0015	-0.0105	0.0022	-70.9
0.0007	0.0075	-0.015	0.0352	-70.9
0.0015	0.0127	-0.0143	0.0285	-70.9
0.0022	0.0007	-0.0158	0.0067	-70.9
0.0007	-0.0173	-0.0113	0.0277	-70.9
0.003	-0.033	-0.0128	-0.0008	-70.8
-0.0008	-0.0465	-0.0165	-0.0315	-70.8
-0.0046	-0.039	-0.0181	-0.0443	-70.8
-0.0023	-0.03	-0.0203	-0.0218	-70.8
-0.003	-0.03	-0.0195	-0.0053	-70.8
0.0007	-0.0285	-0.0203	-0.033	-70.7
0.0007	-0.0353	-0.0225	0.0292	-70.7
0	-0.0293	-0.0285	0.0892	-70.7
-0.003	-0.0346	-0.0323	0.039	-70.7
-0.0075	-0.0315	-0.033	-0.0346	-70.7
-0.0091	0	-0.0278	-0.0368	-70.7
-0.0105	0.003	-0.0233	-0.024	-70.6
-0.0135	-0.003	-0.0203	-0.024	-70.6
-0.0128	-0.0046	-0.0218	-0.024	-70.6
-0.012	-0.0053	-0.0218	-0.0278	-70.6
-0.0135	-0.0015	-0.0181	-0.0375	-70.6
-0.0113	-0.0113	-0.0181	-0.0615	-70.5
-0.0083	-0.0143	-0.0203	-0.0578	-70.5
-0.0068	-0.0083	-0.0195	-0.0585	-70.5
-0.0008	0.0045	-0.0158	-0.0195	-70.5
0.0015	0.027	-0.0181	0.0457	-70.4
-0.003	0.042	-0.0233	0.0765	-70.4
-0.0068	0.0427	-0.0203	0.0645	-70.4
-0.0068	0.042	-0.0165	0.0457	-70.4
-0.0083	0.0412	-0.0128	0.0202	-70.3
-0.0105	0.0352	-0.0105	-0.0038	-70.3
-0.0098	0.033	-0.0105	0.0015	-70.3
-0.0105	0.0255	-0.0128	-0.015	-70.2
-0.0091	0.0165	-0.0158	-0.0165	-70.2
-0.0105	0.0142	-0.0165	-0.0173	-70.2
-0.0128	0.009	-0.0143	-0.0173	-70.2
-0.0091	0.009	-0.0135	-0.006	-70.2
-0.0068	0.0052	-0.0128	-0.003	-70.1
-0.006	-0.0046	-0.012	-0.0053	-70.1
-0.0068	-0.0046	-0.0165	-0.0135	-70.1
-0.0083	0.003	-0.0195	-0.0195	-70.1
-0.0083	0.0082	-0.021	-0.0195	-70
-0.0015	0.012	-0.0181	-0.0083	-70
0.003	0.0112	-0.0165	0.0015	-70
0.0045	0.0045	-0.0128	-0.0053	-69.9
0.009	0.003	-0.0038	-0.0256	-69.9
0.0105	0.0015	-0.0023	-0.033	-69.9
0.0135	0.0045	-0.0075	-0.0105	-69.8
0.0127	0.0157	-0.012	0.0157	-69.8
0.0105	0.0217	-0.0113	0.0277	-69.8
0.009	0.015	-0.012	0.0472	-69.8
0.0082	0.0105	-0.0128	0.054	-69.7
0.0082	0.0067	-0.012	0.0382	-69.7
0.006	-0.0015	-0.0128	0.0292	-69.7
0.0052	0.0037	-0.0105	0.021	-69.6
0.003	0.0067	-0.0105	0.0067	-69.6
0.0052	0.0045	-0.0128	0.0045	-69.6
0.0067	0.0075	-0.0158	0.0225	-69.5
0.006	0.0067	-0.0203	0.0172	-69.5
0.0045	0.0015	-0.0218	0.009	-69.5
0.0007	0.0022	-0.0233	0.0307	-69.4
-0.0008	0.0075	-0.0218	0.0315	-69.4
-0.0038	0.0015	-0.0195	0.0105	-69.4
-0.0068	-0.0068	-0.0181	-0.0083	-69.3
-0.0068	-0.0083	-0.0181	-0.0105	-69.3
-0.0046	-0.0046	-0.0195	0.024	-69.3
-0.0038	-0.0008	-0.0158	0.0255	-69.3
-0.0083	-0.0015	-0.0158	-0.0458	-69.2
-0.0083	-0.0075	-0.021	-0.1118	-69.2
-0.0038	-0.0188	-0.0225	-0.093	-69.2
0.0007	-0.0143	-0.0195	-0.0788	-69.1
0.0015	-0.0203	-0.0203	-0.099	-69.1
0	-0.048	-0.0225	-0.03	-69
-0.0008	-0.0458	-0.021	0.1005	-69
-0.0015	-0.0353	-0.024	0.189	-69
-0.0038	-0.0233	-0.0203	0.0915	-68.9
-0.0046	0.0037	-0.0128	-0.0046	-68.9
-0.0038	0.024	-0.0105	-0.015	-68.9
-0.0038	0.018	-0.0105	-0.0608	-68.9
-0.0053	0.0277	-0.0075	-0.0413	-68.8
-0.0068	0.0517	-0.0046	-0.0375	-68.8
-0.006	0.042	-0.0068	-0.0278	-68.8
-0.0053	0.0285	-0.0105	0.0112	-68.7
-0.0046	0.015	-0.0105	0.0555	-68.7
-0.0068	-0.0046	-0.0143	0.0427	-68.6
-0.012	-0.0218	-0.0165	-0.012	-68.6
-0.015	-0.0165	-0.0158	0.0127	-68.6
-0.0135	-0.0046	-0.0181	-0.012	-68.5
-0.0098	-0.0398	-0.0195	-0.027	-68.5
-0.0083	-0.0525	-0.0181	0.0292	-68.5
-0.0091	-0.0218	-0.021	-0.0083	-68.4
-0.0113	-0.0053	-0.0225	-0.0563	-68.4
-0.0105	0.0067	-0.0203	0.003	-68.4
-0.0068	0.0157	-0.0181	0.0577	-68.3
-0.0053	0.009	-0.0135	0.0517	-68.3
-0.003	-0.0083	-0.0143	-0.0181	-68.3
-0.0008	-0.0218	-0.0195	-0.0338	-68.2
-0.0015	-0.0195	-0.0225	-0.0128	-68.2
0.0015	-0.0158	-0.024	-0.015	-68.1
0.003	-0.0158	-0.0248	-0.0143	-68.1
0.0037	-0.0158	-0.0218	-0.021	-68.1
0.0007	-0.0158	-0.0195	-0.0053	-68
-0.0015	-0.0105	-0.0165	-0.0023	-68
-0.003	-0.006	-0.0158	0.0007	-68
-0.0053	-0.0075	-0.015	-0.0068	-68
-0.0046	0.0052	-0.0143	-0.0098	-67.9
-0.0083	0.018	-0.0181	-0.0023	-67.9
-0.0083	0.0105	-0.0158	-0.0053	-67.8
-0.0075	0.018	-0.0128	-0.0383	-67.8
-0.0046	0.0352	-0.0105	-0.0698	-67.8
-0.0008	0.0262	-0.0068	-0.0563	-67.7
0.0007	0.0127	-0.0008	-0.015	-67.7
0.0052	0.003	-0.003	0.0202	-67.7
0.0067	-0.0068	-0.0083	-0.0015	-67.6
0.0075	-0.0128	-0.0143	0.0022	-67.6
0.0052	-0.0075	-0.0165	0.0037	-67.6
0.006	0.0105	-0.0165	0.036	-67.5
0.0022	0.0127	-0.0203	0.0952	-67.5
-0.0015	0.0112	-0.0173	0.0457	-67.5
-0.0046	0.0082	-0.0098	0.0315	-67.5
-0.0083	-0.006	-0.0091	0.0682	-67.4
-0.0128	-0.0046	-0.0091	0.0675	-67.4
-0.0135	0.0157	-0.0083	0.027	-67.4
-0.0098	0.009	-0.0105	0.0195	-67.3
-0.0098	-0.0105	-0.015	0.0135	-67.3
-0.0083	-0.015	-0.0165	-0.054	-67.3
-0.0053	-0.0105	-0.0173	-0.1058	-67.2
-0.0015	0.0037	-0.0165	-0.1155	-67.2
0	0.003	-0.0203	-0.0256	-67.1
0.0007	-0.0091	-0.0203	0.0967	-67.1
0	0	-0.0195	0.1327	-67.1
-0.0015	0.012	-0.0225	0.0667	-67
-0.0008	-0.0046	-0.0263	-0.066	-67
-0.0008	-0.0346	-0.0256	-0.1538	-67
0.003	-0.0346	-0.0233	-0.0728	-66.9
0.0052	-0.0233	-0.0225	-0.0053	-66.9
0.003	-0.0128	-0.0203	0.0315	-66.8
-0.0008	-0.0165	-0.0233	0.0697	-66.8
-0.0008	-0.0135	-0.0195	0.0315	-66.7
-0.0015	0.006	-0.0135	0.0277	-66.7
-0.0015	0.003	-0.0091	0.006	-66.6
0	-0.003	-0.006	-0.0053	-66.6
-0.0015	-0.0083	-0.0091	-0.0068	-66.6
0	-0.0068	-0.0105	-0.0218	-66.6
0.0007	0.006	-0.012	-0.0218	-66.5
-0.0008	0.0157	-0.0143	-0.0173	-66.5
-0.0046	0.0127	-0.012	0.018	-66.4
-0.0053	0.0015	-0.012	0.0352	-66.4
-0.0046	0	-0.0105	0.018	-66.3
-0.0068	-0.0046	-0.0091	-0.0203	-66.3
-0.0083	-0.0046	-0.0098	-0.006	-66.2
-0.0083	-0.0015	-0.0128	0.009	-66.2
-0.0091	-0.006	-0.015	-0.0165	-66.2
-0.0098	-0.0105	-0.0173	-0.0135	-66.1
-0.012	-0.0105	-0.0195	-0.0323	-66.1
-0.0091	-0.0046	-0.0195	-0.0218	-66
-0.0046	0.0007	-0.0203	0.0127	-66
-0.0053	0.0007	-0.0218	0.0007	-65.9
-0.0068	-0.0038	-0.021	-0.0046	-65.9
-0.0046	-0.003	-0.0173	0.0052	-65.8
-0.0038	0.003	-0.015	0.0045	-65.8
-0.0023	0.003	-0.0158	0.0255	-65.7
-0.0015	0.021	-0.0158	0.066	-65.7
-0.0046	0.0405	-0.0143	0.0652	-65.7
-0.0038	0.021	-0.0143	0.0517	-65.6
-0.0083	0.0067	-0.015	0.0195	-65.6
-0.0091	-0.0053	-0.0165	-0.042	-65.5
-0.0083	-0.027	-0.015	-0.063	-65.5
-0.0083	-0.0143	-0.0135	-0.054	-65.4
-0.006	0.0037	-0.0135	-0.0293	-65.3
-0.0038	0.0075	-0.0128	0.0202	-65.3
-0.0008	0.0165	-0.0143	0.0427	-65.3
0.0022	0.0037	-0.0203	-0.0203	-65.2
0.0007	-0.0135	-0.0256	-0.063	-65.1
0.0007	-0.0225	-0.0263	-0.0548	-65.1
-0.0008	-0.0361	-0.027	-0.0683	-65
-0.0015	-0.0308	-0.0285	-0.048	-64.9
0.0007	0.003	-0.0315	0.081	-64.9
0.0007	0.039	-0.0233	0.1402	-64.8
0.0007	0.036	-0.0105	0.0277	-64.8
-0.0015	0.027	-0.0053	0.018	-64.8
-0.0023	0.0412	-0.0053	0.0195	-64.7
0	0.0292	-0.006	-0.0233	-64.6
0.0022	-0.0023	-0.0098	-0.0361	-64.6
0.003	-0.0053	-0.0158	-0.063	-64.5
0.0007	-0.0165	-0.0195	-0.027	-64.4
-0.0008	-0.0135	-0.0195	0.0457	-64.4
-0.0023	0	-0.0188	0.1162	-64.4
-0.0046	0	-0.015	0.0577	-64.3
-0.0053	-0.0046	-0.0105	-0.0046	-64.2
-0.0046	-0.0218	-0.0105	-0.0023	-64.2
-0.0053	-0.003	-0.0143	-0.0338	-64.1
-0.0053	-0.0015	-0.0165	-0.0083	-64
-0.0015	0.0007	-0.0218	-0.024	-64
0	0.0075	-0.0248	-0.093	-63.9
0.0007	-0.0091	-0.0248	-0.0743	-63.9
-0.0008	-0.0098	-0.027	-0.0015	-63.8
-0.0008	-0.0256	-0.024	0.0502	-63.8
-0.0008	-0.0413	-0.0218	0.048	-63.7
-0.0046	-0.0465	-0.0181	-0.003	-63.6
-0.0083	-0.0098	-0.015	-0.0165	-63.6
-0.006	0.0172	-0.0143	-0.0143	-63.5
-0.0068	-0.0105	-0.012	0.0277	-63.5
-0.0075	-0.0091	-0.0105	0.003	-63.4
-0.0053	-0.0083	-0.0075	-0.0585	-63.4
-0.0053	-0.0263	-0.0091	-0.012	-63.3
-0.0053	0.0015	-0.0068	-0.027	-63.2
-0.0046	0.042	-0.003	-0.0833	-63.2
-0.003	0.0457	-0.0053	-0.0548	-63.1
-0.0015	0.024	-0.0135	0.0435	-63.1
-0.0015	-0.0165	-0.0218	0.1027	-63
-0.0046	-0.0278	-0.0218	0.1072	-63
-0.0075	-0.0181	-0.0203	0.0037	-63
-0.0083	-0.0098	-0.0165	-0.054	-62.9
-0.003	0	-0.0165	0.0112	-62.9
0.0007	-0.0098	-0.0165	0.0465	-62.8
0.0045	0.0195	-0.0143	0.0345	-62.8
0.0082	0.0195	-0.0165	-0.003	-62.8
0.0097	-0.0075	-0.0233	0.0082	-62.7
0.0112	0	-0.0248	-0.0015	-62.7
0.0105	-0.0083	-0.0225	-0.0091	-62.6
0.0105	-0.0046	-0.0203	-0.0128	-62.6
0.0105	-0.0038	-0.0188	-0.0181	-62.6
0.009	-0.003	-0.0158	-0.0165	-62.5
0.0067	0.0015	-0.0143	0.003	-62.5
0.0045	0.0045	-0.0091	0.0502	-62.4
0.0022	0.0045	-0.0128	0.0232	-62.4
-0.0008	-0.0023	-0.0203	0.0052	-62.3
-0.0015	0.0082	-0.0218	0.033	-62.3
-0.0046	0.0075	-0.0195	0.0157	-62.2
-0.0091	-0.0091	-0.0128	-0.0278	-62.2
-0.0098	-0.039	-0.012	-0.0668	-62.1
-0.0091	-0.0488	-0.0128	-0.0788	-62.1
-0.0038	-0.0203	-0.0135	0.039	-62.1
-0.003	0.033	-0.012	0.0832	-62
-0.0015	0.0705	-0.0128	-0.0488	-62
-0.0023	0.0525	-0.0173	0.0157	-61.9
-0.0075	0.0135	-0.0218	0.0495	-61.9
-0.0091	-0.0091	-0.0195	-0.0046	-61.9
-0.0046	-0.0075	-0.0165	0.0052	-61.8
0.0015	-0.0105	-0.0128	-0.0278	-61.8
0.0037	-0.0181	-0.0105	-0.0098	-61.7
0.003	-0.0165	-0.0105	-0.0143	-61.7
0.0022	-0.0165	-0.012	-0.0068	-61.7
0.0015	-0.0158	-0.0143	-0.0128	-61.6
0	-0.0128	-0.0143	-0.0188	-61.6
-0.0023	-0.003	-0.015	-0.0128	-61.5
-0.003	0.0052	-0.0128	-0.0143	-61.5
-0.0046	0.0052	-0.0135	-0.0008	-61.4
-0.003	-0.0023	-0.015	-0.003	-61.4
0.0022	-0.0068	-0.0135	-0.0023	-61.3
0.0022	-0.0091	-0.0165	-0.0181	-61.3
0.0037	-0.0091	-0.0158	-0.024	-61.2
0.0045	-0.0091	-0.0165	-0.0263	-61.2
0.0045	-0.0105	-0.0225	-0.0128	-61.2
0.0015	-0.0053	-0.0233	0.024	-61.1
-0.0008	0.0022	-0.0218	0.0547	-61.1
-0.0008	-0.0008	-0.0143	0.0405	-61
-0.0046	-0.0158	-0.0075	0.003	-61
-0.0053	-0.0285	-0.0046	-0.0075	-60.9
-0.0053	-0.0225	-0.0075	0.0067	-60.9
-0.006	-0.0038	-0.012	-0.0128	-60.8
-0.0053	-0.0046	-0.0105	-0.006	-60.8
-0.003	0.003	-0.0068	0.0465	-60.8
0.0007	0.0382	-0.0075	0.0157	-60.7
-0.003	0.048	-0.0091	-0.0053	-60.7
-0.006	0.0352	-0.0105	0.018	-60.6
-0.0068	0.0247	-0.0135	0.033	-60.6
-0.0075	0.009	-0.0135	0.0187	-60.5
-0.0098	0.0022	-0.0158	0.0022	-60.4
-0.0128	0	-0.0188	-0.0285	-60.4
-0.0135	-0.0053	-0.0188	-0.0825	-60.3
-0.012	-0.0053	-0.0203	-0.0968	-60.3
-0.0083	-0.0181	-0.0218	-0.0555	-60.2
-0.0068	-0.03	-0.0233	0.0435	-60.2
-0.003	-0.0233	-0.0225	0.0802	-60.1
-0.0038	-0.0091	-0.0218	0.003	-60
-0.0023	-0.0068	-0.0225	-0.0188	-60
-0.0015	-0.0083	-0.024	-0.003	-59.9
-0.0038	0.006	-0.0263	-0.0233	-59.9
-0.0068	0.0022	-0.0308	-0.0143	-59.8
-0.0083	-0.0023	-0.0285	-0.0465	-59.7
-0.0075	-0.0015	-0.0218	-0.015	-59.7
-0.0075	-0.0135	-0.0188	0.0232	-59.6
-0.0053	0.003	-0.0165	-0.0181	-59.6
-0.0038	0.024	-0.0143	-0.0068	-59.5
-0.0008	-0.0008	-0.0105	0.0487	-59.4
0.0022	-0.0158	-0.0083	0.0495	-59.4
0.003	0.012	-0.0053	0.0097	-59.3
0.0007	0.0307	-0.0053	0.0315	-59.3
-0.0015	0.0217	-0.0091	0.0157	-59.2
-0.003	0.0082	-0.0181	0.009	-59.1
-0.0038	0.0007	-0.0233	0.0112	-59
-0.0015	0.003	-0.024	0.0067	-59
-0.003	0.0007	-0.0225	0.0157	-58.9
-0.003	-0.0046	-0.0203	-0.0046	-58.9
-0.003	-0.0083	-0.0233	0.006	-58.8
-0.0046	-0.0195	-0.0248	-0.015	-58.7
-0.0015	-0.015	-0.0218	-0.0368	-58.7
-0.0015	-0.0091	-0.0203	-0.0248	-58.6
-0.0023	-0.0053	-0.0256	-0.0233	-58.5
