File Name: 7Nsen.log
Channel 1: 'RF', 22460 values, engineering units: mV, no filters.
Channel 2: 'BF', 22460 values, engineering units: mV, no filters.
Channel 3: 'VM', 22460 values, engineering units: mV, no filters.
Channel 4: 'ST', 22460 values, engineering units: mV, no filters.
Channel 5: 'FX', 1123 values, engineering units: deg, no filters, extrapolated from 50 to 1000 samples per second.

-0.003	-0.003	-0.0195	0.0045	-52.6
-0.0008	-0.0015	-0.0203	0.0052	-52.6
-0.0015	-0.0015	-0.0165	0.0037	-52.6
-0.0008	0	-0.0173	0.0022	-52.6
-0.0015	0.0007	-0.0195	0.0015	-52.6
-0.0008	-0.0008	-0.0195	0.003	-52.6
-0.0015	-0.0015	-0.0203	0.0037	-52.6
-0.0015	-0.0008	-0.0181	0.0037	-52.6
-0.0038	-0.0015	-0.0203	0.0045	-52.6
-0.0053	-0.0015	-0.0188	0.003	-52.6
-0.0046	-0.0008	-0.0181	0.0022	-52.5
-0.0038	-0.0015	-0.0181	0.0007	-52.5
-0.0008	-0.0015	-0.0143	0.0015	-52.5
0	-0.0015	-0.015	-0.0015	-52.5
-0.0008	-0.0015	-0.0128	-0.003	-52.5
0	-0.0008	-0.012	-0.0023	-52.5
0.0007	-0.0008	-0.0143	-0.0038	-52.5
0.0037	-0.0015	-0.0128	-0.0023	-52.5
0.0007	-0.0015	-0.0158	-0.003	-52.5
0.0007	-0.0015	-0.0135	-0.0038	-52.5
0.0007	-0.0015	-0.0143	-0.003	-52.5
0	0	-0.0165	-0.003	-52.5
0.0015	0.0015	-0.015	-0.003	-52.5
-0.0015	0.0007	-0.015	-0.0038	-52.5
0.0015	0	-0.0143	-0.0023	-52.5
0.0015	0.0007	-0.0143	-0.0015	-52.5
0.0007	0.0007	-0.012	0.0015	-52.5
-0.0008	-0.0008	-0.0128	0.0022	-52.5
-0.0008	0	-0.0165	0.0015	-52.5
0	0.0015	-0.0158	0.0015	-52.5
-0.003	0.003	-0.0135	0.0007	-52.5
-0.0053	0.0052	-0.0113	0.0015	-52.5
-0.0068	0.0045	-0.0128	0.0015	-52.5
-0.0053	0.0007	-0.012	0.003	-52.5
-0.0075	-0.0008	-0.0105	0.0022	-52.5
-0.0068	-0.0038	-0.0105	0.0015	-52.5
-0.0083	-0.0046	-0.0098	0.0015	-52.5
-0.012	-0.003	-0.012	0.0022	-52.5
-0.012	-0.0015	-0.0143	0.0007	-52.5
-0.0113	0.0007	-0.0165	0	-52.5
-0.0068	0.0007	-0.0181	-0.0008	-52.6
-0.0053	0.0007	-0.0181	-0.0008	-52.6
-0.006	0.0007	-0.0195	0	-52.6
-0.0038	-0.0015	-0.0181	0	-52.6
-0.0015	-0.0038	-0.0165	-0.0008	-52.6
-0.0008	-0.003	-0.0165	-0.0015	-52.6
-0.0008	-0.0023	-0.0158	0.0007	-52.6
-0.0038	-0.003	-0.0165	0.0007	-52.6
-0.0046	-0.0038	-0.0181	-0.0015	-52.6
-0.0046	-0.0015	-0.0173	-0.0023	-52.6
-0.003	-0.0008	-0.0188	-0.0023	-52.5
0	0	-0.0165	-0.0015	-52.5
-0.0008	0	-0.0158	0	-52.5
-0.0015	-0.0008	-0.0158	0.0007	-52.5
-0.0038	0.0015	-0.012	-0.0015	-52.5
-0.0038	0.003	-0.0158	-0.003	-52.5
-0.0046	0.003	-0.0195	-0.0038	-52.5
-0.006	0.003	-0.0203	-0.003	-52.5
-0.0053	0.0007	-0.0188	-0.0015	-52.5
-0.0038	0.0007	-0.0135	0.0007	-52.5
-0.003	0.0007	-0.0128	-0.0015	-52.5
-0.0053	0.0007	-0.0113	0.0015	-52.5
-0.0023	0.003	-0.012	0.0022	-52.5
-0.0008	0.0015	-0.0128	0.0015	-52.5
0.0007	0.0015	-0.012	0.0007	-52.5
0	0.0022	-0.0128	0.0007	-52.5
0	0.0007	-0.0135	0.0022	-52.5
0.0007	-0.0015	-0.0158	0.0015	-52.5
0.0007	-0.003	-0.0181	0.0022	-52.5
0.0015	-0.0053	-0.0181	0	-52.5
-0.0008	-0.0053	-0.0181	-0.0008	-52.5
-0.0015	-0.006	-0.0158	0.0015	-52.5
-0.0008	-0.0068	-0.0143	0	-52.5
-0.0015	-0.0046	-0.0173	-0.0008	-52.5
-0.0053	-0.0046	-0.0181	0.003	-52.5
-0.006	-0.003	-0.0181	0.003	-52.5
-0.0053	-0.003	-0.0165	0.0022	-52.5
-0.003	-0.003	-0.0165	0.0022	-52.5
-0.003	0.0007	-0.0181	0.003	-52.5
-0.0046	-0.0008	-0.0181	0.0037	-52.5
-0.0046	-0.0023	-0.0165	0.0015	-52.5
-0.0053	-0.0015	-0.0165	0.0015	-52.5
-0.0053	-0.0008	-0.0173	0.0007	-52.5
-0.0068	0	-0.0173	0.0007	-52.4
-0.0068	-0.0038	-0.0181	0.0022	-52.4
-0.0068	-0.0038	-0.0173	0.0015	-52.4
-0.0053	-0.0038	-0.0181	0.0015	-52.4
-0.0053	-0.0053	-0.0195	0.0015	-52.4
-0.0075	-0.0046	-0.0195	0.0022	-52.4
-0.0068	-0.0053	-0.0181	0.0022	-52.4
-0.003	-0.003	-0.0173	0.0007	-52.4
-0.003	-0.0015	-0.0173	-0.0008	-52.4
0.0007	-0.0015	-0.0181	-0.0015	-52.4
0.0015	-0.0015	-0.0158	-0.0023	-52.3
0.0007	-0.0008	-0.0165	-0.0015	-52.3
0.0015	0.0007	-0.0188	-0.0015	-52.3
0.003	0.0007	-0.0181	-0.0008	-52.3
0.0037	0	-0.0195	0.0007	-52.3
0.0022	-0.0015	-0.0165	0.0007	-52.3
0.003	-0.003	-0.0143	0.0007	-52.3
0.0015	-0.0046	-0.0143	0.0015	-52.3
0.0015	-0.0046	-0.0135	0.0022	-52.3
0.0045	-0.003	-0.0128	0.0007	-52.3
0.0022	-0.0038	-0.012	0	-52.3
0.0015	-0.003	-0.0181	-0.0015	-52.3
0.0007	-0.003	-0.0188	-0.0008	-52.3
0.0022	-0.003	-0.0181	-0.0008	-52.3
0.003	-0.0038	-0.0188	0	-52.3
0	-0.0046	-0.0181	0.0015	-52.3
0.0007	-0.0053	-0.0195	-0.0008	-52.3
0.0007	-0.0046	-0.0158	-0.0008	-52.3
-0.0008	-0.006	-0.0165	-0.003	-52.3
-0.0015	-0.006	-0.015	-0.003	-52.3
-0.0046	-0.003	-0.0143	-0.0023	-52.3
-0.0038	-0.0038	-0.0165	-0.0038	-52.3
-0.0053	-0.0046	-0.0158	-0.0038	-52.3
-0.0053	-0.0046	-0.0195	-0.0038	-52.3
-0.006	-0.0046	-0.0195	-0.0023	-52.3
-0.0053	-0.003	-0.021	-0.0015	-52.3
-0.0068	0	-0.0203	-0.0015	-52.3
-0.0068	0.0007	-0.0165	-0.0015	-52.3
-0.003	0	-0.0181	-0.0015	-52.3
-0.0046	0.0007	-0.0195	-0.0015	-52.3
-0.0046	-0.0015	-0.0181	-0.0015	-52.3
-0.0053	-0.0046	-0.0158	-0.0008	-52.3
-0.0046	-0.0038	-0.0128	0	-52.3
-0.0023	-0.0046	-0.0128	0	-52.3
-0.0046	-0.0053	-0.0128	-0.0008	-52.3
-0.0053	-0.0038	-0.0113	-0.0008	-52.3
-0.0075	-0.0015	-0.012	0.0015	-52.3
-0.0068	-0.003	-0.0158	0.0007	-52.3
-0.0083	-0.003	-0.0165	0.0022	-52.3
-0.0098	-0.0015	-0.0181	0.003	-52.3
-0.0075	-0.0008	-0.015	0.0015	-52.3
-0.0053	-0.0023	-0.0105	0.0015	-52.3
-0.006	-0.0023	-0.0091	0.003	-52.3
-0.0053	0.0007	-0.0091	0.0015	-52.3
-0.0015	-0.0023	-0.0083	0.0007	-52.3
-0.0008	-0.003	-0.0091	-0.0008	-52.3
-0.003	-0.0023	-0.0105	0.0007	-52.3
-0.0053	-0.003	-0.0113	0.0022	-52.3
-0.0053	-0.0015	-0.015	0	-52.3
-0.0075	-0.0015	-0.0181	0.0007	-52.3
-0.0068	-0.0008	-0.0195	0.0007	-52.3
-0.0053	-0.0023	-0.0165	0.0007	-52.3
-0.006	-0.0038	-0.0165	-0.0008	-52.3
-0.0068	-0.0053	-0.0195	-0.0038	-52.3
-0.0053	-0.006	-0.0135	-0.0046	-52.3
-0.003	-0.0068	-0.0158	-0.0038	-52.3
-0.003	-0.0046	-0.0165	-0.0023	-52.3
-0.003	-0.0023	-0.0158	-0.0008	-52.3
-0.0023	-0.003	-0.015	-0.0008	-52.3
-0.0015	-0.0015	-0.0128	-0.0008	-52.3
-0.0046	-0.0008	-0.0143	-0.003	-52.3
-0.0046	0.0007	-0.0165	-0.0023	-52.3
-0.003	-0.0015	-0.0195	-0.0008	-52.3
-0.003	-0.0008	-0.0195	-0.0008	-52.3
0.0015	-0.0008	-0.0195	0.0007	-52.3
0.0045	0	-0.0195	0.0007	-52.3
0.0082	0.0022	-0.0218	0.0007	-52.3
0.0097	0.0007	-0.0195	0.0015	-52.3
0.0082	-0.0008	-0.0128	0.0007	-52.3
0.0067	-0.003	-0.012	0.0007	-52.3
0.0052	-0.003	-0.0143	-0.0008	-52.3
0.003	-0.0015	-0.0158	0	-52.3
0.0015	-0.0015	-0.0165	0.0015	-52.3
0.0015	0.0015	-0.015	0.0037	-52.3
0.0007	0.0037	-0.0128	0.003	-52.3
0.0007	0.0022	-0.0091	0.0015	-52.3
0.0007	0.0037	-0.0068	-0.0008	-52.3
-0.0008	0.0037	-0.0098	-0.0015	-52.2
-0.0038	0.0022	-0.0135	-0.0008	-52.2
-0.0053	0.0045	-0.0181	-0.0008	-52.2
-0.0038	0.0052	-0.0181	-0.0008	-52.2
-0.003	0.006	-0.0181	0.0015	-52.2
-0.0038	0.0045	-0.0203	0.0007	-52.2
-0.003	0.0007	-0.0203	-0.0008	-52.2
-0.0023	0.0007	-0.0195	-0.0015	-52.2
-0.003	0.0015	-0.0165	-0.0008	-52.2
-0.003	0	-0.0158	0.0007	-52.2
-0.0015	-0.0008	-0.0143	0.0015	-52.2
-0.0015	0	-0.015	0.003	-52.2
-0.003	0.0007	-0.0135	0.003	-52.2
-0.003	0.003	-0.0143	0.0045	-52.2
-0.0015	0.0045	-0.0188	0.0052	-52.2
-0.0023	0.003	-0.0165	0.0045	-52.2
-0.0015	0.0037	-0.0195	0.0052	-52.2
-0.003	0.0022	-0.0203	0.006	-52.2
-0.0023	0.0007	-0.0188	0.0052	-52.2
-0.0038	-0.0015	-0.0173	0.003	-52.2
-0.0068	-0.003	-0.0158	0.0037	-52.2
-0.0068	-0.0015	-0.0173	0.003	-52.2
-0.0053	0.0007	-0.0181	0.0015	-52.2
-0.003	-0.0008	-0.0165	0.0022	-52.2
-0.0046	-0.0046	-0.0158	0.0007	-52.2
-0.0068	-0.0015	-0.0158	0.0007	-52.2
-0.0091	0.0007	-0.0158	0.0007	-52.2
-0.0075	0.0007	-0.0158	-0.0023	-52.2
-0.0091	0.003	-0.0181	-0.003	-52.2
-0.0083	0.0015	-0.0203	-0.003	-52.2
-0.0075	0.0022	-0.0195	-0.0046	-52.2
-0.0083	0.0007	-0.0181	-0.0046	-52.2
-0.003	0.0022	-0.0181	-0.0015	-52.2
-0.0023	0.0037	-0.0158	0	-52.2
-0.0008	0.0022	-0.0158	0.0015	-52.2
-0.0008	0.0007	-0.0181	0.003	-52.2
-0.0023	-0.0008	-0.0195	0.003	-52.2
-0.003	0	-0.0195	0.003	-52.2
-0.0015	-0.0008	-0.0203	0.0007	-52.1
-0.0023	-0.0023	-0.0203	0.0007	-52.1
-0.0015	-0.0015	-0.0165	0.0015	-52.1
-0.0015	-0.0015	-0.0158	0.0015	-52.1
-0.0046	-0.0015	-0.015	0.0007	-52.1
-0.0038	-0.0008	-0.012	0.0007	-52.1
-0.003	-0.0015	-0.0113	-0.0015	-52.1
-0.0023	-0.003	-0.0135	-0.003	-52.1
-0.003	-0.0046	-0.0165	-0.0008	-52.1
-0.0008	-0.0046	-0.0165	-0.0008	-52.1
0.0007	-0.0015	-0.0143	-0.0015	-52
-0.0008	0	-0.012	-0.0015	-52
0	0.0015	-0.0091	-0.0015	-52
-0.0015	0.0015	-0.0075	-0.0008	-52
0	-0.003	-0.0083	0.0007	-52
0	-0.0046	-0.0128	-0.0008	-52
-0.0023	-0.003	-0.0158	0.0007	-52
-0.0023	-0.0008	-0.0143	0.0022	-52
-0.0046	0.0007	-0.015	0.0015	-52
-0.0046	-0.0008	-0.0158	0.0015	-52
-0.0046	0.0007	-0.0158	-0.003	-52
-0.0068	-0.0015	-0.0181	-0.0015	-52
-0.0068	-0.003	-0.0173	-0.0008	-52
-0.0083	-0.0015	-0.0158	-0.0008	-52
-0.0091	-0.0008	-0.0158	-0.0008	-52
-0.0091	0.0007	-0.0173	-0.0008	-52
-0.0083	-0.0008	-0.0181	-0.0008	-52
-0.003	-0.0023	-0.0173	-0.0008	-52
-0.003	-0.0015	-0.0173	0.0007	-52
-0.003	-0.0008	-0.0165	0.0007	-52
-0.0053	0.0007	-0.0203	0	-52
-0.0083	0.0007	-0.0181	-0.0015	-52
-0.006	-0.0008	-0.0195	0	-52
-0.006	0.0007	-0.021	-0.0008	-52
-0.0068	0.0007	-0.0165	-0.003	-52
-0.0053	-0.0008	-0.0158	-0.0008	-52
-0.0015	0	-0.012	-0.0015	-52
0.0007	-0.0008	-0.0135	-0.0015	-52
0.0015	0.0007	-0.0128	0.0007	-52
0.0015	-0.0015	-0.012	-0.0023	-52
-0.0023	-0.0008	-0.0135	-0.0023	-52
-0.0038	0.0015	-0.0113	-0.0008	-52
-0.0046	0.0007	-0.0143	0.0007	-52
-0.0046	0.0022	-0.015	0.0007	-52
-0.0038	0.0007	-0.0188	-0.0015	-52
-0.0023	0.0022	-0.0195	0	-52
-0.0015	0.0022	-0.0195	-0.0015	-52
-0.0023	0	-0.0195	-0.0008	-52
-0.003	-0.0015	-0.0181	0.0007	-52
-0.0008	-0.0023	-0.0195	0	-52
-0.0015	-0.0015	-0.0203	-0.0015	-52
0.0007	-0.0015	-0.0181	-0.0008	-52
0.0037	-0.0023	-0.0158	0.0022	-52
0.0007	-0.003	-0.012	0.0015	-52
-0.0008	-0.003	-0.0113	0.0022	-52
-0.0008	-0.003	-0.0165	0.0015	-52
-0.0015	-0.0015	-0.0165	0.003	-52
-0.0008	-0.003	-0.0188	0.0037	-52
0	-0.0046	-0.0173	0.0037	-52
-0.0023	-0.0046	-0.0165	0.0045	-52
-0.0008	-0.0046	-0.0165	0.0022	-52
-0.0008	-0.0046	-0.0143	0.0022	-52
-0.0015	-0.0046	-0.0143	0.0022	-51.9
-0.003	-0.0038	-0.0091	0.0007	-51.9
-0.0015	-0.0015	-0.0083	0.0007	-51.9
0.0007	-0.0008	-0.0091	-0.0015	-51.9
0.0015	0.0007	-0.0113	-0.0023	-51.9
-0.0008	0.0007	-0.0128	-0.003	-51.9
-0.0008	-0.0008	-0.0091	-0.0046	-51.9
0.0015	-0.0015	-0.0098	-0.0015	-51.9
-0.0008	-0.0008	-0.012	-0.0046	-51.9
-0.0008	-0.0015	-0.0128	-0.0046	-51.9
-0.0015	-0.0015	-0.0165	-0.0023	-51.9
-0.0015	-0.0023	-0.0158	-0.003	-51.9
0	-0.0008	-0.0143	-0.0008	-51.9
0.0015	0.0022	-0.0135	0.0007	-51.9
0.003	0.0007	-0.0143	0	-51.9
-0.0008	-0.0008	-0.0165	0	-51.9
-0.0023	-0.0008	-0.0165	0.0007	-51.9
-0.0015	0.0007	-0.0181	0.0015	-51.9
0	0	-0.0218	0.0015	-51.9
-0.0023	-0.0023	-0.0218	0.003	-51.9
-0.0053	-0.0008	-0.0225	0.0037	-51.9
-0.0053	-0.0015	-0.0218	0.0045	-51.9
-0.0053	-0.0008	-0.0203	0.006	-51.9
-0.0023	0.0007	-0.0195	0.0052	-51.9
-0.0015	0.0007	-0.0165	0.0045	-51.9
-0.0008	0.003	-0.0165	0.003	-51.9
-0.0015	0.0007	-0.0195	0.0037	-51.9
-0.0023	0.0015	-0.0188	0.0022	-51.9
-0.0008	0.0015	-0.0195	0.003	-51.9
-0.0015	0.0007	-0.0195	0.0037	-51.9
-0.0023	0.0007	-0.0188	0.0007	-51.9
-0.003	-0.0015	-0.0188	0.0007	-51.9
-0.0023	0	-0.0143	0	-51.9
-0.0008	-0.0008	-0.0143	-0.0015	-51.9
-0.0008	-0.0008	-0.015	-0.003	-51.9
-0.0038	-0.0008	-0.0143	-0.0038	-51.9
-0.0015	-0.0008	-0.0165	-0.0046	-51.9
-0.0015	0.0007	-0.0165	-0.0053	-51.9
-0.003	0.0022	-0.0181	-0.0046	-51.9
-0.003	0.0015	-0.0165	-0.003	-51.9
-0.0068	0.0022	-0.0128	-0.003	-51.9
-0.0068	0.0022	-0.0158	-0.0008	-51.9
-0.0068	-0.0008	-0.0158	0	-51.9
-0.0053	0.0007	-0.0173	0	-51.9
-0.0015	0.0015	-0.0195	0.0007	-51.9
-0.0023	0	-0.0195	0.0007	-51.9
-0.0023	-0.0008	-0.0218	0.0007	-51.9
-0.0015	-0.0008	-0.0203	0.0022	-51.9
-0.003	-0.0015	-0.0181	0.0037	-51.9
-0.0053	-0.0015	-0.0158	0.003	-51.9
-0.0046	-0.0015	-0.0128	0.0052	-51.9
-0.0053	-0.0015	-0.0143	0.0052	-51.9
-0.0068	-0.0015	-0.0105	0.0052	-51.9
-0.0046	-0.0015	-0.0091	0.0037	-51.9
-0.003	-0.0015	-0.0091	0.0037	-51.9
-0.0008	-0.0008	-0.0113	0.003	-51.8
-0.0015	-0.0015	-0.0143	0.0007	-51.8
-0.003	-0.0015	-0.0165	0	-51.8
-0.0015	-0.0015	-0.0165	0	-51.8
-0.006	-0.0008	-0.0143	0	-51.8
-0.003	-0.0053	-0.0165	-0.0008	-51.8
-0.003	-0.0046	-0.0181	-0.0008	-51.8
-0.006	-0.0008	-0.0195	-0.0008	-51.8
-0.0068	-0.0015	-0.021	-0.0015	-51.8
-0.006	-0.0008	-0.0195	-0.0023	-51.8
-0.0046	-0.0015	-0.0203	-0.0023	-51.8
-0.006	-0.0015	-0.0195	-0.0008	-51.8
-0.0046	0	-0.0165	-0.003	-51.8
-0.0046	0	-0.0181	-0.0015	-51.8
-0.0053	0.0007	-0.0165	0.0007	-51.8
-0.0046	0.0007	-0.0143	-0.0008	-51.8
-0.0046	-0.0008	-0.0113	-0.0008	-51.8
-0.0046	-0.0015	-0.0098	-0.0015	-51.8
-0.003	-0.003	-0.012	-0.0008	-51.8
0.0007	-0.0046	-0.012	0.0015	-51.8
0.0022	-0.0015	-0.0135	0.0007	-51.8
0.0015	-0.003	-0.012	-0.0008	-51.8
0.0007	-0.0038	-0.0098	0	-51.8
-0.0015	-0.0053	-0.0105	-0.0023	-51.8
-0.0046	-0.0053	-0.012	-0.0046	-51.8
-0.0038	-0.0053	-0.0128	-0.003	-51.8
-0.0038	-0.0046	-0.0105	-0.0023	-51.8
-0.0053	-0.003	-0.0091	-0.003	-51.8
-0.006	-0.0015	-0.0113	-0.0038	-51.8
-0.0083	-0.0015	-0.0135	-0.0046	-51.8
-0.0083	-0.003	-0.0143	-0.003	-51.8
-0.0083	-0.0015	-0.0143	-0.0015	-51.8
-0.0068	0.0007	-0.0128	-0.0015	-51.8
-0.0038	0.0007	-0.0113	-0.0008	-51.8
-0.0015	-0.0008	-0.0128	-0.0008	-51.8
-0.0015	-0.0023	-0.0143	-0.0008	-51.8
0.0015	0	-0.0181	0	-51.8
0.0015	0.003	-0.0203	0	-51.8
0.0007	0.0007	-0.0203	0.0007	-51.8
0.0015	0	-0.0218	0.0007	-51.8
0.0007	-0.0008	-0.0218	0.0007	-51.8
-0.0008	0	-0.0181	0.003	-51.8
-0.0008	-0.0023	-0.0181	0.003	-51.8
-0.0008	-0.003	-0.0188	0.0037	-51.8
0.0022	0	-0.0195	0.0022	-51.8
0.0015	0.0007	-0.0181	0.0015	-51.8
0.0007	-0.0008	-0.0165	0.0007	-51.8
0.0015	-0.0015	-0.0181	0.0007	-51.8
0.0007	0.0007	-0.0165	-0.0008	-51.8
0.0007	-0.0008	-0.0195	-0.0015	-51.8
-0.0008	-0.0015	-0.0181	-0.0008	-51.8
0.0007	-0.003	-0.0181	0.0007	-51.8
0.0007	-0.003	-0.0195	0.0007	-51.8
-0.0008	-0.0008	-0.0181	0.0007	-51.8
-0.003	-0.0015	-0.0181	0.0007	-51.8
-0.0068	-0.0015	-0.0173	0	-51.8
-0.0053	-0.0015	-0.0181	-0.0015	-51.8
-0.0075	-0.0023	-0.015	-0.003	-51.8
-0.0068	-0.0046	-0.0158	-0.0015	-51.8
-0.0046	-0.0053	-0.0188	-0.0015	-51.8
-0.0053	-0.003	-0.0188	-0.0038	-51.8
-0.0015	-0.003	-0.0203	-0.0023	-51.8
-0.0015	-0.0008	-0.0181	-0.0015	-51.8
-0.003	-0.0008	-0.0181	-0.0015	-51.8
-0.0023	-0.0008	-0.0195	-0.0015	-51.8
-0.003	-0.0023	-0.0181	0.0007	-51.8
-0.003	-0.003	-0.0173	0.0015	-51.8
-0.0046	-0.0015	-0.0158	0.0007	-51.8
-0.006	-0.0015	-0.0158	0.0007	-51.8
-0.0038	-0.003	-0.0128	0.0015	-51.8
0	-0.003	-0.012	0.0037	-51.8
-0.0015	-0.0008	-0.0135	0.0045	-51.8
-0.0023	-0.0008	-0.015	0.0045	-51.8
-0.0046	0.0007	-0.0181	0.0067	-51.8
-0.0068	0.0015	-0.0188	0.006	-51.8
-0.0075	0.0007	-0.0218	0.0037	-51.8
-0.0075	0.003	-0.021	0.003	-51.8
-0.0068	0.0015	-0.0203	0.003	-51.8
-0.0053	0.0007	-0.0195	0.0015	-51.8
-0.0023	0.0007	-0.0181	0.0015	-51.8
-0.003	0	-0.0158	-0.0008	-51.8
-0.0023	-0.0008	-0.0165	-0.0008	-51.8
-0.0008	-0.0015	-0.0165	-0.0008	-51.8
-0.0023	-0.0023	-0.0158	-0.0015	-51.8
-0.0023	-0.003	-0.0203	-0.0008	-51.8
0	0	-0.0188	0	-51.7
0	-0.0008	-0.015	0	-51.7
0	-0.0015	-0.0135	-0.0015	-51.7
-0.0008	-0.0015	-0.0135	-0.003	-51.7
-0.0015	-0.003	-0.0158	-0.0008	-51.7
0.0007	-0.0008	-0.015	0	-51.7
0.0022	-0.0015	-0.012	0.0007	-51.7
0.0007	-0.0015	-0.0098	0.0007	-51.7
-0.0015	-0.0008	-0.0113	0.0007	-51.7
-0.0023	-0.0015	-0.012	-0.0008	-51.7
-0.0008	-0.0008	-0.0105	0	-51.7
-0.0015	-0.0023	-0.012	-0.0008	-51.7
-0.0046	-0.0015	-0.015	-0.0023	-51.7
-0.003	-0.0008	-0.0158	-0.0015	-51.7
-0.0046	-0.0015	-0.015	-0.0015	-51.7
-0.0046	-0.0008	-0.015	-0.0008	-51.7
-0.006	-0.0015	-0.0128	-0.0008	-51.7
-0.0083	-0.0015	-0.0091	0	-51.7
-0.0091	-0.0015	-0.0098	-0.0008	-51.7
-0.0068	-0.0023	-0.0135	-0.0008	-51.7
-0.0068	-0.0038	-0.0165	0	-51.7
-0.0068	-0.0015	-0.0181	-0.0008	-51.7
-0.0023	-0.0015	-0.0158	-0.0008	-51.7
-0.0015	-0.0015	-0.0143	-0.0008	-51.7
0	-0.0008	-0.0158	-0.0015	-51.7
0.0015	-0.0015	-0.0128	-0.0015	-51.7
0.0015	-0.0015	-0.0135	-0.003	-51.7
0.0022	-0.003	-0.0165	-0.0023	-51.7
0.0015	-0.0038	-0.0188	-0.0023	-51.7
-0.0008	-0.003	-0.0181	-0.0038	-51.7
-0.0015	-0.003	-0.0173	-0.0015	-51.7
-0.0008	-0.003	-0.0195	-0.0015	-51.7
-0.0023	-0.0015	-0.0181	-0.0015	-51.7
-0.0046	-0.0008	-0.0203	-0.0008	-51.7
-0.0091	-0.0008	-0.0195	-0.003	-51.7
-0.0098	-0.0015	-0.0173	-0.0015	-51.7
-0.0083	-0.0015	-0.0143	-0.0008	-51.7
-0.0083	-0.0008	-0.0128	-0.0008	-51.7
-0.0046	-0.0015	-0.015	-0.0008	-51.7
-0.0038	-0.0015	-0.0158	-0.0015	-51.7
-0.003	-0.0015	-0.0188	-0.0008	-51.7
-0.0023	-0.0015	-0.021	-0.0008	-51.7
-0.0008	-0.0008	-0.021	-0.0008	-51.7
-0.0015	0.0007	-0.0181	-0.0023	-51.7
-0.0008	0.0007	-0.0181	-0.003	-51.7
-0.0015	0.0007	-0.0181	-0.0008	-51.7
-0.0046	-0.0015	-0.0173	-0.0008	-51.7
-0.0046	-0.003	-0.0203	0.0022	-51.7
-0.0046	-0.003	-0.0195	0.0007	-51.7
-0.0053	-0.0046	-0.0135	0.0015	-51.7
-0.0046	-0.003	-0.0158	0.0015	-51.7
-0.0023	-0.0008	-0.0188	0.0007	-51.7
-0.0046	0.0022	-0.0173	0.0007	-51.7
-0.0015	0.0045	-0.0158	0.0015	-51.7
-0.003	0.0022	-0.0135	0.0037	-51.7
-0.003	0.0007	-0.0143	0.0022	-51.7
-0.003	-0.0015	-0.0158	0.0022	-51.7
-0.0053	-0.0023	-0.0173	0.003	-51.7
-0.003	-0.0008	-0.0188	0.0045	-51.7
-0.0008	-0.0008	-0.0188	0.0067	-51.7
-0.0008	0	-0.0188	0.0067	-51.7
-0.0008	-0.0008	-0.0165	0.0052	-51.7
-0.0023	-0.0015	-0.0135	0.003	-51.7
-0.003	-0.003	-0.0135	0.003	-51.7
-0.0023	-0.0023	-0.0128	0.0015	-51.7
0	-0.003	-0.0113	-0.0008	-51.7
-0.0015	-0.0023	-0.0135	0.0007	-51.7
-0.006	-0.0015	-0.0165	0	-51.7
-0.0053	-0.0023	-0.0143	0	-51.7
-0.0053	-0.003	-0.0128	0.0015	-51.7
-0.0038	-0.003	-0.0128	0.0015	-51.7
-0.0008	-0.0023	-0.0143	0	-51.7
0	-0.0008	-0.015	0.0015	-51.7
0.0015	-0.0008	-0.0135	-0.0008	-51.7
0	0.0007	-0.0158	-0.003	-51.7
0.0015	0.0007	-0.0158	-0.0015	-51.7
0.0007	-0.0023	-0.0173	0.0007	-51.7
-0.0015	-0.0023	-0.0165	0	-51.7
0.0007	0.0007	-0.0165	-0.0008	-51.7
0.0022	0.0015	-0.0165	-0.0008	-51.7
0.0037	0.0022	-0.0158	-0.003	-51.7
0.003	-0.0008	-0.0165	-0.003	-51.7
0.0037	-0.0008	-0.0128	-0.0038	-51.7
0.003	0	-0.0105	-0.003	-51.7
0.0045	0.0007	-0.012	-0.0015	-51.7
0.0045	0.0015	-0.0143	-0.0008	-51.7
0.0045	0.0007	-0.0158	0.0015	-51.7
0.0052	0.0015	-0.0143	0	-51.7
0.0007	0.0007	-0.0158	-0.0008	-51.7
-0.003	0.0007	-0.015	0.0007	-51.7
-0.0046	0.0007	-0.0225	0	-51.8
-0.0046	-0.0008	-0.0225	-0.0008	-51.8
-0.0038	-0.0015	-0.021	0	-51.8
-0.0053	-0.0015	-0.0233	-0.0023	-51.8
-0.006	-0.0015	-0.0218	-0.0015	-51.8
-0.0015	-0.0008	-0.0203	0.0007	-51.8
-0.0008	-0.0015	-0.0165	0.0007	-51.8
-0.0023	-0.003	-0.0128	0.0015	-51.8
-0.003	-0.003	-0.0091	0.003	-51.8
-0.0023	-0.003	-0.0083	0.0015	-51.8
-0.0053	-0.0015	-0.0113	0.0007	-51.8
-0.0068	-0.0023	-0.0135	0.0007	-51.8
-0.0068	-0.0008	-0.0143	-0.0015	-51.8
-0.0068	-0.0008	-0.0158	-0.0015	-51.8
-0.0023	-0.0008	-0.015	-0.0015	-51.8
-0.003	-0.0008	-0.0165	0	-51.8
-0.0023	-0.0023	-0.0165	0	-51.8
-0.003	-0.003	-0.012	0	-51.8
-0.0046	-0.0046	-0.0113	0.0007	-51.8
-0.0038	-0.0053	-0.012	0.0007	-51.8
-0.0075	-0.006	-0.0143	0.0007	-51.8
-0.0068	-0.0053	-0.0158	-0.0008	-51.8
-0.0068	-0.0038	-0.0181	0.0007	-51.8
-0.0068	-0.003	-0.0173	0.003	-51.8
-0.0068	-0.0023	-0.0143	0.0022	-51.8
-0.0075	-0.0015	-0.0128	0.0022	-51.8
-0.0091	-0.003	-0.0135	0.003	-51.8
-0.012	-0.003	-0.0195	0.0022	-51.8
-0.0091	-0.003	-0.0181	0.003	-51.8
-0.006	-0.0046	-0.0181	0.0015	-51.8
-0.0053	-0.0008	-0.0173	0.003	-51.7
-0.003	-0.0008	-0.0173	0.0045	-51.7
-0.0015	-0.0015	-0.0203	0.003	-51.7
-0.0023	0.0007	-0.0203	0.0045	-51.7
-0.003	-0.0008	-0.0233	0.0045	-51.7
-0.003	0	-0.0218	0.0045	-51.7
-0.0015	-0.0008	-0.0218	0.0037	-51.7
-0.0023	0.0015	-0.0233	0.003	-51.7
-0.0008	0.003	-0.0218	0.003	-51.7
-0.0015	0.0037	-0.0165	0.003	-51.7
-0.0038	0.003	-0.0143	0.0015	-51.7
-0.003	-0.0015	-0.0165	0.0015	-51.7
-0.003	0.0007	-0.0173	0.0007	-51.7
-0.0046	0.0015	-0.0158	0.0007	-51.7
-0.0015	-0.0008	-0.0105	0.0007	-51.7
0.0007	-0.0008	-0.0128	-0.0008	-51.7
-0.0015	0.0007	-0.0143	-0.0008	-51.7
-0.0015	-0.0008	-0.012	-0.0015	-51.7
-0.0015	-0.0008	-0.0143	-0.0008	-51.7
-0.0015	0.0007	-0.012	-0.003	-51.7
-0.0015	0.003	-0.0105	-0.003	-51.7
-0.0008	0.003	-0.0128	-0.0038	-51.7
0.0045	0.0015	-0.0143	-0.0053	-51.7
0.0052	0.0015	-0.0135	-0.0046	-51.7
0.0037	0.0015	-0.012	-0.0053	-51.7
0.0022	0.003	-0.0091	-0.003	-51.7
0.0015	0.0007	-0.0083	-0.0015	-51.7
0.0007	0.0007	-0.012	-0.0015	-51.7
-0.003	0.0015	-0.012	0.0007	-51.7
-0.0068	0.0015	-0.0158	-0.0015	-51.7
-0.0053	-0.0015	-0.0181	-0.0023	-51.7
-0.0046	-0.003	-0.0181	0.0007	-51.7
-0.0053	-0.0015	-0.0188	0.0007	-51.7
-0.0068	-0.0015	-0.0181	0	-51.7
-0.0046	-0.0015	-0.0218	0.0007	-51.7
-0.0046	-0.003	-0.0218	-0.0008	-51.7
-0.0046	-0.0015	-0.0218	-0.0015	-51.7
-0.003	-0.0008	-0.0181	-0.0015	-51.7
0	-0.0023	-0.0158	0	-51.7
-0.0015	-0.0008	-0.0188	-0.0015	-51.7
-0.0008	-0.0008	-0.0158	-0.0015	-51.7
-0.0008	-0.0008	-0.0135	-0.0023	-51.7
-0.003	0	-0.0113	-0.0023	-51.7
-0.0038	-0.0015	-0.0105	-0.0008	-51.7
-0.0053	-0.0023	-0.0135	0.0007	-51.7
-0.0046	-0.0023	-0.015	0.0007	-51.7
-0.0038	-0.003	-0.015	-0.0008	-51.7
-0.003	-0.0015	-0.015	0.0007	-51.7
-0.0046	-0.0008	-0.0143	0.0007	-51.7
-0.0068	-0.0015	-0.0143	0	-51.7
-0.0053	-0.0015	-0.0158	-0.0015	-51.8
-0.0068	-0.0023	-0.0181	-0.0008	-51.8
-0.0046	-0.0023	-0.0158	0.0007	-51.8
-0.0038	-0.0015	-0.0135	0.0015	-51.8
-0.0046	-0.0015	-0.0113	-0.0008	-51.8
-0.0038	-0.0008	-0.012	-0.0008	-51.8
-0.0015	0.0007	-0.0128	-0.0008	-51.8
-0.0015	0.0007	-0.0128	0	-51.8
-0.0053	0	-0.0158	0.0015	-51.8
-0.0046	0	-0.0143	0.0007	-51.8
-0.003	0	-0.015	0.0015	-51.8
-0.003	-0.003	-0.0128	0.0007	-51.8
-0.003	-0.0046	-0.0165	0.0007	-51.8
-0.0023	-0.0046	-0.0218	0.0015	-51.8
-0.003	-0.0046	-0.0188	0.0015	-51.8
-0.0053	-0.0023	-0.0188	0.0022	-51.8
-0.006	-0.003	-0.021	0.0015	-51.8
-0.0046	-0.0015	-0.0203	0	-51.8
-0.003	0	-0.0181	-0.0008	-51.8
-0.0023	0	-0.0165	-0.0008	-51.8
-0.0015	-0.0015	-0.0158	-0.0023	-51.8
0.0007	-0.0015	-0.0173	-0.0023	-51.8
-0.0015	-0.0015	-0.0165	-0.0015	-51.8
-0.003	-0.003	-0.0158	-0.0015	-51.8
-0.003	-0.003	-0.0218	-0.003	-51.8
-0.0046	-0.003	-0.0181	-0.0038	-51.8
-0.003	-0.0015	-0.0165	-0.0023	-51.8
-0.0008	-0.0015	-0.0158	-0.0008	-51.8
0	-0.0015	-0.0143	0	-51.8
0.003	-0.0008	-0.0158	0.0022	-51.8
0.0045	-0.0015	-0.0158	0.0037	-51.8
0.0015	-0.0023	-0.0143	0.0052	-51.8
-0.0008	-0.0008	-0.0143	0.0045	-51.8
0.0015	-0.0008	-0.0181	0.0052	-51.8
0.003	-0.0008	-0.0165	0.0067	-51.8
0.0022	0.0007	-0.0165	0.0075	-51.8
0.0015	0.0007	-0.0188	0.0067	-51.8
0.0007	0.003	-0.0173	0.0067	-51.8
0.0007	0.003	-0.0181	0.0052	-51.8
-0.0023	0.0015	-0.015	0.0037	-51.8
-0.003	0.003	-0.0158	0.0045	-51.8
-0.0015	0.0015	-0.0158	0.0015	-51.8
-0.0015	0.0007	-0.0143	0	-51.8
-0.003	0.0015	-0.0158	0.0007	-51.8
-0.0046	0.0045	-0.0165	-0.0015	-51.8
-0.003	0.0015	-0.0165	0	-51.8
-0.003	-0.0008	-0.0181	-0.0008	-51.8
-0.0015	-0.0008	-0.0173	-0.0015	-51.8
-0.0038	-0.003	-0.0158	-0.0008	-51.8
-0.003	-0.003	-0.0165	-0.0046	-51.8
-0.0015	-0.0053	-0.0181	-0.0046	-51.8
-0.003	-0.0053	-0.0173	-0.0046	-51.8
-0.0015	-0.0046	-0.0195	-0.0015	-51.8
-0.0046	-0.0075	-0.0218	0.0007	-51.8
-0.0068	-0.006	-0.0218	0	-51.8
-0.0046	-0.003	-0.0181	0.0007	-51.8
-0.0046	-0.003	-0.0165	0.0015	-51.8
-0.0053	-0.0023	-0.0158	0	-51.8
-0.0068	-0.0023	-0.0181	0.0015	-51.8
-0.0053	-0.003	-0.0181	0.0007	-51.8
-0.0046	-0.0038	-0.0143	-0.0015	-51.8
-0.0046	-0.0038	-0.0098	-0.0038	-51.8
-0.0046	-0.0015	-0.0098	-0.003	-51.8
-0.0046	-0.0015	-0.0143	-0.0023	-51.8
-0.0046	-0.0008	-0.0165	-0.003	-51.8
-0.0046	0	-0.015	-0.0008	-51.8
-0.0046	-0.0008	-0.012	-0.0008	-51.8
-0.0046	0.0015	-0.0105	-0.0008	-51.8
-0.0046	0.0007	-0.012	-0.0015	-51.8
-0.0053	0.0007	-0.0158	-0.0015	-51.8
-0.0015	0.0022	-0.0181	0.0007	-51.8
-0.0015	0.0015	-0.0165	-0.0015	-51.8
-0.0008	0	-0.0158	-0.003	-51.8
0	-0.0008	-0.0165	-0.003	-51.8
0.0007	-0.0008	-0.0195	-0.0008	-51.8
-0.0008	0	-0.0195	-0.0015	-51.8
-0.0008	0.0007	-0.0195	-0.0015	-51.8
-0.0023	0.0015	-0.0188	-0.0015	-51.8
-0.0015	0.0022	-0.0165	-0.0023	-51.8
-0.0015	0.0007	-0.0188	-0.0023	-51.8
-0.003	0.0015	-0.0158	-0.0023	-51.8
-0.0015	0.0015	-0.0158	-0.0015	-51.8
0	-0.0015	-0.0181	-0.0008	-51.8
-0.0008	-0.0008	-0.015	0	-51.8
-0.003	-0.0015	-0.0135	-0.0008	-51.8
-0.0015	-0.0015	-0.0128	-0.0008	-51.8
-0.0023	-0.0008	-0.0143	-0.0008	-51.8
-0.0008	-0.0008	-0.0158	-0.0008	-51.8
-0.003	-0.003	-0.0181	0.0007	-51.8
-0.0053	-0.003	-0.0165	0.003	-51.8
-0.0068	0	-0.0143	0.0052	-51.8
-0.0083	-0.0015	-0.0128	0.0067	-51.8
-0.0083	-0.0015	-0.0105	0.0052	-51.8
-0.0091	-0.0015	-0.0068	0.0015	-51.8
-0.0105	-0.0015	-0.0075	0.003	-51.8
-0.0083	-0.0015	-0.0098	0.0007	-51.8
-0.0053	-0.0023	-0.012	-0.0015	-51.8
-0.0053	-0.003	-0.0143	-0.0015	-51.8
-0.0046	-0.006	-0.0143	-0.0046	-51.8
-0.0015	-0.0046	-0.0181	-0.003	-51.8
0	-0.0023	-0.0225	-0.0008	-51.8
0.0022	-0.0023	-0.021	-0.0008	-51.8
0.0037	-0.0015	-0.0173	-0.0008	-51.8
-0.0008	-0.0008	-0.015	-0.003	-51.8
-0.0053	0	-0.0113	-0.0015	-51.8
-0.0038	-0.0023	-0.0128	0	-51.8
-0.0015	-0.003	-0.0173	0.0007	-51.8
0	-0.0023	-0.0173	0.0015	-51.8
-0.0008	-0.0008	-0.0181	0.0015	-51.8
-0.0015	-0.0015	-0.0165	0.0037	-51.8
-0.0038	-0.0015	-0.0128	0.0022	-51.8
-0.0053	-0.0023	-0.0105	0.0015	-51.8
-0.0053	-0.0046	-0.0143	0.0022	-51.8
-0.006	-0.0023	-0.0203	0.0007	-51.8
-0.0038	-0.0015	-0.0195	-0.0008	-51.8
-0.003	-0.0046	-0.0203	-0.0008	-51.8
-0.0023	-0.0046	-0.0188	-0.0008	-51.8
-0.0015	-0.0053	-0.0158	0.0007	-51.8
-0.003	-0.0015	-0.0143	0.0007	-51.8
-0.003	0.0007	-0.0143	-0.0008	-51.8
-0.0046	0.0007	-0.0158	-0.0015	-51.8
-0.003	0.0015	-0.015	-0.0023	-51.8
-0.0015	-0.0008	-0.0165	-0.0015	-51.8
0.0007	0	-0.0158	-0.0015	-51.8
0.0015	-0.0008	-0.0143	-0.0015	-51.8
0.0015	0	-0.015	-0.0008	-51.8
-0.0008	0	-0.015	-0.0015	-51.8
-0.003	-0.003	-0.0158	-0.003	-51.8
-0.0008	-0.0023	-0.0158	-0.0038	-51.8
-0.0015	-0.0008	-0.0195	-0.0008	-51.8
-0.0008	0.003	-0.0188	-0.0008	-51.8
0.0007	0.003	-0.0165	-0.0008	-51.8
0.0022	0.0037	-0.0195	-0.0008	-51.8
0.0007	0.003	-0.0158	0.0015	-51.8
-0.0008	0.0007	-0.0158	0.0022	-51.8
0.0007	0	-0.0143	0.0037	-51.8
0	-0.0008	-0.0128	0.0037	-51.8
-0.0008	0	-0.0128	0.003	-51.8
-0.0008	0	-0.012	0.0022	-51.8
-0.0023	0.0015	-0.0158	0.0007	-51.8
-0.0038	0	-0.0165	0.0015	-51.8
-0.003	-0.003	-0.0203	0.003	-51.8
-0.003	-0.0038	-0.0195	0.003	-51.8
-0.0015	-0.0038	-0.0181	0.003	-51.8
-0.0015	-0.003	-0.0195	0.003	-51.8
-0.003	-0.003	-0.0181	0.003	-51.8
-0.0053	-0.003	-0.0195	0.003	-51.8
-0.006	-0.003	-0.0173	0.003	-51.8
-0.0053	-0.003	-0.0165	0.0037	-51.8
-0.0068	-0.0023	-0.0173	0.003	-51.8
-0.0075	-0.0015	-0.015	0.003	-51.8
-0.0046	-0.0015	-0.0188	0.0015	-51.8
-0.0053	-0.003	-0.0203	-0.0008	-51.8
-0.0046	-0.0023	-0.0203	-0.0008	-51.8
-0.0038	-0.0008	-0.0195	-0.0015	-51.8
-0.0053	-0.003	-0.0195	-0.0023	-51.8
-0.0038	-0.0023	-0.0195	-0.0015	-51.8
-0.0046	-0.0015	-0.0181	0.0007	-51.8
-0.0053	0	-0.0195	0.0015	-51.8
-0.006	0.0015	-0.0181	0.003	-51.8
-0.0046	0.0022	-0.0181	0.003	-51.8
-0.0038	0.0007	-0.0195	0.0015	-51.8
-0.0038	-0.0008	-0.0158	0.003	-51.8
-0.0008	-0.0023	-0.0143	0.0007	-51.8
-0.0023	-0.003	-0.0135	0.0015	-51.8
-0.0038	-0.0046	-0.0135	0.0045	-51.8
-0.003	-0.0023	-0.0158	0.0022	-51.8
-0.0015	0.0007	-0.015	0.0007	-51.8
-0.0008	-0.0015	-0.0158	0.0007	-51.8
-0.0015	-0.003	-0.0158	0.0007	-51.8
0	-0.003	-0.0158	-0.0008	-51.8
-0.0015	-0.003	-0.0158	-0.0015	-51.8
-0.0008	-0.0038	-0.0135	-0.0008	-51.8
0.0022	-0.0015	-0.0128	-0.0015	-51.8
0.003	-0.0008	-0.0128	-0.0015	-51.8
0.0007	0.0007	-0.012	-0.0008	-51.8
-0.0008	0.0007	-0.0143	-0.0008	-51.8
-0.0015	-0.0008	-0.0165	0.0015	-51.8
-0.0008	0.0007	-0.0195	0.0015	-51.8
-0.0015	-0.0008	-0.021	0.0007	-51.8
-0.0015	0	-0.0181	-0.0008	-51.8
0.0007	0	-0.0158	-0.0023	-51.8
0.0007	0	-0.0135	-0.0008	-51.8
0	0.0007	-0.0143	-0.0008	-51.8
0	-0.0008	-0.0158	-0.0015	-51.8
-0.003	-0.0015	-0.0173	-0.0008	-51.8
-0.006	-0.0015	-0.0158	-0.0008	-51.8
-0.0046	-0.0015	-0.0158	-0.0023	-51.8
-0.003	-0.0008	-0.0143	-0.0015	-51.8
-0.0038	-0.0046	-0.0113	-0.0008	-51.8
-0.0046	-0.0053	-0.0113	-0.0008	-51.8
-0.0053	-0.003	-0.0113	-0.0023	-51.8
-0.0053	-0.003	-0.012	-0.0023	-51.8
-0.0046	-0.0023	-0.012	-0.003	-51.8
-0.0046	-0.0015	-0.0083	-0.0023	-51.8
-0.0046	-0.0015	-0.0075	-0.0023	-51.8
-0.0053	-0.0015	-0.0091	-0.003	-51.8
-0.0068	-0.0023	-0.0128	-0.003	-51.8
-0.0075	-0.0015	-0.0173	-0.003	-51.8
-0.0046	-0.0008	-0.0181	-0.0008	-51.8
-0.0038	0.0007	-0.0181	-0.0008	-51.8
-0.003	0.0007	-0.0165	-0.0008	-51.8
-0.003	-0.0008	-0.0135	-0.0008	-51.8
-0.0053	-0.0015	-0.0143	-0.0008	-51.8
-0.0053	-0.0008	-0.0165	-0.0008	-51.8
-0.0053	0.0015	-0.0188	-0.0015	-51.8
-0.0046	0.0007	-0.0181	-0.0015	-51.8
-0.0015	0.0015	-0.0181	-0.0023	-51.8
-0.0023	0.0022	-0.0181	-0.0008	-51.8
-0.0015	0.0007	-0.015	-0.0008	-51.8
-0.0023	0	-0.0143	-0.003	-51.8
-0.0015	0.0007	-0.0165	-0.0015	-51.8
-0.0015	0.0015	-0.0181	-0.0008	-51.8
-0.003	-0.0008	-0.0173	0.0015	-51.8
-0.003	0	-0.0188	0	-51.8
-0.0046	0.0007	-0.0173	0.0007	-51.8
-0.0015	0	-0.0173	0.0022	-51.8
0	0.0007	-0.0165	0.0007	-51.8
-0.0015	0.0007	-0.0143	0.0015	-51.8
-0.0023	-0.0015	-0.0158	0.0037	-51.8
-0.003	-0.0023	-0.0158	0.0022	-51.9
-0.0015	-0.0038	-0.0181	-0.0008	-51.9
0.0007	-0.0038	-0.0195	-0.0015	-51.9
-0.0008	-0.0023	-0.0218	-0.0015	-51.9
-0.0008	-0.0008	-0.021	-0.0015	-51.9
-0.003	-0.003	-0.0203	-0.0008	-51.9
-0.0053	-0.0023	-0.021	0.0007	-51.9
-0.0053	-0.0015	-0.0188	-0.0015	-51.9
-0.0068	-0.0015	-0.0165	-0.0015	-51.9
-0.0046	-0.0008	-0.0135	0	-51.9
-0.0038	-0.0008	-0.012	-0.0023	-51.8
-0.0015	-0.0015	-0.0173	-0.0015	-51.8
-0.0015	-0.0038	-0.021	-0.0008	-51.8
-0.003	-0.0038	-0.0181	0.0007	-51.8
-0.0023	-0.0023	-0.0143	0	-51.8
0.0007	0	-0.0105	0.0007	-51.8
0.0007	0.0015	-0.0105	0	-51.8
-0.0008	-0.0008	-0.012	-0.0008	-51.8
-0.0015	-0.0015	-0.0113	0.0015	-51.8
0	-0.0008	-0.0105	0.0015	-51.8
0.0015	-0.0015	-0.0098	0.0015	-51.8
-0.0015	-0.0015	-0.0113	0.0015	-51.8
-0.0038	-0.0023	-0.012	0.0007	-51.8
-0.0015	-0.003	-0.0143	0.0007	-51.8
-0.0008	-0.0015	-0.0181	-0.0008	-51.8
0	-0.0015	-0.0195	0	-51.8
-0.0008	-0.0038	-0.0195	0.0007	-51.8
0	-0.003	-0.0173	-0.0008	-51.8
0.0007	-0.003	-0.0195	0	-51.8
-0.0023	-0.0023	-0.0203	0.0007	-51.8
-0.0046	-0.003	-0.0203	0.0015	-51.8
-0.0053	-0.0046	-0.0203	0.0015	-51.8
-0.006	-0.0015	-0.0195	0.0015	-51.8
-0.006	-0.0008	-0.0218	0.0015	-51.8
-0.0053	-0.0015	-0.0181	0	-51.8
-0.0046	-0.0015	-0.0165	0.0007	-51.8
-0.0038	-0.0023	-0.0158	0	-51.8
-0.0046	-0.0008	-0.0158	-0.0008	-51.8
-0.0053	-0.0015	-0.0158	-0.0008	-51.8
-0.0046	-0.0015	-0.0128	-0.0008	-51.8
-0.003	0.0022	-0.0143	-0.0008	-51.9
-0.0023	0.0015	-0.0173	-0.0008	-51.9
-0.0053	0.003	-0.015	-0.0008	-51.9
-0.0046	0.0015	-0.012	-0.0008	-51.9
-0.0053	0	-0.0128	0.0007	-51.9
-0.0053	0.0022	-0.0158	0.0022	-51.9
-0.0068	0.003	-0.0158	0.0015	-51.9
-0.0091	0.0037	-0.0158	0.003	-51.9
-0.0068	0.0037	-0.015	0.0022	-51.9
-0.0053	0.003	-0.0165	0	-51.9
-0.0046	0.0015	-0.0188	0.0007	-51.9
-0.0015	0.0015	-0.0165	0.0007	-51.9
0.0007	0.0015	-0.0143	0.0015	-51.9
0.0015	0.0007	-0.0135	0.0015	-51.9
0.003	-0.0008	-0.0165	0.0022	-51.9
0.003	-0.003	-0.0181	0.0007	-51.9
0.0045	-0.003	-0.0203	0.0015	-51.9
0.0052	-0.0023	-0.021	0.0007	-51.9
0.0045	-0.0015	-0.021	0.0015	-51.9
0.006	-0.0023	-0.0195	0.0015	-51.9
0.003	-0.0046	-0.0158	0.0007	-51.9
-0.0015	-0.0046	-0.0143	0	-51.9
-0.0046	-0.0015	-0.0158	0.0015	-51.9
-0.0008	-0.003	-0.015	0.0015	-51.9
-0.0008	-0.003	-0.0143	0.0007	-51.9
-0.0053	-0.003	-0.0143	0.0007	-51.9
-0.0068	-0.003	-0.012	-0.0008	-51.9
-0.0053	-0.0008	-0.0098	0	-51.9
-0.0038	-0.0015	-0.012	0	-51.9
-0.003	-0.003	-0.0128	0	-51.9
-0.0015	-0.003	-0.0128	0.0015	-51.8
-0.0023	-0.003	-0.0105	0.0007	-51.8
-0.0053	-0.0015	-0.0128	0.0007	-51.8
-0.0053	-0.0023	-0.015	0	-51.8
-0.006	-0.003	-0.0165	0	-51.8
-0.0053	-0.0046	-0.0165	0.0007	-51.8
-0.0038	-0.003	-0.0143	0.0015	-51.8
-0.0015	-0.003	-0.0173	0.0015	-51.8
-0.0008	-0.0038	-0.0143	0.0022	-51.8
-0.0008	-0.0008	-0.0128	0.0022	-51.8
0.0007	-0.0008	-0.0165	0.0007	-51.8
0	-0.0015	-0.0158	0.0015	-51.8
-0.003	0.0015	-0.0143	0.0007	-51.8
-0.0038	0.0015	-0.012	0.0007	-51.8
-0.003	-0.0015	-0.0128	-0.0008	-51.8
-0.0015	-0.003	-0.0158	-0.0015	-51.8
-0.0015	-0.0023	-0.0158	0	-51.8
-0.003	-0.003	-0.015	0.0007	-51.8
-0.003	-0.0038	-0.0188	0	-51.8
-0.0038	-0.0023	-0.021	-0.0023	-51.8
-0.003	-0.0038	-0.0203	-0.0038	-51.8
-0.0015	-0.0015	-0.0195	-0.0038	-51.8
-0.0046	0.0022	-0.0203	-0.0038	-51.8
-0.0015	0.003	-0.0233	-0.0046	-51.8
-0.0023	0.0045	-0.0195	-0.003	-51.8
-0.0038	0.0045	-0.0158	-0.0023	-51.8
-0.003	0.0022	-0.0173	-0.0015	-51.8
-0.003	0.0015	-0.0165	-0.0015	-51.8
0	0	-0.0165	-0.0023	-51.8
0.0007	0.0007	-0.0173	0.0007	-51.8
0.003	0.0007	-0.015	0.0007	-51.9
0.0007	-0.0015	-0.0158	0.0007	-51.9
-0.0008	-0.0038	-0.0143	0.0007	-51.9
-0.0023	-0.0046	-0.0128	0.0015	-51.9
-0.0046	-0.0046	-0.015	0	-51.9
-0.0046	-0.0038	-0.0135	-0.0015	-51.9
-0.0023	-0.0015	-0.0128	0	-51.9
-0.003	-0.0015	-0.0128	0.0007	-51.9
-0.0053	0.0007	-0.0128	0.0015	-51.9
-0.006	0.0015	-0.0158	0.0007	-51.9
-0.0046	0.0015	-0.0195	-0.0008	-51.8
-0.0008	0.0007	-0.0195	-0.0015	-51.8
-0.0015	0	-0.0203	-0.0015	-51.8
0	-0.0008	-0.0218	-0.0023	-51.8
-0.0008	-0.0023	-0.0195	-0.0015	-51.8
-0.003	-0.0008	-0.0181	-0.0015	-51.8
-0.0046	0.0015	-0.0165	-0.0015	-51.8
-0.0053	0.0007	-0.012	-0.003	-51.8
-0.0068	0.0007	-0.0128	-0.0008	-51.8
-0.006	0.0007	-0.0135	0.0015	-51.8
-0.0053	-0.0023	-0.0181	0.0015	-51.8
-0.0068	-0.0023	-0.0195	0.003	-51.8
-0.0068	-0.003	-0.0165	0.003	-51.8
-0.0083	-0.003	-0.0165	0.0037	-51.8
-0.0083	-0.0046	-0.012	0.003	-51.8
-0.0083	-0.003	-0.0113	0.0045	-51.8
-0.0083	-0.0008	-0.0105	0.0067	-51.8
-0.0098	-0.0015	-0.0105	0.0045	-51.8
-0.0091	0	-0.012	0.0045	-51.8
-0.0098	-0.0008	-0.0091	0.0045	-51.8
-0.0091	-0.0023	-0.0128	0.0045	-51.8
-0.0068	-0.0053	-0.015	0.0045	-51.8
-0.0046	-0.0053	-0.0165	0.003	-51.8
-0.003	-0.003	-0.0181	0.003	-51.8
-0.0008	-0.0023	-0.0165	0.0007	-51.8
0	-0.0015	-0.0195	0.0007	-51.8
-0.0008	0.0015	-0.0195	0.0015	-51.8
-0.0023	0.0022	-0.0173	0.0022	-51.8
-0.0015	0	-0.0165	0.0022	-51.8
0.0007	0.0007	-0.0181	0.0007	-51.8
0	0.0007	-0.0165	0.0015	-51.9
0	0.0007	-0.0158	0.0015	-51.9
-0.0008	0.0007	-0.0143	0.0007	-51.9
0.0015	-0.0023	-0.015	0	-51.9
0.003	-0.0023	-0.0143	-0.0015	-51.9
0.003	-0.0015	-0.0135	-0.0023	-51.9
0.0037	0.0007	-0.0143	-0.0015	-51.9
0	0.0007	-0.0143	0	-51.9
-0.0008	0.0015	-0.0135	0.0007	-51.9
-0.0015	0.0007	-0.0143	0.0015	-51.9
-0.0015	-0.0015	-0.0158	0.0015	-51.9
0.003	-0.0023	-0.0143	-0.0008	-51.9
0.0022	-0.003	-0.0158	-0.0015	-51.9
0.003	-0.003	-0.0181	-0.0008	-51.9
0	-0.0046	-0.0188	0.0007	-51.9
-0.003	-0.003	-0.0203	-0.0008	-51.9
-0.003	-0.0015	-0.0203	-0.0008	-51.9
-0.0046	-0.0015	-0.021	-0.0008	-51.9
-0.0075	-0.0008	-0.0173	-0.003	-51.9
-0.0091	-0.0015	-0.0173	-0.0053	-51.9
-0.0105	-0.0008	-0.0181	-0.0046	-51.9
-0.0091	-0.0023	-0.0135	-0.0046	-51.9
-0.0068	-0.003	-0.0158	-0.0038	-51.9
-0.0046	-0.0015	-0.0181	-0.0046	-51.9
-0.003	-0.0008	-0.0203	-0.0046	-51.9
0	-0.0008	-0.0173	-0.0015	-51.9
0.0007	-0.0008	-0.015	-0.0015	-51.9
-0.0008	-0.0008	-0.0173	-0.0008	-51.9
-0.0008	-0.0008	-0.0143	0.0007	-51.9
-0.0015	0.0007	-0.012	0.0007	-51.9
-0.0008	-0.0015	-0.012	0.0022	-51.9
-0.0015	-0.0015	-0.012	0.0015	-51.9
-0.003	-0.0023	-0.0158	0.0007	-51.9
-0.003	-0.003	-0.0158	-0.0015	-51.9
0.0007	-0.003	-0.0181	-0.0008	-51.9
0.0015	-0.0053	-0.021	-0.0008	-51.9
-0.0008	-0.0038	-0.0158	-0.0008	-51.9
0.003	-0.003	-0.0143	-0.0008	-51.9
0.003	-0.0038	-0.0105	0.0007	-51.9
0.0022	-0.0046	-0.0113	0.0022	-51.9
-0.0015	-0.0038	-0.0143	0.0015	-51.9
-0.003	-0.0008	-0.0135	0.003	-51.9
-0.0046	-0.0008	-0.0143	0.003	-51.9
-0.0068	-0.0008	-0.0105	0.0015	-51.9
-0.0053	0.0007	-0.012	0.0007	-51.9
-0.0046	0.0007	-0.0135	0	-51.9
-0.0068	0.0007	-0.0158	-0.0008	-51.9
-0.0053	0.0007	-0.0181	-0.0008	-51.9
-0.003	0.0015	-0.0165	-0.0015	-51.9
-0.0053	-0.0008	-0.0188	-0.0023	-51.9
-0.0053	-0.0015	-0.0203	-0.0015	-51.9
-0.006	0	-0.0218	-0.0023	-51.9
-0.0046	-0.0008	-0.0233	-0.0008	-51.9
-0.0046	0	-0.0218	-0.0008	-51.9
-0.0038	0.0015	-0.0203	0.0007	-51.9
-0.0008	0.0007	-0.015	0.0015	-51.9
-0.0015	-0.003	-0.0158	0.0022	-51.9
-0.0023	-0.0015	-0.0173	0.0037	-51.9
-0.0038	-0.0008	-0.015	0.003	-51.9
-0.003	-0.0015	-0.0143	0.0022	-51.9
-0.0008	-0.0008	-0.0143	0.0015	-51.9
-0.0008	-0.0008	-0.0128	0.0045	-51.9
-0.0015	0.0007	-0.0143	0.0037	-51.9
0	-0.0008	-0.0165	0.0022	-51.9
-0.0008	0	-0.0181	0.0015	-51.9
-0.0015	-0.0008	-0.0181	0.0007	-51.9
-0.0015	-0.0008	-0.0195	0.0007	-51.9
0	0.0007	-0.0188	-0.0008	-51.9
0.0037	0	-0.0181	-0.0015	-51.9
0.003	0.0007	-0.0158	-0.0008	-51.9
0.003	0.0015	-0.015	-0.0008	-51.9
0.003	0.0007	-0.0158	0	-51.9
0.0007	-0.0008	-0.0165	0.0022	-51.9
0	0.0015	-0.0173	0.0015	-51.9
-0.0015	0.0007	-0.0181	-0.0023	-51.9
-0.0015	0	-0.0173	-0.0015	-51.9
-0.003	-0.0008	-0.0158	-0.0008	-51.9
-0.0053	-0.0038	-0.0165	-0.0015	-51.9
-0.003	-0.0023	-0.015	-0.0015	-51.9
-0.0008	-0.0015	-0.0165	-0.0015	-51.9
-0.003	-0.003	-0.0165	-0.003	-51.9
-0.0053	-0.0015	-0.0158	-0.0008	-51.9
-0.006	-0.0008	-0.0181	-0.0015	-51.9
-0.0053	-0.0015	-0.0173	-0.0023	-51.9
-0.003	-0.0015	-0.0173	-0.0015	-51.9
-0.006	-0.0015	-0.0158	-0.0038	-51.9
-0.006	-0.0023	-0.0143	-0.0038	-51.9
-0.003	-0.0008	-0.0128	-0.0015	-51.9
-0.0038	-0.0015	-0.012	0.0007	-51.9
-0.0015	-0.0015	-0.0158	0.0015	-51.9
-0.003	-0.0015	-0.0158	0.0007	-51.9
-0.003	-0.0023	-0.0143	0	-51.9
-0.0046	-0.003	-0.0143	-0.0008	-51.9
-0.0046	-0.003	-0.0128	-0.0008	-51.9
-0.0046	-0.0038	-0.0135	0.0007	-51.9
-0.0068	-0.0023	-0.0188	0.0015	-51.9
-0.0046	-0.0023	-0.0233	0.0015	-51.9
-0.0053	-0.0008	-0.024	-0.0008	-51.9
-0.003	0.0007	-0.0203	-0.0008	-51.9
-0.0008	0.0007	-0.0181	0.0007	-51.9
0.0007	-0.0008	-0.0181	0	-51.9
-0.0015	-0.0015	-0.0128	-0.0015	-51.9
0.0007	-0.0015	-0.0135	-0.0008	-51.9
0.0015	-0.003	-0.0128	0	-51.9
0.0007	-0.0023	-0.012	0.0007	-51.9
0.0007	-0.0015	-0.0128	0.0015	-51.9
0.0007	0	-0.0135	0.0007	-51.9
0.0037	0.0022	-0.0113	0.0015	-51.9
0.0052	0	-0.0091	-0.0008	-51.9
0.006	-0.0008	-0.0091	-0.0015	-51.9
0.0052	-0.0008	-0.0098	-0.0008	-51.9
0.003	-0.003	-0.0083	-0.0008	-51.9
0	-0.003	-0.0068	0.0007	-51.9
-0.0046	-0.0023	-0.012	0.0007	-51.9
-0.0046	-0.0015	-0.0143	0	-51.9
-0.0053	-0.0008	-0.0165	0.0007	-51.9
-0.0083	0.0007	-0.0173	0.0015	-51.9
-0.0068	0.0007	-0.0188	0.0022	-51.9
-0.0053	-0.0015	-0.0181	0.0007	-51.9
-0.0038	-0.003	-0.0128	-0.0008	-51.9
-0.003	-0.003	-0.012	0.0022	-51.9
-0.0038	-0.0015	-0.012	0.0007	-51.9
-0.0053	-0.0015	-0.0143	0	-51.9
-0.006	-0.003	-0.0158	-0.0015	-51.9
-0.003	-0.003	-0.0181	-0.0023	-51.9
-0.0053	-0.003	-0.0181	-0.0008	-51.9
-0.006	-0.0008	-0.0203	-0.0015	-51.9
-0.0053	0.0007	-0.0203	-0.003	-51.9
-0.0046	0.0007	-0.0218	-0.0023	-51.9
-0.0053	0.0007	-0.0248	-0.0008	-51.9
-0.0068	-0.0015	-0.0218	0.0007	-51.9
-0.0053	-0.003	-0.0225	0.0007	-51.9
-0.0046	-0.0038	-0.0195	0.0015	-51.9
-0.0053	-0.0015	-0.0188	0.003	-51.9
-0.0046	-0.0008	-0.0181	0.0022	-51.9
-0.0015	-0.0015	-0.0158	0.0007	-51.9
-0.0015	-0.0008	-0.0181	0.0015	-51.9
-0.0046	0.0007	-0.0165	0.0015	-51.9
-0.003	0.0015	-0.0181	0.0015	-51.9
-0.0038	0	-0.0173	0.0007	-51.9
-0.0046	0	-0.0158	0.0007	-51.9
-0.0046	-0.0008	-0.0181	0.0015	-51.9
-0.0053	-0.0015	-0.0165	0.0015	-51.9
-0.0038	-0.0015	-0.0181	0.0015	-51.9
-0.0075	-0.0023	-0.0158	0.0007	-51.9
-0.0068	0.0015	-0.0135	0.0022	-51.9
-0.0075	0.0007	-0.0135	0.0015	-51.9
-0.0091	-0.0008	-0.0128	0	-51.9
-0.0053	0.0007	-0.0158	0.0015	-51.9
-0.0046	-0.0008	-0.0165	0.003	-51.9
-0.0046	-0.003	-0.0181	0.0052	-51.9
0	-0.0015	-0.0173	0.0015	-51.9
0.0015	-0.003	-0.0173	0.0015	-51.9
0.0015	-0.0038	-0.0158	0.0007	-51.9
0.0022	-0.0008	-0.0135	-0.0008	-51.9
-0.0015	-0.0015	-0.0128	-0.0015	-51.9
-0.0046	-0.003	-0.012	-0.003	-51.9
-0.0053	-0.0046	-0.0128	-0.003	-51.9
-0.0038	-0.0023	-0.0128	-0.003	-51.9
-0.0053	-0.0015	-0.015	-0.0038	-51.9
-0.0046	-0.0038	-0.0158	-0.0023	-51.9
-0.0046	-0.003	-0.0143	-0.0023	-51.9
-0.0053	-0.0046	-0.0165	-0.0008	-51.9
-0.0015	-0.003	-0.0158	0	-51.9
-0.0008	-0.0015	-0.0181	-0.0008	-51.9
-0.0008	-0.0023	-0.0181	0	-51.9
-0.0008	-0.0015	-0.0143	-0.0008	-51.9
0.0015	-0.0015	-0.0128	0.0007	-51.9
0.0015	-0.0015	-0.0135	0.0007	-51.9
0.0015	-0.0023	-0.0165	0.0015	-51.9
0.0007	-0.0015	-0.0165	0.0037	-51.9
-0.0008	-0.0023	-0.0158	0.0037	-51.9
0.0007	-0.0023	-0.0158	0.0045	-51.9
-0.0008	-0.0008	-0.0158	0.0045	-51.9
-0.0008	-0.0008	-0.0165	0.003	-51.9
-0.003	0.0007	-0.0165	0.0022	-51.9
-0.003	0.0007	-0.0165	0.0022	-51.9
-0.0046	0.0015	-0.0158	0.003	-51.9
-0.0053	0.003	-0.0158	0.0022	-51.9
-0.0015	0.0045	-0.0135	0.0007	-51.9
-0.0015	0.0037	-0.0143	-0.0008	-51.9
0.0007	0.0015	-0.0165	-0.0015	-51.9
-0.0015	0.0015	-0.015	-0.0008	-51.9
-0.0053	0.0022	-0.0165	-0.0015	-51.9
-0.0068	0.0015	-0.0165	-0.0015	-51.9
-0.003	0.0007	-0.0128	-0.0015	-51.9
-0.0008	0.0007	-0.0128	-0.0015	-51.9
-0.0008	0.0015	-0.0128	-0.0015	-51.9
0.0007	0.0015	-0.012	-0.0008	-51.9
-0.0023	0.0015	-0.0128	0.0007	-51.9
-0.0038	0.0037	-0.0143	0.0007	-51.9
-0.0038	0.003	-0.0165	-0.0008	-51.9
-0.0046	0.0007	-0.0188	0	-51.9
-0.0046	-0.003	-0.0203	0.0007	-51.9
-0.003	-0.0038	-0.0181	-0.0008	-51.9
-0.0008	-0.003	-0.0181	-0.0008	-51.9
-0.0023	-0.0015	-0.0195	-0.0008	-51.9
-0.0038	0.0007	-0.0173	-0.0008	-51.9
-0.0046	-0.0015	-0.0195	-0.0015	-51.9
-0.0023	-0.0015	-0.0195	-0.003	-51.9
0.0015	-0.0015	-0.0195	-0.0015	-51.9
0.0015	-0.003	-0.0181	-0.0023	-51.9
0.003	-0.0023	-0.0173	-0.0015	-51.9
0.0007	-0.0008	-0.0165	-0.0015	-51.9
-0.0015	-0.003	-0.0143	-0.0015	-51.9
-0.0023	-0.0046	-0.0143	0	-51.9
-0.0008	-0.0015	-0.0135	0.0007	-51.9
-0.0015	-0.0038	-0.0143	0.0015	-51.9
-0.0046	-0.0046	-0.0158	0	-51.9
-0.0046	-0.0023	-0.0135	-0.0015	-51.9
-0.006	-0.0038	-0.0158	-0.0015	-51.9
-0.0068	-0.0023	-0.015	-0.003	-51.9
-0.006	-0.0015	-0.015	-0.0046	-51.9
-0.0053	-0.0008	-0.0135	-0.0046	-51.9
-0.006	-0.003	-0.0128	-0.006	-51.9
-0.0083	-0.006	-0.0113	-0.0068	-51.9
-0.0091	-0.0038	-0.012	-0.0046	-51.9
-0.0098	-0.003	-0.0158	-0.0038	-51.9
-0.0068	-0.0053	-0.0165	-0.0023	-51.9
-0.0053	-0.0038	-0.0158	-0.0023	-51.9
-0.0046	-0.0015	-0.0158	-0.0008	-51.9
-0.0038	-0.0023	-0.0143	-0.0008	-51.9
-0.0046	0	-0.0181	-0.0015	-51.9
-0.003	0.0007	-0.0181	-0.0008	-51.9
-0.0008	0.0007	-0.0195	-0.0015	-51.9
-0.003	0.0015	-0.0203	0.0007	-51.9
-0.0046	0.0007	-0.0188	0.0015	-51.9
-0.003	0.0022	-0.0233	0.0015	-51.9
-0.003	0.0007	-0.0225	0.0015	-51.9
-0.0015	0	-0.0195	0.0015	-51.9
-0.0023	0.0007	-0.0181	0.0015	-51.9
-0.0038	0.0015	-0.0173	0.003	-51.9
-0.0046	0.0052	-0.0158	0.0045	-51.9
-0.0038	0.0045	-0.0143	0.0045	-51.9
-0.0008	0.0045	-0.0173	0.003	-51.9
0	0.0045	-0.0165	0.0037	-51.9
-0.0038	0.003	-0.0158	0.0052	-51.9
-0.0053	-0.0008	-0.0173	0.0067	-51.9
-0.0046	-0.0015	-0.0195	0.0082	-51.9
-0.0038	-0.0008	-0.0181	0.0082	-51.9
-0.003	-0.0008	-0.0173	0.0075	-51.9
-0.0038	0.0007	-0.0165	0.0067	-51.9
-0.0053	-0.0015	-0.015	0.0075	-51.9
-0.0083	-0.0015	-0.0165	0.0037	-51.9
-0.0046	-0.0038	-0.0143	0.0015	-51.9
-0.003	-0.0046	-0.012	0.0022	-51.9
-0.0038	-0.003	-0.012	0.0037	-51.9
-0.0015	-0.0023	-0.0091	0.003	-51.9
-0.003	-0.003	-0.012	0.003	-51.9
-0.0015	-0.0046	-0.0128	0.0045	-51.9
-0.0015	-0.003	-0.0165	0.0045	-51.9
0.003	-0.0046	-0.0203	0.0052	-51.9
0.0045	-0.0053	-0.0203	0.0045	-51.9
0.0037	-0.003	-0.0203	0.0037	-51.9
0.0022	-0.0023	-0.0181	0.0037	-51.9
-0.0008	-0.003	-0.015	0.003	-51.9
0.0007	-0.003	-0.0135	0.0045	-51.9
0.0015	-0.0015	-0.0128	0.003	-51.9
0.0007	-0.0015	-0.0135	0.0007	-51.9
0.0015	-0.0008	-0.0143	0.0022	-51.9
0.0015	0.0007	-0.012	0.0007	-51.9
-0.0008	0	-0.0128	0.0007	-51.9
-0.003	-0.0008	-0.0143	0.0007	-51.9
-0.003	-0.0008	-0.0128	0.0007	-51.9
-0.0008	-0.0015	-0.0135	0.0015	-51.9
-0.0008	0.0007	-0.012	0.0007	-51.9
0	0	-0.0105	0.0015	-51.9
0	-0.003	-0.0143	0.0007	-51.9
0.0015	-0.0015	-0.0195	0.003	-51.9
0.0015	-0.0015	-0.0203	0.003	-51.9
-0.0015	-0.0008	-0.0203	0.003	-51.9
-0.0015	-0.0008	-0.0218	0.003	-51.9
-0.003	-0.0015	-0.0195	0.0015	-51.9
-0.003	-0.0015	-0.0203	-0.0015	-51.9
-0.0008	-0.003	-0.0218	-0.0015	-51.9
-0.0023	-0.0038	-0.0195	-0.0023	-51.9
-0.003	-0.0038	-0.0195	-0.0038	-51.9
-0.0023	-0.0008	-0.0181	-0.0053	-51.9
0.0015	0.0007	-0.0135	-0.0046	-51.9
0.0007	0.0007	-0.012	-0.0038	-51.9
-0.0008	0.0007	-0.012	-0.0038	-52
-0.003	-0.0008	-0.0128	-0.003	-52
-0.0046	0.0007	-0.0143	-0.0008	-52
-0.0038	0	-0.0158	-0.0008	-52
-0.0046	-0.0008	-0.0165	-0.0008	-52
-0.0015	0.0007	-0.0143	-0.0008	-52
-0.0015	0.0007	-0.015	-0.0023	-52
-0.003	0.0015	-0.0158	-0.0008	-52
-0.0046	0.0015	-0.0158	-0.0008	-52
-0.003	0.0015	-0.0173	-0.0008	-52
-0.0023	0.0015	-0.0143	-0.0008	-52
-0.003	0	-0.0143	-0.0015	-52
-0.0046	0.0007	-0.0158	-0.0015	-52
-0.003	0.0015	-0.0173	-0.0015	-52
-0.0053	-0.0008	-0.0188	-0.0023	-52
-0.0068	-0.003	-0.0188	-0.0015	-52
-0.0046	-0.0015	-0.0181	-0.0023	-52
-0.0046	-0.0046	-0.0181	-0.0038	-52
-0.003	-0.0038	-0.0158	-0.0053	-52
-0.0053	-0.0015	-0.0128	-0.0053	-52
-0.0046	-0.0015	-0.0135	-0.0053	-52
-0.0023	0.0007	-0.0128	-0.0046	-52
-0.0015	0.0022	-0.0143	-0.0068	-52
-0.0008	0	-0.0128	-0.0068	-52
-0.0046	-0.0023	-0.012	-0.0046	-52
-0.0046	-0.0023	-0.0105	-0.0053	-52
-0.0075	-0.003	-0.0128	-0.0046	-52
-0.0068	-0.0023	-0.0158	-0.006	-52
-0.0038	-0.003	-0.0165	-0.0046	-52
-0.0015	-0.0046	-0.0181	-0.003	-52
-0.0015	-0.0046	-0.0165	-0.0015	-52
-0.003	-0.0046	-0.0158	0.0007	-52
-0.0015	-0.003	-0.0143	0.0007	-52
-0.0046	-0.0015	-0.0165	0.0045	-52
-0.0046	-0.0015	-0.0165	0.0045	-52
-0.0053	-0.003	-0.0143	0.0045	-52
-0.0075	-0.0023	-0.0158	0.003	-52
-0.0053	-0.0023	-0.0143	0.0015	-52
-0.0046	-0.0015	-0.0143	0.0007	-52
-0.0015	-0.0015	-0.0135	0.0015	-52
0.0007	-0.0008	-0.0143	0.0007	-52
0.0007	-0.0008	-0.0143	-0.0015	-52
0.0007	0.0015	-0.0128	0.0007	-52
0.0007	0.0022	-0.0158	0.0015	-52
0.0007	-0.0015	-0.0188	0.0007	-52
0.003	-0.0015	-0.0188	-0.0008	-52
-0.0008	-0.003	-0.0165	0.0007	-52
-0.003	-0.0023	-0.0143	0.0007	-52
-0.0023	-0.0008	-0.0143	0.0007	-52
-0.0038	-0.003	-0.015	0.0007	-52
-0.0046	-0.0023	-0.012	0	-52
-0.0046	-0.0023	-0.0158	-0.0015	-52
-0.003	-0.0023	-0.0165	-0.003	-52
-0.0015	-0.0015	-0.0158	-0.003	-52
-0.0015	0	-0.015	-0.003	-52
0	0.0022	-0.0158	-0.0015	-52
0.0022	0.0022	-0.0181	-0.0008	-52
0.0022	0.0022	-0.0195	-0.0008	-52
0	0.0037	-0.0203	0.0007	-52
-0.0015	0.0015	-0.0203	0.0022	-52
-0.0015	-0.0015	-0.0195	0	-52.1
-0.003	-0.0015	-0.0218	0.0007	-52.1
-0.0053	-0.003	-0.0233	0.003	-52.1
-0.0023	-0.0023	-0.0233	0.0045	-52.1
-0.0023	-0.0015	-0.0225	0.0045	-52.1
-0.003	-0.0038	-0.0188	0.003	-52.1
-0.0015	-0.0046	-0.0181	0.0037	-52.1
-0.0023	-0.003	-0.0165	0.003	-52.1
-0.0015	-0.0023	-0.0143	0.0022	-52.1
-0.003	-0.003	-0.0181	0.0022	-52.1
-0.0038	-0.0046	-0.0165	0.003	-52.1
-0.0068	-0.0046	-0.015	0.0037	-52.1
-0.0091	-0.0038	-0.0158	0.0045	-52.1
-0.0075	-0.003	-0.0165	0.0037	-52.1
-0.0038	-0.0008	-0.0181	0.0045	-52.1
-0.0038	-0.0008	-0.0165	0.0045	-52.1
-0.0046	-0.0015	-0.015	0.003	-52.1
-0.0053	0.0007	-0.0128	0.0007	-52.1
-0.0075	0	-0.0091	-0.0015	-52.1
-0.0068	-0.0023	-0.0105	-0.0015	-52.1
-0.0068	-0.0015	-0.012	-0.0015	-52.2
-0.0046	-0.0015	-0.0113	-0.0008	-52.2
-0.0023	0	-0.0105	-0.0015	-52.2
-0.003	0	-0.0105	0	-52.2
-0.0008	-0.0008	-0.0158	-0.0015	-52.2
0.0007	-0.0015	-0.0173	-0.003	-52.2
0	-0.0008	-0.0195	-0.0015	-52.2
-0.003	-0.003	-0.0195	-0.0015	-52.2
-0.0046	-0.0023	-0.0181	-0.0038	-52.2
-0.0053	-0.0008	-0.0203	-0.0053	-52.2
-0.0053	-0.0023	-0.0181	-0.0053	-52.2
-0.0046	-0.0038	-0.0203	-0.0053	-52.2
-0.0068	-0.0015	-0.021	-0.003	-52.2
-0.0053	-0.0008	-0.0165	-0.0023	-52.2
-0.0015	-0.003	-0.0165	-0.003	-52.2
-0.0008	-0.0015	-0.0128	0.0007	-52.2
-0.0038	-0.0015	-0.0143	0.0007	-52.2
-0.0053	-0.0023	-0.0158	-0.0008	-52.2
-0.0046	-0.0008	-0.0158	-0.0015	-52.2
-0.0015	-0.0008	-0.0165	-0.0008	-52.2
0.0007	-0.0008	-0.0173	-0.0015	-52.2
0	-0.0015	-0.0188	-0.0015	-52.2
0.0022	-0.0008	-0.0181	0	-52.2
0.0022	-0.0008	-0.0165	0	-52.2
0.0007	-0.0023	-0.0165	0.0007	-52.2
-0.0008	-0.0015	-0.015	0.003	-52.2
0	-0.0023	-0.015	0.0015	-52.2
-0.0008	-0.0023	-0.0143	0.0007	-52.2
-0.0015	-0.0015	-0.0165	0.0007	-52.2
-0.003	-0.0015	-0.0181	0.0007	-52.2
-0.003	-0.0008	-0.0173	0	-52.2
-0.0015	-0.0008	-0.0165	0	-52.2
-0.003	-0.0023	-0.0165	0	-52.2
-0.0015	-0.003	-0.0158	-0.0008	-52.2
-0.0008	-0.0008	-0.0143	0	-52.2
-0.0053	-0.0015	-0.0128	0.0015	-52.2
-0.0083	-0.003	-0.012	0.0022	-52.2
-0.0083	-0.0015	-0.0143	0.0037	-52.2
-0.006	-0.003	-0.015	0.0045	-52.2
-0.0068	-0.0023	-0.012	0.0045	-52.2
-0.006	0.0007	-0.0105	0.0052	-52.2
-0.0068	0.003	-0.0105	0.0045	-52.2
-0.0053	0.003	-0.0128	0.003	-52.2
-0.0023	0.0015	-0.0128	0.0015	-52.2
0	0.0022	-0.0143	0.0015	-52.2
0.0015	0.003	-0.0165	0	-52.2
0	0.0015	-0.0173	-0.0008	-52.2
0.0007	0.0022	-0.0173	-0.0008	-52.2
0.0022	0.0007	-0.0158	-0.0015	-52.2
0.0045	-0.0008	-0.015	-0.0008	-52.2
0.0022	0.0007	-0.0143	-0.003	-52.1
0.0007	0.0015	-0.0143	-0.0023	-52.1
-0.0008	-0.0008	-0.012	-0.0015	-52.1
-0.0038	-0.003	-0.0165	-0.0008	-52.1
-0.0053	-0.0023	-0.021	-0.0008	-52.1
-0.0075	-0.0023	-0.0218	0.0007	-52.1
-0.0083	-0.0023	-0.0233	0.0007	-52.1
-0.0068	-0.003	-0.0195	-0.0015	-52.1
-0.0053	-0.003	-0.0181	-0.0023	-52.1
-0.0053	-0.0038	-0.0165	-0.0008	-52.1
-0.0053	-0.003	-0.0181	0.0007	-52.1
-0.0053	-0.0015	-0.0158	0.0007	-52.1
-0.0023	-0.0015	-0.015	0.0015	-52.1
-0.0046	-0.0008	-0.0195	0	-52.1
-0.0038	-0.003	-0.0181	0.0015	-52.1
-0.0023	-0.003	-0.0203	0.0015	-52.1
-0.003	-0.0023	-0.0188	0.0007	-52.1
-0.0015	-0.003	-0.0188	0.0007	-52.1
-0.003	-0.003	-0.0188	-0.0008	-52.1
-0.003	-0.0046	-0.0165	-0.0008	-52.1
-0.003	-0.003	-0.0158	0	-52.1
-0.0023	-0.0023	-0.0135	-0.0015	-52.1
-0.0008	-0.0046	-0.0128	-0.0015	-52.1
0	-0.003	-0.0143	-0.0046	-52.1
0.0015	-0.0015	-0.0135	-0.003	-52.1
0.0007	-0.0015	-0.015	-0.0008	-52.1
0.0015	0	-0.015	-0.0008	-52.1
0.0037	0	-0.0128	0.0007	-52.1
0.0037	0	-0.015	0	-52.1
0.0037	0	-0.0165	0.0007	-52.1
0.0045	0	-0.0173	-0.0008	-52.2
0.003	-0.0008	-0.0158	-0.0015	-52.2
0.0007	-0.0015	-0.015	0.0007	-52.2
-0.003	-0.0008	-0.0158	0.0015	-52.2
-0.0046	0.0007	-0.0158	0.0007	-52.2
-0.0046	0.0015	-0.0165	0.0007	-52.2
-0.0046	0.003	-0.0158	0	-52.2
-0.003	0.0015	-0.0181	0.0015	-52.2
-0.0046	0.0007	-0.0173	0.0015	-52.2
-0.0015	0.0022	-0.0165	0.0015	-52.2
0	0.003	-0.0203	-0.0008	-52.2
-0.0015	0.0022	-0.0195	0.0007	-52.2
-0.0046	0.0022	-0.0181	0.0007	-52.2
-0.0038	0.003	-0.0188	-0.0008	-52.2
-0.0015	0.0015	-0.0181	0.0007	-52.2
-0.0046	-0.0008	-0.015	-0.0015	-52.2
-0.0046	0	-0.0128	0.0007	-52.2
-0.0053	-0.0008	-0.0128	-0.0008	-52.2
-0.0046	0	-0.0135	-0.0015	-52.2
-0.003	0.0007	-0.0143	0	-52.2
-0.0023	-0.0008	-0.0143	0	-52.2
-0.003	-0.0008	-0.0165	0.0022	-52.2
-0.003	-0.0008	-0.0181	0.0022	-52.2
-0.0023	-0.0015	-0.0195	0.003	-52.2
-0.003	0	-0.0195	0.003	-52.2
-0.0046	-0.0008	-0.0195	0.0007	-52.2
-0.0023	-0.0015	-0.0181	0.0007	-52.2
-0.0008	-0.0008	-0.0135	-0.0015	-52.2
-0.003	0.0015	-0.0128	-0.0015	-52.2
-0.0015	0.0022	-0.0113	-0.0015	-52.2
-0.0046	0	-0.012	-0.003	-52.2
-0.0046	-0.0015	-0.0143	-0.0015	-52.2
-0.003	-0.0038	-0.0158	-0.0015	-52.2
-0.0046	-0.003	-0.0195	-0.0038	-52.2
-0.0053	-0.003	-0.0165	-0.0046	-52.2
-0.006	-0.0038	-0.0158	-0.0038	-52.2
-0.0053	-0.003	-0.0173	-0.0046	-52.2
-0.006	-0.0008	-0.0143	-0.0046	-52.2
-0.0053	0.0007	-0.0143	-0.0015	-52.2
-0.0015	-0.0023	-0.015	-0.0023	-52.2
-0.0023	-0.0023	-0.0143	-0.0015	-52.2
-0.003	-0.0015	-0.0158	0.0015	-52.2
-0.003	-0.003	-0.0143	0.003	-52.2
-0.0053	-0.0038	-0.0128	0.0052	-52.2
-0.0038	-0.003	-0.0128	0.0037	-52.2
-0.0023	-0.0023	-0.0113	0.0022	-52.2
-0.0008	-0.0023	-0.0158	0.003	-52.2
0.0015	-0.0023	-0.0165	0.003	-52.2
0.0007	0.0007	-0.0158	0.0015	-52.2
-0.0008	0.0007	-0.0165	0.003	-52.2
0.0007	0	-0.0143	0.0037	-52.2
0.0007	0.0015	-0.0165	0.0045	-52.2
0.0007	0.0007	-0.0195	0.003	-52.2
-0.0008	0.0015	-0.0203	0.0007	-52.2
-0.0046	0.0007	-0.0203	0.0015	-52.2
-0.0046	0.0022	-0.0158	0.0015	-52.2
-0.0038	0.0015	-0.0158	-0.0008	-52.2
-0.003	-0.0008	-0.0158	-0.0015	-52.2
-0.0046	-0.0015	-0.0158	0.0015	-52.2
-0.0053	-0.0046	-0.0158	0.0015	-52.2
-0.0053	-0.0046	-0.0143	-0.0008	-52.2
-0.0091	-0.0046	-0.0181	-0.0008	-52.2
-0.0098	-0.003	-0.015	-0.0008	-52.2
-0.0083	-0.003	-0.0143	0.0007	-52.2
-0.0053	-0.0015	-0.0143	0	-52.2
-0.003	-0.0008	-0.0143	-0.0008	-52.2
-0.003	-0.0015	-0.0165	0.0015	-52.2
-0.0023	-0.0008	-0.0165	0.0015	-52.2
0	0	-0.0158	0.003	-52.2
-0.0015	0	-0.012	0.003	-52.2
-0.003	-0.0008	-0.0105	0.0007	-52.2
-0.003	-0.0008	-0.0128	0.0007	-52.2
-0.003	-0.0038	-0.0158	0.0007	-52.2
-0.003	-0.0046	-0.0158	0.0015	-52.2
-0.003	-0.003	-0.0173	0.0045	-52.2
-0.0023	-0.0023	-0.0165	0.0052	-52.2
-0.0015	-0.003	-0.0181	0.003	-52.2
-0.0008	-0.0008	-0.0181	0	-52.2
-0.0008	-0.0023	-0.0188	-0.0008	-52.2
-0.0015	-0.0053	-0.0195	0	-52.2
-0.0015	-0.0046	-0.0165	-0.0015	-52.2
-0.0023	-0.0046	-0.0165	-0.0023	-52.2
-0.003	-0.0046	-0.0173	-0.0023	-52.2
0.0007	-0.0046	-0.0188	-0.0015	-52.2
0.0007	-0.0053	-0.0181	-0.0008	-52.2
0	-0.003	-0.0188	0.0007	-52.2
0	-0.0038	-0.0181	0.0015	-52.2
0.0015	-0.0046	-0.0173	0.0015	-52.2
0.0067	-0.0046	-0.0181	0.0015	-52.2
0.006	-0.0046	-0.0181	-0.0008	-52.2
0.0045	-0.003	-0.0203	0.0015	-52.2
0.0015	-0.0023	-0.0203	0.003	-52.2
-0.0008	-0.0008	-0.0195	0.003	-52.2
-0.0008	0.0007	-0.0195	0.0007	-52.2
-0.0023	0.0015	-0.0188	-0.0023	-52.2
-0.003	0	-0.0165	-0.0015	-52.2
-0.0046	0.0015	-0.0158	-0.0015	-52.2
-0.006	0.0007	-0.0143	-0.0015	-52.2
-0.0068	0.0007	-0.012	-0.0023	-52.2
-0.0046	0.0007	-0.0128	-0.0046	-52.2
-0.0023	0	-0.0098	-0.0023	-52.2
-0.003	0	-0.012	-0.0046	-52.2
-0.0038	-0.0008	-0.0128	-0.003	-52.2
-0.0046	0.0007	-0.0128	-0.0015	-52.2
-0.003	0.0007	-0.0158	-0.0015	-52.2
-0.0053	0.0007	-0.0158	0.0015	-52.2
-0.0075	-0.0008	-0.0158	0.0015	-52.2
-0.0105	0.0007	-0.0165	0.0015	-52.2
-0.0091	0	-0.0165	0.0022	-52.2
-0.0075	-0.0015	-0.0158	0.0045	-52.2
-0.0068	-0.0008	-0.0188	0.003	-52.2
-0.0046	-0.0053	-0.0165	0.0007	-52.2
-0.0083	-0.0046	-0.0135	0.0015	-52.2
-0.0068	-0.003	-0.0143	0.003	-52.2
-0.0068	-0.003	-0.0105	0.0037	-52.2
-0.006	-0.0023	-0.0128	0.003	-52.2
-0.0023	-0.003	-0.0143	0.003	-52.2
0	-0.0046	-0.0143	0.003	-52.2
0.003	-0.0053	-0.0181	0.0015	-52.2
0.0015	-0.0046	-0.0181	0.0007	-52.2
0.0037	-0.0038	-0.0195	-0.0023	-52.2
0.0045	-0.003	-0.0195	-0.003	-52.2
0.0037	-0.003	-0.0181	-0.0008	-52.2
0.0022	-0.0015	-0.0181	-0.0008	-52.2
0.0022	-0.0008	-0.0158	0.0007	-52.2
-0.0015	-0.0008	-0.0143	0.0022	-52.2
-0.0053	0.0007	-0.012	0.0015	-52.2
-0.0046	0.0015	-0.012	0.0015	-52.2
-0.0046	0.0007	-0.0128	0.0015	-52.2
-0.003	0.0015	-0.0105	0.0007	-52.2
-0.0053	0.0007	-0.0128	-0.0015	-52.2
-0.0083	-0.0008	-0.0165	-0.0023	-52.2
-0.0083	0	-0.0165	-0.003	-52.2
-0.0105	0.0015	-0.0181	-0.003	-52.2
-0.0083	0.0015	-0.0188	-0.0008	-52.2
-0.006	0.0015	-0.0195	-0.0008	-52.2
-0.006	0.003	-0.0188	0.0007	-52.2
-0.003	0.0015	-0.0181	0.0007	-52.2
0.0007	0	-0.0195	-0.0008	-52.2
0.0022	-0.0008	-0.0203	-0.0015	-52.2
0.003	-0.0008	-0.0233	-0.0015	-52.2
0.0037	-0.003	-0.0218	-0.0023	-52.2
0.0022	-0.0023	-0.0165	-0.003	-52.2
0.003	-0.0046	-0.015	-0.0008	-52.2
0.0045	-0.003	-0.0143	-0.0008	-52.2
0.003	-0.0015	-0.0165	-0.0015	-52.2
0.0007	-0.0023	-0.0158	-0.0023	-52.2
-0.0008	-0.0008	-0.0165	-0.0023	-52.2
0	-0.0015	-0.0181	-0.003	-52.2
0.0015	-0.0008	-0.0128	-0.0038	-52.2
0	0	-0.0128	-0.0038	-52.2
-0.0015	-0.0008	-0.0128	-0.0053	-52.2
-0.0023	-0.0015	-0.0128	-0.0023	-52.2
-0.0008	-0.003	-0.0135	-0.0023	-52.2
0.0007	-0.0015	-0.012	-0.0008	-52.2
-0.0046	-0.0023	-0.0128	-0.0008	-52.2
-0.0083	-0.003	-0.012	-0.0023	-52.2
-0.0091	-0.0038	-0.0128	-0.0008	-52.2
-0.0105	-0.003	-0.0143	0.0007	-52.2
-0.0105	0	-0.0135	0	-52.2
-0.0075	0.0007	-0.0158	0.0007	-52.2
-0.0053	0.0015	-0.0143	0.0007	-52.2
-0.003	0.0015	-0.0128	0.0007	-52.2
0.0022	-0.0015	-0.0135	0.0015	-52.2
0.0037	-0.0015	-0.0158	0.0015	-52.2
0	-0.0015	-0.0188	0.0007	-52.2
-0.0046	-0.003	-0.0203	0.0007	-52.2
-0.0046	-0.0053	-0.021	-0.0008	-52.2
-0.0046	-0.0091	-0.024	-0.0015	-52.2
-0.0046	-0.0098	-0.0233	-0.0038	-52.2
-0.0053	-0.0105	-0.0158	-0.003	-52.2
-0.0068	-0.0113	-0.012	-0.0015	-52.2
-0.0046	-0.0091	-0.012	-0.0046	-52.2
-0.0038	-0.0053	-0.0143	-0.003	-52.2
-0.0008	-0.0038	-0.0158	-0.003	-52.2
-0.0008	-0.006	-0.0158	-0.0023	-52.3
-0.0008	-0.0068	-0.0203	0	-52.3
-0.003	-0.0023	-0.0203	-0.0008	-52.3
-0.003	0.0007	-0.0158	0.003	-52.3
-0.0015	0.0015	-0.0143	0.0045	-52.3
-0.003	0.0015	-0.0165	0.0045	-52.3
-0.0015	-0.0008	-0.0165	0.0052	-52.3
-0.0038	0.0007	-0.0165	0.003	-52.3
-0.0023	0.0022	-0.0165	0.0037	-52.3
0.0007	0.0015	-0.0203	0.0015	-52.3
-0.0015	0.003	-0.021	0.003	-52.3
-0.0053	0.0037	-0.0188	0.0045	-52.3
-0.0075	0.0037	-0.0195	0.0045	-52.3
-0.0113	0.0037	-0.0181	0.003	-52.3
-0.0068	0.0015	-0.0195	0.0015	-52.3
-0.003	0.0007	-0.0158	0.0015	-52.3
0.0015	-0.0008	-0.0128	0.0007	-52.3
0.006	-0.0015	-0.0128	0.0007	-52.3
0.0075	-0.0008	-0.0091	0.0037	-52.3
0.0142	0.0007	-0.0105	0.003	-52.3
0.0127	-0.0008	-0.0083	0.0007	-52.3
0.006	0	-0.0098	0	-52.3
-0.0068	0	-0.0091	-0.0015	-52.3
-0.0105	-0.0015	-0.0075	-0.0015	-52.3
-0.003	0.0015	-0.0098	-0.0015	-52.3
-0.003	0.0015	-0.0091	0	-52.3
-0.0053	0.0015	-0.0113	0.0007	-52.3
-0.0075	0.003	-0.012	-0.0008	-52.3
-0.0083	0.0022	-0.0143	0.0007	-52.3
-0.0091	0.0022	-0.0173	0.0007	-52.3
-0.0083	0.0007	-0.0188	0.0007	-52.3
-0.0091	-0.0008	-0.0203	0.0007	-52.3
-0.0113	-0.0038	-0.0195	0.0007	-52.3
-0.0113	-0.0046	-0.0158	0.0007	-52.4
-0.012	-0.0046	-0.0143	-0.0008	-52.4
-0.0083	-0.006	-0.0143	-0.0008	-52.4
-0.0075	-0.0046	-0.0158	-0.003	-52.4
-0.0091	-0.0038	-0.0188	-0.003	-52.4
-0.0083	-0.003	-0.0203	-0.0008	-52.4
-0.0075	-0.003	-0.021	-0.0008	-52.4
-0.0083	-0.0015	-0.0195	-0.0015	-52.4
-0.0083	-0.0008	-0.0203	-0.0008	-52.4
-0.0083	-0.0008	-0.0195	0	-52.4
-0.0053	-0.0015	-0.0181	0.0007	-52.5
-0.0015	0	-0.0203	0.0007	-52.5
-0.003	0.0007	-0.0188	0	-52.5
0.0015	0.0007	-0.0203	0.0007	-52.5
0.0022	0.0007	-0.0158	0.0015	-52.5
0.003	0.0007	-0.0105	-0.0008	-52.5
0.0075	0.0022	-0.0128	0.0007	-52.5
0.0082	0.0015	-0.012	0.0007	-52.5
0.0067	0.0015	-0.012	0.0015	-52.5
0.0045	0.0007	-0.012	0.0007	-52.6
0.0037	0.0007	-0.0143	0.0007	-52.6
0.0037	0.0052	-0.0128	0.0015	-52.6
0.0007	0.0067	-0.0135	-0.0008	-52.6
-0.0075	0.0045	-0.0135	-0.003	-52.6
-0.0098	0.0007	-0.0143	-0.0075	-52.6
-0.0083	-0.0015	-0.0158	-0.0098	-52.6
-0.0105	-0.003	-0.0135	-0.0128	-52.7
-0.0143	-0.0046	-0.0165	-0.0143	-52.7
-0.0165	-0.0053	-0.0203	-0.0113	-52.7
-0.0135	-0.0091	-0.0203	-0.0098	-52.7
-0.0075	-0.0128	-0.0218	-0.012	-52.7
0	-0.012	-0.0195	-0.0105	-52.7
0.0052	-0.0113	-0.0195	-0.0083	-52.7
0.0052	-0.0091	-0.0203	-0.0053	-52.7
0.0097	-0.0068	-0.0173	-0.0038	-52.7
0.0195	-0.0053	-0.0158	-0.0015	-52.7
0.0202	-0.0038	-0.015	0	-52.7
0.0142	-0.003	-0.012	0.0015	-52.7
0.0015	0.0015	-0.0091	0.0045	-52.7
-0.0068	0.0007	-0.0113	0.0067	-52.7
-0.0015	0.0007	-0.0143	0.0082	-52.7
-0.0046	-0.0008	-0.0143	0.009	-52.7
-0.0053	0.0007	-0.0181	0.0105	-52.7
-0.006	0.0015	-0.0188	0.012	-52.7
-0.0091	0.0007	-0.0165	0.0142	-52.7
-0.003	0.0015	-0.0165	0.0142	-52.7
-0.003	0	-0.0181	0.0135	-52.7
-0.0053	0.0007	-0.0158	0.015	-52.8
-0.0053	0.0015	-0.0135	0.0165	-52.8
-0.006	0.0007	-0.0135	0.015	-52.8
-0.006	0.0022	-0.0143	0.012	-52.8
-0.006	0	-0.0158	0.0082	-52.8
-0.0075	-0.0008	-0.0181	0.009	-52.8
-0.0053	0	-0.0181	0.0082	-52.8
-0.0046	0	-0.0173	0.009	-52.8
-0.0046	-0.0008	-0.0181	0.009	-52.8
-0.003	-0.0015	-0.0218	0.0067	-52.8
-0.0053	-0.0046	-0.0181	0.006	-52.8
-0.0053	-0.0053	-0.0165	0.0067	-52.8
-0.006	-0.0038	-0.0165	0.0067	-52.8
-0.0068	-0.0008	-0.0181	0.0067	-52.9
-0.0105	0.0022	-0.0181	0.0067	-52.9
-0.0083	0.0022	-0.0135	0.003	-52.9
-0.003	0.003	-0.0143	0.0007	-52.9
-0.0015	0.0015	-0.0143	-0.0015	-52.9
-0.0015	-0.0008	-0.012	0	-52.9
-0.003	-0.0008	-0.0128	0.0007	-52.9
-0.0038	0.0022	-0.0128	0.0007	-52.9
-0.0068	0.0037	-0.015	0.0007	-52.9
-0.003	0.0022	-0.0158	-0.0015	-52.9
-0.0046	0.0045	-0.0158	-0.0046	-53
-0.0068	0.0022	-0.0165	-0.0023	-53
-0.0046	0.0007	-0.0158	-0.0008	-53
-0.0053	0.0007	-0.0181	-0.0008	-53
-0.0015	0.0007	-0.0203	-0.0008	-53
-0.0023	0	-0.0195	-0.0008	-53
0	-0.0046	-0.0181	-0.0015	-53
-0.0008	-0.0038	-0.0203	-0.003	-53
-0.0023	-0.003	-0.0195	-0.003	-53
-0.0008	-0.003	-0.0195	-0.0053	-53
0.0007	-0.003	-0.021	-0.0053	-53.1
0.0037	-0.0038	-0.0195	-0.0046	-53.1
0.003	-0.003	-0.0188	-0.003	-53.1
-0.0008	-0.0053	-0.0203	-0.003	-53.1
-0.0008	-0.003	-0.021	-0.0023	-53.1
0.0007	-0.003	-0.0165	-0.0008	-53.1
0.0015	-0.0015	-0.0158	0.0007	-53.1
0.0007	-0.0015	-0.0158	-0.0008	-53.1
-0.0008	-0.0015	-0.015	-0.0015	-53.1
-0.0023	0.0007	-0.0173	-0.0015	-53.1
-0.0008	0.0015	-0.0181	-0.0015	-53.1
-0.0008	0.0015	-0.0188	0	-53.1
-0.0008	0	-0.0173	-0.0015	-53.2
-0.0008	-0.0015	-0.0173	-0.0015	-53.2
-0.0038	-0.0015	-0.0181	-0.003	-53.2
-0.0053	-0.0015	-0.0165	-0.0023	-53.2
-0.0046	0.0015	-0.0165	0	-53.2
-0.006	0.0015	-0.015	0.0022	-53.2
-0.006	0	-0.0135	0.0052	-53.2
-0.0015	0.0007	-0.012	0.0045	-53.2
-0.0008	0.0007	-0.012	0.0037	-53.2
0.0007	0.0007	-0.0143	0.0022	-53.2
0.0015	0.0007	-0.0143	0.0015	-53.3
0.0037	-0.0015	-0.0135	0.0007	-53.3
0.0052	-0.0023	-0.0105	-0.0008	-53.3
0.0007	-0.0015	-0.0091	-0.0008	-53.3
-0.0038	-0.0023	-0.0075	-0.0023	-53.3
-0.006	-0.0015	-0.0091	-0.0023	-53.3
-0.0046	-0.0015	-0.0143	-0.003	-53.3
-0.0038	-0.0008	-0.0158	-0.0023	-53.3
-0.0046	-0.0015	-0.0181	-0.0023	-53.4
-0.0038	-0.0023	-0.0165	-0.003	-53.4
-0.0038	-0.0015	-0.0181	-0.003	-53.4
-0.003	-0.0015	-0.0181	-0.0046	-53.4
-0.003	-0.0046	-0.0181	-0.0023	-53.4
-0.0046	-0.0053	-0.021	0.0015	-53.4
-0.0053	-0.0023	-0.0188	-0.0015	-53.4
-0.003	-0.0008	-0.0158	-0.0015	-53.4
-0.0023	0.0015	-0.015	-0.0008	-53.4
-0.003	0.0007	-0.0113	0.0015	-53.4
-0.003	-0.0015	-0.0068	0.003	-53.4
-0.0068	-0.0008	-0.0083	0.003	-53.4
-0.0091	0.0015	-0.012	0.003	-53.4
-0.0105	0.003	-0.0135	0.0022	-53.4
-0.0091	0.0022	-0.0143	0.003	-53.4
-0.0075	0.0022	-0.0158	0.003	-53.4
-0.0075	0.0007	-0.0181	0	-53.4
-0.0008	-0.0008	-0.0203	0	-53.4
0.003	-0.0008	-0.0218	-0.0008	-53.4
0.003	-0.0015	-0.0203	-0.0038	-53.4
0.0067	-0.0038	-0.0218	-0.003	-53.4
0.0045	-0.0083	-0.0218	-0.0053	-53.4
0.0007	-0.0083	-0.0188	-0.0068	-53.5
0.0007	-0.0098	-0.0181	-0.0053	-53.5
-0.003	-0.0083	-0.0195	-0.0053	-53.5
-0.006	-0.0015	-0.0195	-0.006	-53.5
-0.0113	-0.0015	-0.0165	-0.0053	-53.5
-0.0128	0.0015	-0.0128	-0.0046	-53.5
-0.0091	0.0015	-0.0105	-0.0038	-53.5
-0.0083	0.0007	-0.0128	-0.0015	-53.5
-0.0053	0.003	-0.012	0.0007	-53.5
-0.0046	0.006	-0.0113	0.0015	-53.5
-0.0008	0.0082	-0.0113	-0.0008	-53.4
0.0007	0.0067	-0.0098	-0.0008	-53.4
-0.0008	0.0037	-0.0105	0.0007	-53.4
0.0022	0.0007	-0.015	-0.0008	-53.4
0.003	-0.0015	-0.0195	0.0007	-53.4
0.003	-0.0068	-0.0203	0.0007	-53.4
0.0015	-0.0068	-0.0188	-0.0008	-53.4
-0.0008	-0.0083	-0.0173	-0.0038	-53.4
-0.003	-0.0098	-0.0158	-0.0053	-53.4
-0.0015	-0.0083	-0.0158	-0.0053	-53.4
-0.0023	-0.0083	-0.0181	-0.0053	-53.4
-0.0015	-0.0083	-0.0173	-0.006	-53.4
-0.0015	-0.0053	-0.0181	-0.0068	-53.4
-0.0023	-0.003	-0.0181	-0.0075	-53.4
-0.0008	-0.0038	-0.0195	-0.0053	-53.4
-0.0015	-0.0015	-0.0195	-0.0046	-53.4
-0.0015	-0.0008	-0.0181	-0.0038	-53.4
-0.003	-0.0015	-0.0165	-0.003	-53.4
-0.003	0	-0.0165	-0.003	-53.4
-0.0075	0.0007	-0.0181	-0.0015	-53.4
-0.0091	0.0037	-0.0173	0	-53.4
-0.0053	0.0045	-0.0158	0.0007	-53.4
-0.0038	0.0045	-0.0165	0.003	-53.4
0	0.0052	-0.0173	0.0045	-53.4
0.0007	0.0067	-0.0158	0.0045	-53.4
0.0022	0.0082	-0.0135	0.003	-53.4
0.003	0.006	-0.0105	0.003	-53.4
0.0037	0.0045	-0.0105	0.0007	-53.4
0.0037	0.003	-0.012	-0.0008	-53.4
0.0015	0.0007	-0.0128	0.0007	-53.4
-0.003	-0.003	-0.012	0.0015	-53.4
-0.003	-0.0046	-0.0128	0.0015	-53.4
-0.0038	-0.006	-0.0158	0.0015	-53.4
-0.0053	-0.0068	-0.0143	0.003	-53.4
-0.0046	-0.0083	-0.0105	0.0007	-53.4
-0.0038	-0.0105	-0.0105	0.0015	-53.4
-0.0046	-0.0105	-0.012	0.0015	-53.4
-0.0053	-0.0083	-0.0143	0.0007	-53.4
-0.0068	-0.006	-0.0188	-0.0008	-53.4
-0.0083	-0.0046	-0.0188	-0.0008	-53.4
-0.0046	-0.0038	-0.0173	-0.0008	-53.3
-0.0015	-0.003	-0.0173	-0.0015	-53.3
-0.0015	-0.0023	-0.0165	-0.0023	-53.3
-0.0023	-0.0008	-0.0165	0.0007	-53.3
-0.0015	0.0007	-0.0128	0.0022	-53.3
0.0007	0.0045	-0.012	0.0007	-53.3
-0.003	0.0022	-0.0105	0.0007	-53.3
-0.0083	0.0007	-0.012	0.0007	-53.3
-0.0091	0.0022	-0.0195	0.0015	-53.3
-0.0105	0.0015	-0.0218	0.0007	-53.3
-0.0091	-0.0008	-0.024	0.0007	-53.3
-0.0038	0.003	-0.0218	0.0015	-53.3
-0.0015	0.0015	-0.0203	0.0045	-53.3
-0.0046	0.0007	-0.0165	0.0052	-53.3
-0.006	0.003	-0.015	0.0052	-53.3
-0.0023	0.003	-0.0158	0.0067	-53.2
0	0.0037	-0.0128	0.0052	-53.2
0.0015	0.0007	-0.0143	0.0045	-53.2
0.0022	-0.0008	-0.0128	0.0015	-53.2
0.003	-0.003	-0.0128	0	-53.2
0.003	-0.0046	-0.015	-0.0046	-53.2
-0.003	-0.0083	-0.0143	-0.0075	-53.2
-0.0053	-0.0083	-0.0143	-0.0053	-53.2
-0.0046	-0.003	-0.015	-0.0046	-53.2
-0.0008	-0.0038	-0.015	-0.003	-53.2
-0.003	-0.0023	-0.0165	-0.0038	-53.2
-0.0053	-0.003	-0.0158	-0.0053	-53.2
-0.0023	-0.0046	-0.0165	-0.0023	-53.2
-0.0015	-0.003	-0.0188	-0.003	-53.2
-0.003	-0.0008	-0.0195	-0.003	-53.2
-0.0038	0.0007	-0.0203	-0.0008	-53.2
-0.0015	0.0015	-0.0218	-0.0023	-53.2
-0.003	0.0015	-0.024	-0.0008	-53.2
-0.003	0	-0.0233	0.0015	-53.2
-0.0015	0.0007	-0.0195	0.0007	-53.2
-0.003	-0.0015	-0.021	0.0015	-53.1
-0.003	-0.0008	-0.0203	0.0015	-53.1
-0.0015	0.0007	-0.0195	0.0015	-53.1
-0.0023	0.0015	-0.0188	0.003	-53.1
-0.0053	0.003	-0.0181	0.003	-53.1
-0.0053	0.0022	-0.0173	0.0045	-53.1
-0.0053	0.0037	-0.015	0.0045	-53.1
-0.0038	0.0045	-0.0158	0.0045	-53.1
-0.0008	0.0067	-0.0135	0.0075	-53.1
-0.0008	0.0067	-0.012	0.0067	-53.1
-0.0008	0.0037	-0.0105	0.0022	-53.1
-0.0038	0.0015	-0.0083	-0.003	-53.1
-0.0038	-0.0023	-0.0113	-0.003	-53.1
-0.003	-0.0053	-0.0128	0.0007	-53.1
-0.0015	-0.0083	-0.0143	0.003	-53.1
0	-0.0091	-0.0135	0.0022	-53.1
-0.003	-0.0083	-0.0158	-0.0008	-53.1
-0.0046	-0.0075	-0.0188	0	-53.1
-0.0053	-0.0083	-0.0173	0	-53.1
-0.0038	-0.0091	-0.0165	-0.0008	-53.1
-0.0008	-0.0053	-0.0165	0.0007	-53.1
0.0015	-0.0046	-0.0135	0.0007	-53.1
-0.0008	-0.0046	-0.0128	0.0007	-53.1
-0.003	-0.003	-0.0143	0.0007	-53
-0.003	-0.0015	-0.0165	-0.0008	-53
-0.0008	-0.0008	-0.0188	-0.0008	-53
0	0.0007	-0.0188	-0.0008	-53
-0.0008	-0.0008	-0.0195	0.0007	-53
-0.0023	-0.0008	-0.0181	0.0007	-53
-0.0046	0.0015	-0.0195	-0.0008	-53
-0.0023	0.0045	-0.0173	0	-53
-0.0008	0.0045	-0.012	0	-53
-0.0023	0.0052	-0.015	0.0007	-53
-0.0023	0.0045	-0.0143	0	-52.9
-0.0046	0.0045	-0.0195	0.0007	-52.9
-0.0075	0.0052	-0.0218	0.0015	-52.9
-0.0083	0.0052	-0.0195	0.0007	-52.9
-0.0075	0.003	-0.021	-0.0008	-52.9
-0.0053	-0.0008	-0.0195	-0.0008	-52.9
-0.0068	0.0007	-0.0203	0.0015	-52.9
-0.0068	0.0015	-0.0181	0.0037	-52.9
-0.003	-0.0008	-0.015	0.0045	-52.9
0.0007	-0.0008	-0.0143	0.0045	-52.9
0.003	-0.003	-0.0128	0.0045	-52.8
0.0037	-0.0046	-0.012	0.0022	-52.8
0.0037	-0.003	-0.0105	0.0015	-52.8
0.0022	-0.0046	-0.0105	0.0022	-52.8
0.0015	-0.0053	-0.0083	-0.0008	-52.8
0.0007	-0.0046	-0.0113	-0.003	-52.8
-0.0008	-0.0053	-0.0128	-0.0046	-52.8
-0.0008	-0.0083	-0.0128	-0.006	-52.8
-0.003	-0.0098	-0.0158	-0.0046	-52.8
-0.0053	-0.0075	-0.012	-0.0053	-52.8
-0.0128	-0.006	-0.0113	-0.0046	-52.7
-0.0165	-0.006	-0.0128	-0.003	-52.7
-0.0091	-0.0023	-0.0143	-0.0046	-52.7
-0.0053	0.0015	-0.0165	-0.003	-52.7
-0.0015	0	-0.0181	-0.0008	-52.7
-0.0023	0.0015	-0.0203	0.0007	-52.7
-0.006	0.003	-0.0195	0.0015	-52.7
-0.0083	0	-0.0173	0.003	-52.7
-0.006	-0.0008	-0.0165	0.0007	-52.7
-0.0053	0	-0.0158	0	-52.7
-0.0068	-0.0023	-0.0135	0.0007	-52.7
-0.003	-0.0023	-0.0135	0	-52.7
-0.003	-0.003	-0.012	0.0015	-52.7
-0.003	0.0007	-0.0105	0.003	-52.7
-0.0023	0.0022	-0.0105	0.0007	-52.7
-0.003	0.0015	-0.012	0	-52.7
-0.003	0.0015	-0.0135	0.0007	-52.7
-0.003	0	-0.0143	0.0007	-52.7
-0.0038	0.0007	-0.0195	0.0015	-52.7
-0.0015	0.0007	-0.0218	0.0015	-52.6
0.0007	0	-0.0233	0.0015	-52.6
-0.0008	0.0007	-0.0233	0.0015	-52.6
0.0007	0.0015	-0.021	0.0022	-52.6
-0.0008	0	-0.021	0.0015	-52.6
-0.0008	-0.0008	-0.0233	-0.0015	-52.6
0.0015	0	-0.0256	-0.003	-52.6
-0.0015	-0.0008	-0.0233	-0.0038	-52.6
-0.0015	-0.0015	-0.0233	-0.0046	-52.6
-0.0038	-0.0015	-0.0225	-0.0023	-52.6
-0.0038	0.0007	-0.0195	-0.0015	-52.6
-0.0023	-0.0015	-0.0181	-0.0023	-52.6
-0.0046	-0.0023	-0.0165	-0.0008	-52.6
-0.003	-0.0008	-0.012	-0.0008	-52.6
-0.0023	-0.003	-0.0105	0.0015	-52.6
-0.0015	-0.0015	-0.0083	0.003	-52.6
0.0045	-0.0008	-0.0068	0.0015	-52.6
0.0052	-0.0008	-0.0053	0.003	-52.6
0.0045	-0.0015	-0.0068	0.0022	-52.5
0.0045	-0.0008	-0.0068	0.003	-52.5
0.0045	0.003	-0.0075	0.003	-52.5
0.0052	0.0045	-0.0105	0.0022	-52.5
0.0037	0.003	-0.0128	0.0022	-52.5
0.003	0.003	-0.0165	0.0007	-52.5
0.0007	0.0015	-0.0188	-0.0008	-52.5
-0.0023	0.003	-0.0165	-0.0023	-52.5
-0.0053	0.003	-0.0165	-0.0023	-52.5
-0.0083	0.0015	-0.0181	-0.0008	-52.5
-0.0053	0	-0.0188	-0.003	-52.5
-0.0068	-0.0015	-0.0181	-0.003	-52.5
-0.0053	0.0007	-0.0158	-0.0008	-52.5
-0.0038	-0.0023	-0.0181	-0.0023	-52.5
-0.0068	-0.003	-0.0181	-0.0015	-52.5
-0.0105	-0.0015	-0.0188	-0.0015	-52.5
-0.0128	-0.003	-0.0195	-0.0008	-52.5
-0.0068	-0.003	-0.0203	-0.0008	-52.5
-0.0053	-0.0046	-0.0218	-0.0008	-52.5
-0.0038	-0.0038	-0.0218	0.0022	-52.5
-0.0046	-0.003	-0.0218	0.0052	-52.5
-0.0023	0.0007	-0.0165	0.0052	-52.5
-0.0015	0.0052	-0.0158	0.0067	-52.5
-0.0023	0.003	-0.0135	0.0082	-52.5
-0.0015	0.0015	-0.0113	0.009	-52.5
-0.0046	0.0015	-0.0128	0.0052	-52.5
-0.003	0.0007	-0.0105	0.0037	-52.5
0	0.0007	-0.0143	0.0045	-52.5
0.0015	0.0007	-0.0158	0.003	-52.4
-0.0008	-0.0015	-0.012	0.003	-52.4
-0.0008	-0.003	-0.0135	0.0007	-52.4
-0.0008	-0.003	-0.0143	-0.0008	-52.4
-0.0015	-0.003	-0.0158	-0.003	-52.4
-0.0008	-0.0046	-0.015	-0.0023	-52.4
-0.0038	-0.0046	-0.0143	-0.0008	-52.4
-0.0053	-0.0046	-0.0113	-0.0015	-52.4
-0.003	-0.0015	-0.0113	-0.0015	-52.4
-0.0015	0.0007	-0.0165	-0.0015	-52.4
-0.0015	0.003	-0.0195	-0.003	-52.3
-0.0008	0.003	-0.0218	-0.0023	-52.3
0.0007	0.0015	-0.0225	-0.0015	-52.3
-0.0015	0.0007	-0.0203	0	-52.3
0.0007	-0.0008	-0.0165	0.003	-52.3
0.0015	0.0007	-0.0143	0.0037	-52.3
-0.0015	0.003	-0.0165	0.0045	-52.3
-0.0023	0.0052	-0.0165	0.0045	-52.3
-0.0015	0.0052	-0.0165	0.0007	-52.3
-0.0038	0.0037	-0.0158	0	-52.3
-0.003	0.003	-0.0158	-0.0015	-52.3
-0.003	-0.0008	-0.0173	-0.0053	-52.2
0.0015	-0.0015	-0.0143	-0.0046	-52.2
0.0052	-0.0015	-0.0158	-0.0053	-52.2
0.003	-0.0053	-0.0173	-0.0083	-52.2
0.006	-0.006	-0.0143	-0.0083	-52.2
0.0007	-0.0083	-0.0098	-0.0091	-52.2
-0.0015	-0.0105	-0.012	-0.0105	-52.2
-0.006	-0.0105	-0.0128	-0.0075	-52.2
-0.0128	-0.0091	-0.0128	-0.0068	-52.2
-0.0128	-0.0083	-0.0135	-0.0046	-52.2
-0.0128	-0.0068	-0.0128	-0.0023	-52.2
-0.0083	-0.0023	-0.0165	-0.0008	-52.2
-0.0046	-0.0008	-0.0195	0.0015	-52.2
-0.0015	0.0015	-0.0203	0.003	-52.2
0.0015	0.0045	-0.0203	0.0052	-52.2
0.0015	0.0052	-0.0165	0.0067	-52.2
0.0007	0.0075	-0.0128	0.006	-52.2
-0.0008	0.0067	-0.012	0.0075	-52.2
-0.0008	0.0067	-0.0135	0.0067	-52.2
-0.0023	0.0082	-0.0158	0.0052	-52.2
-0.003	0.0045	-0.015	0.0007	-52.1
-0.0015	0.0015	-0.0143	-0.0023	-52.1
-0.0038	-0.0008	-0.0128	-0.0015	-52.1
-0.0053	-0.003	-0.0143	-0.0023	-52.1
-0.0075	-0.0046	-0.0181	-0.0008	-52.1
-0.0075	-0.0053	-0.0195	-0.0015	-52.1
-0.0068	-0.0083	-0.0225	-0.0015	-52.1
-0.0083	-0.0091	-0.0225	-0.0015	-52.1
-0.0083	-0.0075	-0.0225	-0.003	-52.1
-0.0113	-0.0068	-0.0225	-0.0015	-52.1
-0.0105	-0.006	-0.0225	-0.003	-52.1
-0.006	-0.0046	-0.021	-0.003	-52.1
-0.006	-0.0046	-0.0203	-0.003	-52.1
-0.0053	-0.0046	-0.021	-0.0008	-52
-0.0068	-0.0046	-0.021	0.0007	-52
-0.0038	-0.003	-0.021	0.003	-52
-0.0015	-0.0015	-0.0203	0.0022	-52
0.0015	-0.0015	-0.0195	0.003	-52
0.0052	0	-0.0158	0.0052	-52
0.0022	-0.0015	-0.0143	0.003	-52
-0.0015	-0.0008	-0.0158	0.003	-52
-0.0015	0	-0.0128	0.003	-52
-0.0038	-0.0015	-0.0098	0.0037	-52
-0.003	-0.0015	-0.0098	0.0045	-52
-0.0015	-0.0015	-0.0105	0.0022	-52
-0.0023	-0.0015	-0.0113	0.0015	-52
-0.0008	-0.003	-0.012	0.003	-52
-0.0015	-0.003	-0.0128	0.003	-52
-0.003	-0.003	-0.015	0.003	-52
-0.003	-0.0023	-0.015	0.0015	-52
-0.0015	-0.003	-0.0143	0.0022	-52
-0.0015	-0.0015	-0.0128	0.0022	-51.9
-0.0015	-0.0008	-0.0105	0.0015	-51.9
-0.0008	-0.0038	-0.0128	0.0037	-51.9
0.0007	-0.003	-0.0128	0.0015	-51.9
-0.0008	-0.003	-0.0135	0.0007	-51.9
-0.0023	-0.003	-0.0143	-0.0015	-51.9
-0.0053	0.0022	-0.0143	-0.0015	-51.9
-0.0075	0.0015	-0.0173	-0.003	-51.9
-0.0075	0.0007	-0.0181	-0.0023	-51.9
-0.006	0.0007	-0.0165	-0.0015	-51.9
-0.0046	-0.0008	-0.0188	0	-51.9
-0.003	-0.0008	-0.0225	0.0007	-51.9
-0.0023	-0.003	-0.0218	0.0007	-51.9
-0.0008	-0.0046	-0.0195	0.0015	-51.9
-0.0008	-0.0023	-0.0173	0.0015	-51.9
-0.003	-0.0015	-0.0158	0.0007	-51.9
-0.0015	-0.003	-0.0188	-0.0008	-51.9
0.0007	-0.0015	-0.0181	-0.0015	-51.9
0	-0.0008	-0.0181	-0.0008	-51.9
0.0007	0	-0.0181	-0.0008	-51.9
0	0.0022	-0.0165	-0.0008	-51.8
-0.0015	0.0007	-0.0158	-0.0015	-51.8
-0.0015	0.0007	-0.0128	-0.0008	-51.8
-0.0008	-0.0023	-0.0135	0	-51.8
-0.0008	-0.003	-0.0128	-0.0023	-51.8
-0.0008	-0.003	-0.0135	-0.0015	-51.8
0.0007	-0.003	-0.0158	-0.0015	-51.8
0.0015	-0.0046	-0.012	0.0007	-51.8
-0.0015	-0.0068	-0.0128	-0.0015	-51.8
-0.0068	-0.006	-0.0128	-0.0015	-51.8
-0.0083	-0.0068	-0.0135	-0.0008	-51.8
-0.0091	-0.006	-0.0135	-0.0008	-51.8
-0.0091	-0.006	-0.0165	-0.0008	-51.8
-0.0105	-0.006	-0.0188	-0.0015	-51.8
-0.0083	-0.0038	-0.0173	-0.0015	-51.8
-0.0068	-0.0015	-0.0195	-0.003	-51.8
-0.0038	-0.0015	-0.0195	-0.003	-51.8
-0.003	-0.0008	-0.0195	-0.0038	-51.8
-0.003	0.0015	-0.0195	-0.0008	-51.8
-0.003	-0.0008	-0.0173	0.0007	-51.8
-0.003	-0.0008	-0.0173	0	-51.8
-0.0015	0.0015	-0.0165	0	-51.8
-0.0023	0.0022	-0.0158	0	-51.8
-0.0008	0.0015	-0.0143	0.003	-51.8
0	-0.0015	-0.0113	0.0037	-51.8
0.0015	-0.003	-0.0083	0.003	-51.8
0.003	-0.0053	-0.0091	0.0037	-51.8
0.0045	-0.0046	-0.0135	0.0052	-51.8
0.0045	-0.0023	-0.0158	0.0045	-51.8
0.0045	-0.0008	-0.0165	0.003	-51.8
0.006	-0.0023	-0.0143	0.0007	-51.8
0.0052	-0.0015	-0.0158	-0.0008	-51.8
0.0045	-0.0008	-0.0165	0.0007	-51.8
0.0007	-0.0008	-0.0128	0.0015	-51.8
0	-0.0023	-0.0143	0.0022	-51.8
-0.0008	-0.003	-0.012	0.0022	-51.8
-0.0008	0	-0.012	0.0022	-51.8
0.0007	-0.0008	-0.0128	0.0007	-51.8
-0.0015	-0.0015	-0.0143	-0.0008	-51.8
-0.0046	-0.0023	-0.0181	0	-51.8
-0.0053	-0.0015	-0.0173	-0.0015	-51.7
-0.003	0.0007	-0.0181	-0.0015	-51.7
-0.003	0	-0.0158	-0.0008	-51.7
-0.0015	-0.0008	-0.0143	-0.003	-51.7
-0.003	-0.0038	-0.0158	-0.003	-51.7
-0.0068	-0.003	-0.0113	-0.0053	-51.7
-0.0083	-0.003	-0.0105	-0.0053	-51.7
-0.0083	-0.0046	-0.012	-0.0038	-51.7
-0.0046	-0.0008	-0.0181	-0.0015	-51.7
-0.0023	0	-0.0225	-0.0008	-51.7
-0.0015	0.0007	-0.0195	-0.0008	-51.7
-0.0015	-0.0008	-0.0173	0.0007	-51.7
-0.0038	0	-0.0181	0	-51.7
-0.0053	0.0007	-0.0218	0.0015	-51.7
-0.0046	0.0007	-0.0203	0.003	-51.7
-0.0053	0.0022	-0.0203	0.0015	-51.7
-0.0053	0	-0.0203	0.003	-51.7
-0.0053	-0.0008	-0.0195	0.0015	-51.7
-0.0068	0.0007	-0.0203	0.0007	-51.7
-0.0053	-0.0008	-0.0181	-0.0008	-51.7
-0.0068	-0.0008	-0.0165	-0.0008	-51.7
-0.0075	-0.0015	-0.0158	0.0007	-51.7
-0.0098	-0.0023	-0.0158	0.0007	-51.7
-0.0083	-0.0008	-0.0158	0	-51.7
-0.0068	-0.0015	-0.0158	-0.0008	-51.7
-0.0053	0.0007	-0.0165	0.0022	-51.7
-0.0023	0.0007	-0.0158	0.0007	-51.7
-0.003	-0.0015	-0.0158	-0.0008	-51.7
-0.003	-0.0038	-0.0158	-0.0023	-51.7
-0.0046	-0.0046	-0.0128	-0.0015	-51.7
-0.0046	-0.0046	-0.0128	-0.0015	-51.7
-0.0046	-0.0053	-0.0158	-0.003	-51.7
-0.003	-0.003	-0.0181	-0.003	-51.7
-0.003	-0.0015	-0.0173	-0.003	-51.7
-0.0015	-0.003	-0.0181	-0.0008	-51.7
-0.0023	-0.003	-0.0181	-0.0015	-51.7
-0.0046	-0.0038	-0.0143	-0.0008	-51.7
-0.0053	-0.0046	-0.0158	0.0007	-51.7
-0.006	-0.0046	-0.0165	0.0015	-51.7
-0.0038	-0.0015	-0.0188	0.0007	-51.7
-0.003	0	-0.0218	0.0007	-51.7
-0.0046	-0.0008	-0.0195	0	-51.7
-0.0083	0.0007	-0.021	-0.0015	-51.7
-0.0083	0.0015	-0.0195	-0.0008	-51.7
-0.0068	0.0007	-0.0165	-0.0008	-51.7
-0.0068	-0.0008	-0.015	0.0007	-51.7
-0.0068	-0.0008	-0.012	-0.0008	-51.7
-0.0083	-0.0015	-0.012	-0.0023	-51.7
-0.0053	-0.0015	-0.012	-0.003	-51.7
-0.0046	-0.0015	-0.012	-0.0023	-51.7
-0.003	-0.0015	-0.0135	-0.0015	-51.7
-0.0008	0	-0.012	-0.0008	-51.7
-0.0008	0	-0.0143	0.0007	-51.7
0.0015	-0.0015	-0.0158	0.0022	-51.7
0.0022	-0.0023	-0.0165	0.0015	-51.7
0.0037	-0.0008	-0.0203	-0.0008	-51.7
0.003	-0.0015	-0.0195	0	-51.7
0.0022	-0.003	-0.0203	-0.0015	-51.7
0.0015	-0.003	-0.0203	-0.0015	-51.7
0	-0.0053	-0.0188	0.0007	-51.7
0.0015	-0.003	-0.0173	-0.0015	-51.7
0.0045	-0.003	-0.0158	0	-51.7
0.0015	-0.003	-0.0188	0.0015	-51.7
-0.0008	0.0007	-0.0188	0.003	-51.7
0.0007	-0.0008	-0.0195	0.0015	-51.7
-0.0015	0	-0.0195	0.0045	-51.7
-0.0015	-0.0008	-0.0181	0.003	-51.7
0.0007	0	-0.0188	0	-51.7
0.0007	0	-0.015	0	-51.7
-0.0008	-0.0015	-0.0143	0.0007	-51.6
-0.0023	-0.0023	-0.0158	0.0007	-51.6
-0.0008	0	-0.0128	0.0007	-51.6
-0.0008	0.0007	-0.012	0.0015	-51.6
-0.0015	0.0015	-0.0105	0.003	-51.6
-0.0015	0.0015	-0.012	0.0015	-51.6
-0.0015	0.0007	-0.0113	-0.0008	-51.6
-0.0008	0	-0.0091	-0.0015	-51.6
-0.0015	0.0022	-0.0128	-0.0038	-51.6
-0.0015	0.0015	-0.0105	-0.003	-51.6
-0.0038	-0.0008	-0.0105	-0.0015	-51.6
-0.0053	-0.0015	-0.0143	-0.0015	-51.6
-0.0046	-0.0008	-0.015	0.0015	-51.6
-0.0015	-0.0008	-0.0181	0.0045	-51.5
0	-0.0008	-0.0173	0.0037	-51.5
0	-0.0015	-0.0181	0.003	-51.5
-0.0015	-0.0015	-0.0173	0.0007	-51.5
-0.0015	-0.0015	-0.015	0.0015	-51.5
0	0.0007	-0.0135	0.0007	-51.5
-0.0015	0.0022	-0.0135	0	-51.5
-0.0008	0.0007	-0.0128	0.0007	-51.5
-0.0023	0.0007	-0.0143	0.0007	-51.4
-0.003	0.0015	-0.0165	0.0015	-51.4
-0.003	0	-0.0135	0.003	-51.4
-0.0038	-0.0008	-0.0135	0.0037	-51.4
-0.0038	-0.0015	-0.012	0.0037	-51.4
-0.0046	-0.003	-0.012	0.003	-51.3
-0.003	-0.003	-0.0143	0.0037	-51.3
-0.0015	-0.0023	-0.015	0.0022	-51.3
-0.003	-0.0023	-0.0195	0.003	-51.3
-0.0015	-0.003	-0.0195	0.0007	-51.3
-0.0008	-0.0008	-0.021	0.0015	-51.3
-0.0015	-0.0008	-0.021	0.0007	-51.3
-0.0015	-0.0008	-0.0173	0	-51.3
-0.0023	0.0007	-0.0165	0.0015	-51.3
-0.0023	0.0015	-0.012	-0.0008	-51.2
0.0007	0.0015	-0.0135	0.0015	-51.2
0	0.0015	-0.0165	0.003	-51.2
0.0007	0.0007	-0.015	-0.0008	-51.2
-0.0008	-0.0015	-0.0158	-0.0008	-51.2
-0.0053	-0.0008	-0.0165	-0.003	-51.1
-0.0053	-0.0023	-0.015	-0.0046	-51.1
-0.0068	-0.0023	-0.0158	-0.0046	-51.1
-0.0091	-0.0008	-0.0165	-0.0038	-51.1
-0.0098	0.0007	-0.015	-0.0023	-51
-0.0105	0.0015	-0.0158	-0.0015	-51
-0.0083	0.0007	-0.0158	0	-51
-0.0053	0.0015	-0.0173	0.0007	-51
-0.003	-0.0015	-0.0195	-0.0015	-51
-0.003	-0.003	-0.0181	-0.0008	-50.9
-0.0015	-0.003	-0.0188	-0.0008	-50.9
-0.0023	-0.003	-0.0181	0	-50.9
-0.0015	-0.003	-0.0181	0.0015	-50.9
-0.0046	-0.003	-0.0165	0	-50.9
-0.0053	-0.0008	-0.0158	0	-50.9
-0.006	-0.0015	-0.0173	-0.0008	-50.8
-0.0038	-0.0046	-0.0181	-0.0008	-50.8
0.0007	-0.003	-0.0158	-0.0023	-50.8
0.0007	-0.003	-0.015	-0.003	-50.8
0.0007	-0.0015	-0.0158	0	-50.7
-0.0015	-0.0008	-0.0165	0.0007	-50.7
-0.0023	0.0007	-0.0165	0.0007	-50.7
-0.0038	0	-0.0158	0.0015	-50.7
-0.003	-0.0015	-0.015	0.0007	-50.6
-0.0046	-0.0008	-0.012	-0.0008	-50.6
-0.003	0.0007	-0.012	-0.0015	-50.6
0	-0.0008	-0.012	-0.0008	-50.5
-0.0015	-0.0015	-0.0128	0.0007	-50.5
-0.003	-0.0008	-0.0158	0.0015	-50.5
-0.0046	-0.0015	-0.0143	0.0015	-50.5
-0.006	-0.0008	-0.015	0	-50.4
-0.0053	-0.0015	-0.0143	-0.0008	-50.4
-0.0046	-0.0053	-0.0165	0.0007	-50.4
-0.0068	-0.003	-0.0173	0.0015	-50.4
-0.0068	-0.0046	-0.0181	0.0007	-50.4
-0.0053	-0.0046	-0.0218	0.0015	-50.4
-0.003	-0.0046	-0.0233	0.0022	-50.3
-0.0015	-0.0046	-0.0233	0.0015	-50.3
-0.003	-0.003	-0.0195	0.0007	-50.3
-0.0046	-0.0053	-0.0203	0.0007	-50.3
-0.003	-0.003	-0.0195	0	-50.3
-0.0023	-0.0023	-0.0158	-0.0008	-50.2
-0.0015	-0.0008	-0.0158	0.0022	-50.2
-0.003	0.0007	-0.0158	0.0015	-50.2
-0.0053	-0.0008	-0.0143	-0.0008	-50.2
-0.003	0	-0.0128	-0.0023	-50.2
-0.0015	-0.0008	-0.0128	-0.003	-50.1
-0.003	-0.0015	-0.0181	-0.003	-50.1
-0.0046	-0.0015	-0.0181	-0.0053	-50.1
-0.003	-0.003	-0.0135	-0.0046	-50.1
-0.0046	-0.0015	-0.0128	-0.0046	-50.1
-0.0046	-0.0008	-0.0105	-0.003	-50.1
-0.003	0.0007	-0.012	-0.0023	-50
-0.003	0	-0.0128	-0.0008	-50
-0.0015	-0.0008	-0.0128	0.0037	-50
-0.0008	-0.0015	-0.015	0.003	-50
-0.0015	0	-0.015	0.0007	-50
-0.0046	0.0015	-0.0158	0.0007	-50
-0.0053	-0.0015	-0.0158	-0.003	-50
-0.0046	0	-0.0165	-0.003	-50
-0.0015	0.0007	-0.0165	-0.0015	-50
-0.0008	0.0015	-0.0143	-0.0015	-50
-0.0023	0.0037	-0.0143	0.003	-50
-0.003	0.0015	-0.0165	0.0045	-49.9
-0.006	0.0037	-0.0181	0.006	-49.9
-0.0038	0.0015	-0.0165	0.0045	-49.9
-0.0008	0.0007	-0.0158	0.003	-49.9
-0.0038	0.0015	-0.0143	0.0037	-49.9
-0.0046	0.0007	-0.015	0.0037	-49.9
-0.0046	0.0015	-0.0158	0.0045	-49.9
-0.0015	-0.0015	-0.0188	0.0037	-49.8
0.0007	-0.0038	-0.0195	0.003	-49.8
0.0015	-0.003	-0.0143	0.0015	-49.8
0.003	-0.003	-0.0158	0.0007	-49.8
0.006	-0.0015	-0.015	0.0007	-49.8
0.0112	0	-0.0158	-0.0008	-49.8
0.0105	0.0007	-0.0195	0.0022	-49.8
0.0007	0.0007	-0.0165	0.0037	-49.8
-0.003	0.0015	-0.0195	0.0045	-49.8
-0.0008	0.0007	-0.021	0.0045	-49.8
-0.0008	-0.0008	-0.0203	0.0052	-49.7
-0.0046	-0.0008	-0.0218	0.0045	-49.7
-0.0046	-0.0008	-0.0173	0.0015	-49.7
-0.0038	-0.0015	-0.0173	0	-49.7
-0.0068	-0.003	-0.0165	-0.0008	-49.7
-0.0068	-0.0038	-0.0173	-0.003	-49.7
-0.0053	-0.0023	-0.0225	-0.0038	-49.7
-0.0053	-0.0008	-0.0233	-0.0046	-49.7
-0.003	0	-0.0233	-0.0046	-49.7
-0.003	-0.0015	-0.021	-0.003	-49.7
-0.0046	-0.0008	-0.0158	-0.0015	-49.7
-0.003	0	-0.0135	-0.003	-49.7
-0.0015	0	-0.0113	-0.0015	-49.7
-0.0046	-0.0008	-0.0091	0.0015	-49.6
-0.003	0.0007	-0.0105	0.0015	-49.6
-0.0046	0.0007	-0.0128	0.0007	-49.6
-0.0053	0.0007	-0.0128	-0.0023	-49.6
-0.0046	0.0007	-0.0105	-0.0015	-49.6
-0.0046	0.0007	-0.0135	-0.0015	-49.6
-0.003	-0.0008	-0.0165	-0.0015	-49.6
-0.006	-0.0046	-0.0158	0	-49.6
-0.0083	-0.003	-0.0128	0.0015	-49.6
-0.006	-0.0023	-0.015	0.0015	-49.6
-0.0083	-0.0015	-0.0181	0.0007	-49.6
-0.0091	-0.0015	-0.0158	-0.0015	-49.6
-0.0075	-0.0015	-0.0158	-0.0015	-49.6
-0.0046	-0.0015	-0.0143	0.0007	-49.6
-0.0015	-0.003	-0.0143	0	-49.6
-0.0015	-0.0038	-0.0165	0.0007	-49.6
0.0022	-0.003	-0.0128	0.0007	-49.6
0.0045	-0.003	-0.0128	0.0007	-49.6
0.0052	-0.003	-0.012	0.0015	-49.5
0.0045	-0.0046	-0.012	-0.0008	-49.5
0	-0.0046	-0.0128	0	-49.5
-0.0008	-0.003	-0.012	0	-49.5
0.0007	-0.003	-0.0143	-0.0008	-49.5
0.0015	0	-0.0158	0.0007	-49.5
0.0037	0.0007	-0.0143	0.0007	-49.5
0.0067	0	-0.0158	0.0015	-49.5
0.0052	-0.0008	-0.0135	0	-49.5
0.0037	-0.0008	-0.0143	0.0007	-49.5
0.003	0.0007	-0.0143	0.0007	-49.5
0.0045	-0.0015	-0.0143	0	-49.5
0.0052	-0.0015	-0.015	-0.0008	-49.5
0.003	-0.0008	-0.015	-0.0015	-49.5
0.0015	0.0007	-0.0181	-0.0015	-49.5
0.0007	0.0007	-0.0188	0.0007	-49.5
-0.0008	0.0007	-0.0195	0.0022	-49.5
-0.0046	0.0007	-0.0195	0.0007	-49.5
-0.0046	-0.0008	-0.0173	0.0007	-49.5
-0.0046	0.0015	-0.0188	-0.0008	-49.5
-0.0046	0.0015	-0.0165	0.0015	-49.5
-0.0038	-0.0008	-0.0158	0.0007	-49.5
-0.0083	-0.0015	-0.0143	-0.0015	-49.5
-0.0075	-0.003	-0.0165	0	-49.5
-0.0075	-0.0015	-0.0165	0.0007	-49.5
-0.0091	-0.0015	-0.0181	0.0015	-49.5
-0.0083	-0.0023	-0.021	0.0037	-49.5
-0.006	-0.003	-0.0165	0.003	-49.5
-0.0068	-0.0046	-0.015	0.003	-49.5
-0.0083	-0.0015	-0.0128	0.0015	-49.5
-0.0098	0.0007	-0.012	0.0015	-49.5
-0.0128	0.0007	-0.0165	0.0007	-49.5
-0.0143	-0.0008	-0.0158	0.0015	-49.5
-0.012	-0.003	-0.0135	0.0015	-49.4
-0.0068	-0.003	-0.0143	0.0022	-49.4
-0.003	-0.003	-0.0158	0.0015	-49.4
0	-0.003	-0.0135	-0.0023	-49.4
0.0022	-0.0015	-0.015	-0.003	-49.4
0.003	-0.003	-0.0165	-0.003	-49.4
-0.0015	-0.0038	-0.0195	-0.003	-49.4
-0.0068	-0.0015	-0.0203	-0.0053	-49.4
-0.006	-0.0015	-0.0165	-0.0053	-49.4
-0.0053	0.0007	-0.0135	-0.0046	-49.4
-0.0038	0	-0.0143	-0.0053	-49.3
-0.0023	0.0007	-0.0195	-0.006	-49.3
0.0007	-0.0008	-0.0233	-0.0068	-49.3
0.0045	-0.0023	-0.0233	-0.0053	-49.3
0.003	-0.0023	-0.0203	-0.006	-49.3
-0.0015	-0.003	-0.0195	-0.006	-49.3
-0.0046	-0.0015	-0.0181	-0.0046	-49.3
-0.0053	0.0007	-0.0195	-0.0023	-49.2
-0.0046	0.0037	-0.0195	-0.0015	-49.2
-0.0015	0.0037	-0.0165	-0.0015	-49.2
-0.0008	0.003	-0.0181	-0.0008	-49.2
-0.0015	0.0022	-0.0165	-0.003	-49.2
-0.0015	0.0015	-0.0143	-0.0023	-49.2
0.0007	0	-0.0143	-0.0008	-49.2
-0.0008	0.0007	-0.015	0	-49.1
-0.0015	0.0007	-0.0158	0.0007	-49.1
-0.003	0.003	-0.0135	-0.0015	-49.1
-0.0053	0.0022	-0.0128	-0.0008	-49.1
-0.003	0.0007	-0.012	0.0007	-49.1
-0.0053	-0.0015	-0.0128	0.0022	-49.1
-0.0053	-0.0038	-0.0128	0.003	-49.1
-0.0068	-0.003	-0.0158	0.0037	-49.1
-0.0083	-0.0038	-0.0165	0.0022	-49.1
-0.0068	-0.0023	-0.0181	0.0015	-49.1
-0.0046	-0.0015	-0.0165	0.0015	-49.1
-0.0053	-0.0038	-0.0143	0.0007	-49
-0.006	-0.0046	-0.0158	0.0015	-49
-0.0053	-0.0046	-0.015	0.0007	-49
-0.0046	-0.0046	-0.0195	-0.0008	-49
-0.0038	-0.0023	-0.0203	0.0007	-49
-0.0038	-0.0038	-0.0181	0.0015	-49
-0.0038	-0.003	-0.0188	0.003	-49
-0.0038	-0.003	-0.0181	0.0022	-49
-0.003	-0.0015	-0.0181	0.003	-49
-0.0008	-0.0038	-0.0173	0.003	-49
-0.0008	-0.0038	-0.0165	0.003	-48.9
-0.0015	-0.0053	-0.0158	0.0022	-48.9
-0.0008	-0.0068	-0.0135	0.0007	-48.9
0.0007	-0.0038	-0.012	0.003	-48.9
0.0015	-0.0015	-0.0143	0.0052	-48.9
0.0022	-0.0008	-0.0128	0.0045	-48.9
-0.003	-0.0038	-0.0143	0.003	-48.9
-0.006	-0.0046	-0.0158	0.003	-48.9
-0.0075	-0.0038	-0.0105	0.0015	-48.9
-0.006	-0.003	-0.0135	0.003	-48.9
0	0.0007	-0.012	0.0007	-48.9
0.0015	-0.0008	-0.015	0.0007	-48.9
0.0022	-0.0008	-0.0195	0	-48.8
0.0045	-0.0015	-0.0165	-0.0015	-48.8
0.0052	-0.0008	-0.0195	-0.0008	-48.8
0.0067	0.0007	-0.0188	-0.0008	-48.8
0.0037	0.0015	-0.0195	-0.0008	-48.8
0.0015	0.003	-0.0181	-0.0008	-48.8
-0.0008	0.0007	-0.0195	-0.0008	-48.8
-0.0038	-0.0008	-0.0195	-0.0008	-48.8
-0.0068	0.0015	-0.0158	-0.0015	-48.8
-0.012	0	-0.015	-0.003	-48.8
-0.0113	0.0007	-0.0128	-0.0023	-48.8
-0.0083	0.0007	-0.0128	-0.003	-48.8
-0.0023	0.0015	-0.015	-0.0038	-48.8
0.0007	0.0045	-0.0173	-0.0015	-48.8
0	0.0037	-0.0173	0	-48.8
-0.0015	0.0015	-0.0181	0	-48.8
-0.0008	0	-0.0188	-0.0008	-48.8
0.0022	-0.0008	-0.0143	-0.0008	-48.8
0.0015	-0.0015	-0.0135	-0.0008	-48.8
0.0022	-0.0015	-0.0135	-0.0008	-48.8
0.0015	-0.0015	-0.0143	-0.0015	-48.8
-0.0015	-0.0008	-0.015	0.0015	-48.8
-0.0008	0.0015	-0.0128	0.0022	-48.8
-0.0015	0.0007	-0.0143	0.0015	-48.8
-0.0046	0	-0.0135	0.0022	-48.8
-0.0046	0	-0.012	0.003	-48.8
-0.003	0.0007	-0.0105	0.0022	-48.8
-0.003	-0.0008	-0.0143	0.003	-48.8
-0.0015	-0.0008	-0.0173	0.003	-48.8
-0.003	0.0022	-0.0143	0.0015	-48.8
-0.0046	0.0022	-0.0135	0.0007	-48.8
-0.0053	0.0022	-0.0105	-0.0008	-48.8
-0.0053	0.0022	-0.012	-0.0023	-48.8
-0.0068	0.003	-0.0143	-0.0015	-48.8
-0.0068	0.003	-0.0143	-0.0023	-48.8
-0.0053	-0.003	-0.015	-0.003	-48.8
-0.0053	-0.0038	-0.0158	-0.0038	-48.8
-0.0046	-0.0038	-0.0165	-0.003	-48.8
-0.0046	-0.003	-0.0165	-0.0038	-48.8
-0.0038	-0.0015	-0.0165	-0.0023	-48.8
-0.0046	-0.003	-0.0195	0.0007	-48.8
-0.006	-0.003	-0.0218	-0.0008	-48.8
-0.0038	-0.003	-0.021	0.0007	-48.8
-0.0046	-0.0038	-0.0203	0.0007	-48.8
-0.0046	-0.0046	-0.0181	0	-48.8
-0.0046	-0.0015	-0.0135	0.0022	-48.8
-0.003	-0.0015	-0.0143	0.003	-48.8
0	-0.003	-0.0165	0.003	-48.8
0	-0.0015	-0.0165	-0.0008	-48.8
-0.0015	-0.003	-0.0158	-0.0015	-48.8
-0.0053	-0.0046	-0.0143	-0.0008	-48.8
-0.0046	-0.0046	-0.015	-0.0008	-48.8
-0.0053	-0.0053	-0.0143	0	-48.8
-0.0068	-0.003	-0.015	0.0007	-48.8
-0.0053	-0.003	-0.0135	0.0015	-48.8
-0.0091	-0.0053	-0.012	-0.0008	-48.8
-0.0075	-0.0046	-0.0128	-0.0008	-48.8
-0.0053	-0.0046	-0.0105	0	-48.8
-0.003	-0.0008	-0.0158	0.0007	-48.8
-0.0015	-0.0023	-0.0181	0.0015	-48.8
-0.0015	-0.0023	-0.0173	0.0022	-48.8
-0.0008	-0.0023	-0.0181	0.003	-48.8
-0.0008	-0.0046	-0.0165	0	-48.8
0	-0.003	-0.0165	0.0015	-48.8
0	-0.0023	-0.0165	0.003	-48.8
0	-0.0008	-0.0143	0.0022	-48.7
-0.0008	-0.0023	-0.0143	0.003	-48.7
0.0007	-0.003	-0.0128	0.0015	-48.7
-0.0008	-0.003	-0.012	0.003	-48.7
-0.0015	-0.003	-0.0091	0.0052	-48.7
0.0015	-0.0008	-0.0128	0.0045	-48.7
0.0045	0.0007	-0.0181	0.0045	-48.7
0.0052	0.003	-0.0165	0.0052	-48.7
0.0022	0.0045	-0.0195	0.0045	-48.7
0.0007	0.0045	-0.0218	0.0052	-48.7
0.0007	0.0045	-0.0225	0.003	-48.7
0.0037	0.003	-0.0218	0.003	-48.7
0.003	0.0007	-0.0188	0.0022	-48.7
0.003	-0.0015	-0.0165	0.0007	-48.7
0.0007	-0.003	-0.0143	0.0007	-48.7
-0.0053	-0.0015	-0.0143	-0.0008	-48.7
-0.0098	-0.0015	-0.015	-0.0023	-48.7
-0.0105	-0.0015	-0.0173	-0.0038	-48.7
-0.0075	-0.0015	-0.021	-0.0023	-48.7
-0.0083	-0.0008	-0.0218	-0.0015	-48.7
-0.0053	-0.0008	-0.0203	-0.0015	-48.7
-0.0008	0.0015	-0.0181	-0.0008	-48.7
0.0037	0.0045	-0.0195	-0.0023	-48.7
0.0022	0.0022	-0.0173	-0.0046	-48.7
-0.0038	0.0007	-0.0158	-0.0046	-48.7
-0.0075	0.0007	-0.015	-0.0046	-48.7
-0.0053	0.0007	-0.0181	-0.0015	-48.7
-0.0023	0.0015	-0.0158	0.0015	-48.7
-0.0023	0.0007	-0.0105	0.0007	-48.7
-0.0015	0.0015	-0.0135	0.0015	-48.7
0.0007	0.0007	-0.0143	0.0015	-48.8
0.0015	-0.0008	-0.0165	0.0022	-48.8
-0.0015	0.0007	-0.0165	0.0007	-48.8
-0.0015	-0.0008	-0.015	0	-48.8
-0.0023	0	-0.0165	0.0007	-48.8
-0.003	-0.0015	-0.0188	-0.0008	-48.8
-0.0023	-0.0023	-0.0225	0.0007	-48.8
-0.0038	-0.0008	-0.0225	0.0007	-48.8
-0.0046	0.0007	-0.0263	0.0015	-48.8
-0.0046	0.0007	-0.027	0.0022	-48.8
-0.0053	-0.0015	-0.024	-0.0008	-48.7
-0.006	-0.006	-0.024	0.0007	-48.7
-0.0053	-0.0046	-0.0203	0.0022	-48.7
-0.0046	-0.0008	-0.0195	0.0015	-48.7
-0.0015	-0.0008	-0.0195	0.0015	-48.7
0	-0.0008	-0.0143	0.0022	-48.7
-0.0015	-0.0015	-0.012	0.0015	-48.7
0.0015	-0.0046	-0.0083	0.0007	-48.7
0.0015	-0.0083	-0.006	-0.0015	-48.7
0.0022	-0.0083	-0.006	-0.0023	-48.7
0.0015	-0.0091	-0.0046	-0.003	-48.7
-0.0015	-0.0091	-0.003	-0.0053	-48.7
-0.0015	-0.0105	-0.0046	-0.0053	-48.7
-0.0015	-0.0098	-0.0113	-0.0075	-48.7
0.0037	-0.0083	-0.0143	-0.0091	-48.7
0.0007	-0.0068	-0.0143	-0.0083	-48.7
-0.0091	-0.0053	-0.015	-0.0068	-48.7
-0.012	-0.0015	-0.015	-0.0068	-48.7
-0.0105	0.0007	-0.0158	-0.0046	-48.7
-0.0091	0.0007	-0.0165	-0.003	-48.7
-0.0068	0.0015	-0.0158	-0.0008	-48.7
-0.0053	0.0015	-0.0165	0.0007	-48.7
-0.0068	0.003	-0.0188	0.0007	-48.7
-0.0091	0.0045	-0.0203	0.0015	-48.7
-0.0083	0.0022	-0.024	0.003	-48.7
-0.0105	0.0045	-0.021	0.0022	-48.7
-0.012	0.0045	-0.0195	0.0022	-48.7
-0.0091	0.0022	-0.0195	0.0045	-48.7
-0.0068	0.0037	-0.0181	0.0052	-48.7
-0.0023	0.0045	-0.0165	0.006	-48.7
-0.0015	0.0045	-0.0143	0.006	-48.8
-0.0008	0.0045	-0.0158	0.0052	-48.8
-0.0023	0.006	-0.0165	0.0052	-48.8
-0.0068	0.0082	-0.0173	0.0045	-48.8
-0.0053	0.0045	-0.0165	0.0037	-48.8
-0.006	0.0037	-0.0135	0.0015	-48.8
-0.003	0.003	-0.0128	-0.0008	-48.8
-0.003	0.0015	-0.0128	0	-48.8
-0.0038	0.0007	-0.0128	-0.0015	-48.8
0.0015	-0.0015	-0.012	-0.0015	-48.8
0.0015	-0.003	-0.0135	-0.0023	-48.8
0.0045	-0.0068	-0.0165	-0.003	-48.8
0.0045	-0.0068	-0.0135	-0.0008	-48.8
-0.0015	-0.0083	-0.012	0.0007	-48.8
-0.003	-0.012	-0.0083	0.0037	-48.8
-0.0015	-0.0105	-0.0105	0.003	-48.8
-0.0008	-0.0083	-0.0135	-0.0015	-48.8
0.0015	-0.0046	-0.0135	-0.0023	-48.9
0.0015	-0.006	-0.0143	-0.003	-48.9
0.0037	-0.0038	-0.015	-0.003	-48.9
0.0082	-0.003	-0.0173	-0.0008	-48.9
0.0052	-0.0046	-0.0181	0	-48.9
-0.0008	-0.0015	-0.0158	0.0015	-48.9
-0.0083	-0.0008	-0.0143	0.003	-48.9
-0.0128	0.0015	-0.012	0.0045	-48.9
-0.0083	0.0007	-0.0135	0.0045	-48.9
-0.0015	-0.003	-0.0181	0.0052	-48.9
-0.003	-0.0023	-0.0195	0.0045	-48.9
-0.0068	-0.0023	-0.0195	0.0052	-48.9
-0.0075	0.0007	-0.0165	0.0045	-48.9
0.0007	0.0015	-0.0128	0.0022	-49
0.003	0.0007	-0.0158	0.0037	-49
-0.0023	0.0015	-0.0158	0.003	-49
-0.0038	0.0022	-0.0173	0.0037	-49
-0.003	0.003	-0.0203	0.003	-49
-0.0038	0.003	-0.0203	0.0022	-49
-0.0053	0.0015	-0.0218	0.003	-49
-0.003	0.0015	-0.021	0.0007	-49
0.0007	-0.0008	-0.0173	-0.0008	-49
0.003	-0.0038	-0.0173	-0.0008	-49
0.0052	-0.0008	-0.0181	0.0015	-49.1
0.003	0.0007	-0.0181	0.003	-49.1
0.0015	0.0015	-0.0203	0.0022	-49.1
0.0007	0	-0.0173	0.0015	-49.1
-0.003	-0.0008	-0.015	0	-49.1
-0.003	0.0015	-0.0128	-0.0008	-49.1
-0.0046	-0.0015	-0.0135	-0.0008	-49.1
-0.0068	-0.0008	-0.015	-0.0015	-49.1
-0.0083	0.0007	-0.0158	-0.0008	-49.1
-0.0083	-0.0008	-0.0181	-0.0015	-49.1
-0.0068	-0.0008	-0.0195	-0.0015	-49.1
-0.0068	0.0007	-0.0165	-0.0015	-49.1
-0.0068	0	-0.0203	-0.0015	-49.1
-0.003	-0.0015	-0.0195	-0.0015	-49.1
0.0015	-0.0023	-0.0158	-0.0023	-49.1
-0.0015	-0.0038	-0.0165	-0.0023	-49.1
-0.0068	-0.0053	-0.0165	-0.0023	-49.1
-0.0046	-0.0091	-0.015	-0.0023	-49.1
-0.003	-0.0091	-0.0181	-0.0038	-49.1
-0.0008	-0.0083	-0.0181	-0.0038	-49.1
0.0007	-0.0075	-0.0165	-0.0038	-49.2
0.0037	-0.0053	-0.0173	-0.0046	-49.2
0.006	-0.0046	-0.0158	-0.0046	-49.2
0.0082	-0.003	-0.0195	-0.0046	-49.2
0.0052	-0.003	-0.0173	-0.0046	-49.2
0.0037	-0.0038	-0.0165	-0.0068	-49.2
0.0015	-0.0015	-0.0165	-0.0053	-49.2
0.0015	-0.0008	-0.0113	-0.0038	-49.2
-0.0015	0.0007	-0.0091	-0.0038	-49.2
-0.0068	0.0007	-0.0075	-0.0046	-49.2
-0.0105	0.0007	-0.006	-0.0038	-49.2
-0.0143	0.0037	-0.0083	-0.0046	-49.2
-0.0165	0.0045	-0.012	-0.003	-49.2
-0.0203	0.0037	-0.0158	-0.003	-49.2
-0.0195	0.0015	-0.0181	-0.0008	-49.2
-0.0143	0.0007	-0.0195	-0.003	-49.2
-0.0105	0.0007	-0.0218	-0.003	-49.2
-0.0083	0	-0.0218	-0.0008	-49.2
-0.0046	-0.0015	-0.0181	-0.0008	-49.2
0.0037	-0.0008	-0.0165	-0.0015	-49.2
0.012	-0.0008	-0.0158	0.0007	-49.2
0.0247	-0.0015	-0.0165	0.0045	-49.2
0.0277	-0.0015	-0.0195	0.0045	-49.2
0.0195	-0.0046	-0.0158	0.0052	-49.2
0.0082	-0.0038	-0.0128	0.0052	-49.2
-0.003	-0.0053	-0.0091	0.0045	-49.2
-0.0105	-0.0068	-0.0075	0.0052	-49.2
-0.0105	-0.0053	-0.0091	0.0075	-49.2
-0.0083	-0.0053	-0.0113	0.0082	-49.2
-0.0098	-0.0068	-0.0128	0.0082	-49.2
-0.0098	-0.006	-0.0173	0.0067	-49.2
-0.012	-0.0046	-0.021	0.0052	-49.2
-0.0083	-0.0046	-0.0233	0.0045	-49.2
-0.003	-0.0015	-0.021	0.0037	-49.2
-0.0008	-0.0015	-0.015	0.003	-49.2
0.003	-0.0015	-0.012	-0.0008	-49.2
0.0052	-0.0008	-0.012	-0.0015	-49.2
0.0015	0	-0.0128	0.0007	-49.2
-0.0068	0	-0.0158	-0.0008	-49.2
-0.0068	0	-0.0143	0.0007	-49.2
-0.006	0.0052	-0.0128	0.0007	-49.3
-0.0046	0.0037	-0.012	-0.0008	-49.3
-0.003	0.003	-0.0158	-0.0008	-49.3
-0.0015	0.003	-0.0165	-0.0008	-49.3
-0.0046	0.0007	-0.0165	-0.0015	-49.3
-0.003	0	-0.0195	-0.0008	-49.3
0.003	-0.0008	-0.0158	-0.0015	-49.3
0.0007	0	-0.0188	-0.0015	-49.3
-0.0008	-0.0008	-0.0181	-0.0015	-49.3
0	0.0015	-0.0173	-0.0015	-49.3
0.0007	0.0015	-0.0195	0.0015	-49.2
0.0045	0	-0.0203	0.0022	-49.2
-0.0015	-0.0008	-0.0233	0.0007	-49.2
-0.0098	-0.003	-0.0181	0	-49.2
-0.012	-0.0046	-0.0158	0.0015	-49.2
-0.0098	-0.0023	-0.0165	0.0007	-49.2
-0.0083	-0.0008	-0.0165	0	-49.2
-0.0068	-0.0008	-0.0158	-0.0008	-49.2
-0.0083	0.0015	-0.0143	-0.0008	-49.2
-0.006	0.0007	-0.0143	-0.0008	-49.2
-0.003	0.0007	-0.012	-0.0023	-49.2
-0.0075	0.0007	-0.0128	-0.0015	-49.2
-0.0083	-0.0008	-0.0135	-0.0023	-49.2
-0.0008	0.0022	-0.0158	-0.0008	-49.2
0.0082	0.0007	-0.0181	-0.0015	-49.2
0.0082	-0.0008	-0.0181	-0.0008	-49.2
0.0052	0.0007	-0.0158	-0.0015	-49.2
0.0052	0.0007	-0.015	-0.003	-49.2
0.0045	0.0022	-0.0128	-0.0038	-49.3
-0.003	0.0007	-0.0143	-0.0053	-49.3
-0.0075	-0.0008	-0.0181	-0.0046	-49.3
-0.0053	-0.0008	-0.0173	-0.003	-49.3
-0.0046	-0.0008	-0.0165	-0.0015	-49.3
-0.0068	0.003	-0.0135	-0.0008	-49.3
-0.0083	0.003	-0.0143	-0.0023	-49.3
-0.0091	0.0007	-0.0158	-0.0038	-49.3
-0.0098	-0.0008	-0.0188	-0.0053	-49.3
-0.0046	-0.0015	-0.024	-0.0068	-49.3
-0.0053	-0.0023	-0.0233	-0.0068	-49.4
-0.0046	-0.0038	-0.0218	-0.0046	-49.4
-0.0008	-0.0046	-0.0195	-0.0053	-49.4
-0.0053	-0.0015	-0.0188	-0.006	-49.4
-0.0075	0.0007	-0.0173	-0.003	-49.4
-0.015	0.0022	-0.0128	-0.003	-49.4
-0.0203	0.0022	-0.0128	-0.0015	-49.4
-0.0195	0.0007	-0.0143	-0.0008	-49.4
-0.0068	0.0007	-0.0135	-0.0008	-49.4
0.0045	0	-0.0128	-0.0015	-49.4
0.003	0	-0.0128	-0.0015	-49.4
0.0037	-0.0008	-0.0135	-0.0023	-49.4
0.0052	-0.0008	-0.0128	-0.0008	-49.4
0.0045	-0.0015	-0.0143	0.0022	-49.4
0.0045	-0.0015	-0.0195	0.0015	-49.4
0.0037	-0.0023	-0.0218	0.003	-49.4
0	-0.0023	-0.0195	0.0045	-49.4
-0.0015	-0.0023	-0.0188	0.0045	-49.5
-0.0046	-0.0023	-0.0165	0.003	-49.5
-0.0105	-0.0015	-0.0158	0.003	-49.5
-0.0128	-0.0008	-0.0143	0.006	-49.5
-0.0098	-0.0015	-0.0165	0.006	-49.5
-0.003	-0.0008	-0.0165	0.0052	-49.5
0	-0.0015	-0.0165	0.0052	-49.5
0.0045	-0.0046	-0.0165	0.0052	-49.5
0.0127	-0.006	-0.0143	0.0022	-49.5
0.0165	-0.0083	-0.015	-0.0008	-49.5
0.009	-0.0091	-0.015	-0.0015	-49.5
-0.0023	-0.0091	-0.0128	-0.0008	-49.5
-0.006	-0.0068	-0.0143	-0.0015	-49.5
-0.0105	-0.006	-0.0158	-0.003	-49.5
-0.012	-0.0046	-0.0158	-0.0038	-49.5
-0.0105	-0.0008	-0.0188	-0.0038	-49.5
-0.0105	0	-0.0181	0	-49.5
-0.006	-0.0015	-0.0173	0.003	-49.5
0.0052	-0.003	-0.0128	0.0015	-49.5
0.012	-0.0015	-0.012	-0.0008	-49.5
0.0045	-0.0008	-0.0128	-0.0008	-49.5
0	-0.0008	-0.012	0.0007	-49.5
-0.003	0.0015	-0.0128	0	-49.5
-0.0105	0.0015	-0.0143	0.0015	-49.5
-0.0105	0.0007	-0.0158	0.0022	-49.5
-0.0046	0.0037	-0.0165	0.0015	-49.5
-0.0023	0.0015	-0.0173	-0.0008	-49.5
-0.0075	-0.0008	-0.0143	0.0007	-49.5
-0.0091	-0.003	-0.0128	0.0022	-49.5
-0.0105	-0.0038	-0.0113	0.0015	-49.5
-0.0053	-0.0038	-0.012	0.0015	-49.5
-0.0008	-0.0053	-0.0158	0.0015	-49.5
-0.0046	-0.0046	-0.0165	0.0022	-49.5
-0.0053	-0.003	-0.0181	0.0015	-49.5
-0.003	-0.003	-0.0158	0.003	-49.5
-0.0008	-0.0023	-0.0128	0.0015	-49.5
0.003	-0.0023	-0.0143	0.003	-49.5
0.0067	-0.003	-0.0165	0.0067	-49.5
0.009	-0.0015	-0.0195	0.0052	-49.5
0.009	-0.0008	-0.0173	0.006	-49.5
0.0097	0.0007	-0.0203	0.0045	-49.4
0.0097	0.0015	-0.021	0.0015	-49.4
0.0082	0.0022	-0.0195	0.0015	-49.4
0.0037	0.0045	-0.0225	0.0015	-49.4
0	0.0022	-0.0233	0.003	-49.4
-0.0015	0.0007	-0.0218	0.0037	-49.4
0.0015	0.0007	-0.0218	0.0052	-49.4
-0.006	0.0015	-0.0158	0.006	-49.4
-0.0173	0.0015	-0.0105	0.0067	-49.4
-0.0218	0.0015	-0.0128	0.0045	-49.4
-0.0165	0.003	-0.015	0.0007	-49.4
-0.0075	0.0015	-0.0158	0.0007	-49.3
-0.003	0.0007	-0.0143	-0.0015	-49.3
-0.0023	-0.0008	-0.012	-0.0046	-49.3
-0.0053	-0.0015	-0.0128	-0.0046	-49.3
-0.0113	-0.0015	-0.015	-0.0046	-49.3
-0.0113	-0.003	-0.0165	-0.0023	-49.3
-0.0068	-0.003	-0.0173	-0.0023	-49.3
-0.0083	-0.0015	-0.015	-0.0046	-49.3
-0.0091	-0.003	-0.0181	-0.0046	-49.3
-0.003	-0.0015	-0.0203	-0.0053	-49.2
0	-0.0015	-0.0188	-0.0046	-49.2
0.0007	-0.0023	-0.0158	-0.003	-49.2
-0.0046	-0.003	-0.012	-0.003	-49.2
-0.0068	-0.0015	-0.0128	-0.003	-49.2
-0.0008	-0.0008	-0.0105	-0.0023	-49.2
-0.003	0	-0.0113	-0.0008	-49.2
0	0	-0.0143	0.0007	-49.1
0.006	0	-0.0173	0.003	-49.1
0.003	-0.0008	-0.0158	0.0015	-49.1
0.003	-0.0023	-0.012	0.0015	-49.1
0.0007	-0.0008	-0.0173	0.003	-49.1
-0.0053	0.0007	-0.0165	0.0045	-49.1
-0.0083	0.0022	-0.0173	0.0022	-49
-0.0105	0.0022	-0.0218	0.003	-49
-0.006	0.0037	-0.0256	0.0037	-49
0.0007	0.0015	-0.0293	0.0015	-49
0	0	-0.0293	0	-49
0.009	-0.0008	-0.0248	-0.0023	-48.9
0.0232	-0.0015	-0.0181	-0.0038	-48.9
0.0195	-0.0008	-0.0143	-0.003	-48.9
0.003	-0.003	-0.0098	-0.003	-48.9
-0.012	-0.0015	-0.0008	-0.0038	-48.8
-0.0128	0.0007	-0.003	-0.003	-48.8
0	-0.0008	-0.0053	-0.0015	-48.8
0.003	-0.0015	-0.0075	-0.0015	-48.8
0.0045	-0.0023	-0.0113	-0.003	-48.7
0.0045	-0.003	-0.0135	-0.0023	-48.7
0.0015	-0.003	-0.0181	-0.0008	-48.7
0.0022	-0.003	-0.0181	0.0015	-48.7
0.0052	-0.0008	-0.0195	0.0022	-48.6
0.009	-0.0015	-0.0181	0.0007	-48.6
0.0097	-0.003	-0.0188	0.0007	-48.6
0	-0.0038	-0.0188	-0.0008	-48.6
-0.0053	-0.0046	-0.0143	0.0007	-48.6
-0.0015	-0.0023	-0.0128	-0.0008	-48.5
-0.0083	-0.0015	-0.0075	-0.0015	-48.5
-0.0173	-0.0023	-0.0053	-0.0015	-48.5
-0.0195	-0.0015	-0.0075	-0.0008	-48.5
-0.0091	-0.0023	-0.0128	-0.0008	-48.4
0.0022	-0.0023	-0.0173	0	-48.4
0.003	0	-0.0158	0.003	-48.4
-0.0068	0	-0.0195	0.003	-48.4
-0.0091	-0.0008	-0.0173	0.0022	-48.3
-0.0075	0	-0.0158	0.0007	-48.3
-0.0105	0.0007	-0.0173	-0.0015	-48.3
-0.0128	0.0015	-0.012	-0.0038	-48.2
-0.0128	0.0015	-0.0113	-0.0008	-48.2
-0.012	0.0015	-0.012	0.0007	-48.2
-0.0075	0.0007	-0.0135	0.0022	-48.2
-0.0046	0.0015	-0.0181	0.0022	-48.2
0	-0.0008	-0.0218	0	-48.1
0.0015	-0.0083	-0.0203	-0.0008	-48.1
-0.0008	-0.0091	-0.0181	0	-48.1
-0.003	-0.006	-0.0143	-0.0008	-48.1
-0.0046	-0.0046	-0.0173	-0.0023	-48
-0.003	-0.0015	-0.0195	-0.003	-48
-0.0068	-0.0008	-0.0165	-0.003	-48
-0.0128	0.0007	-0.0158	-0.0015	-47.9
-0.012	0.0007	-0.0143	-0.0015	-47.9
-0.0083	-0.0015	-0.015	-0.0015	-47.9
-0.0075	-0.0008	-0.0173	-0.0015	-47.8
-0.0053	0	-0.021	-0.0046	-47.8
-0.0038	0.0007	-0.0203	-0.0046	-47.8
-0.0015	-0.0015	-0.0188	-0.006	-47.8
0.0007	-0.0015	-0.0188	-0.0053	-47.7
-0.0015	-0.0015	-0.0165	-0.003	-47.7
0.003	-0.003	-0.0158	-0.003	-47.7
0.0082	-0.003	-0.0173	-0.003	-47.6
0.0097	-0.0023	-0.0181	-0.0023	-47.6
0.0097	-0.0015	-0.0128	-0.003	-47.5
0.0007	0	-0.0165	-0.0015	-47.5
-0.003	0.0007	-0.0188	0.0007	-47.4
-0.0075	-0.0008	-0.0173	-0.0015	-47.4
-0.0203	0.0007	-0.015	-0.0008	-47.3
-0.0308	0.0007	-0.0128	0.0015	-47.3
-0.0285	0	-0.0128	0.0037	-47.3
-0.0135	-0.0008	-0.015	0.003	-47.3
-0.0023	-0.0015	-0.0188	0.0015	-47.2
0.0165	-0.0008	-0.0195	0.0015	-47.2
0.0292	-0.0008	-0.0195	-0.0015	-47.1
0.0262	-0.0008	-0.0195	-0.0023	-47.1
0.0217	-0.003	-0.0195	-0.003	-47
0.0165	-0.0046	-0.0195	-0.003	-47
0.0052	-0.003	-0.0181	-0.0015	-46.9
-0.0113	-0.0008	-0.015	-0.0015	-46.9
-0.0353	0.0007	-0.0105	-0.003	-46.8
-0.0315	-0.0015	-0.0173	-0.0038	-46.8
-0.0053	-0.0038	-0.024	-0.0046	-46.8
0.0052	-0.003	-0.0248	-0.0075	-46.7
0.015	-0.0046	-0.0225	-0.0083	-46.6
0.0255	-0.0046	-0.015	-0.0113	-46.6
0.015	-0.0053	-0.0113	-0.012	-46.5
-0.0008	-0.0053	-0.0083	-0.0158	-46.5
-0.0091	-0.0038	-0.0068	-0.0165	-46.4
-0.0128	-0.003	-0.0083	-0.015	-46.4
-0.0143	-0.0008	-0.0091	-0.0165	-46.3
-0.0135	0	-0.0105	-0.0128	-46.3
-0.0135	-0.0008	-0.012	-0.0098	-46.2
-0.0128	0.0007	-0.0158	-0.0083	-46.2
-0.0143	-0.0015	-0.0158	-0.0046	-46.1
-0.0143	0	-0.0158	-0.0015	-46.1
-0.0143	0	-0.015	0	-46
-0.012	0.0007	-0.0128	0.0022	-45.9
-0.0083	0.0015	-0.0128	0.0045	-45.9
-0.0083	0.003	-0.015	0.0067	-45.9
-0.003	0.003	-0.0165	0.0052	-45.8
0.0045	0.0015	-0.0158	0.0067	-45.8
0.0127	0.003	-0.0158	0.0067	-45.7
0.0172	0.0015	-0.0143	0.0075	-45.6
0.0142	0	-0.0158	0.0082	-45.6
0.0142	0.0007	-0.0143	0.0105	-45.5
0.009	-0.0008	-0.0143	0.012	-45.5
-0.0008	-0.0015	-0.0188	0.0082	-45.4
-0.0053	-0.0038	-0.0218	0.0067	-45.4
-0.0075	-0.003	-0.0248	0.0075	-45.3
-0.0046	-0.0008	-0.027	0.009	-45.2
-0.003	-0.003	-0.0278	0.012	-45.2
-0.0053	-0.0015	-0.0263	0.009	-45.1
-0.0083	-0.0008	-0.021	0.009	-45.1
-0.0091	0.0015	-0.0128	0.009	-45
-0.0075	0.0022	-0.0105	0.0105	-45
-0.0083	0.0015	-0.0091	0.009	-44.9
-0.0068	0.003	-0.0128	0.0067	-44.8
-0.003	0.0015	-0.015	0.0082	-44.8
-0.0038	0.0015	-0.0158	0.0067	-44.7
0.0007	0	-0.0173	0.0052	-44.7
0.0052	-0.0015	-0.0158	0.0045	-44.6
0.0045	-0.0008	-0.0165	0.0045	-44.6
0.003	0	-0.012	0.0037	-44.5
-0.0008	-0.0008	-0.0113	0.003	-44.4
0.0007	-0.003	-0.0105	0.003	-44.3
0.0022	-0.003	-0.012	0.0045	-44.3
0.0015	-0.003	-0.0181	0.0052	-44.2
0.0052	-0.003	-0.0165	0.0052	-44.1
0.0067	-0.0008	-0.0181	0.0052	-44.1
0.0015	-0.0008	-0.0165	0.0045	-44
-0.0053	0.0007	-0.0143	0.003	-44
-0.0181	0.0022	-0.012	0.003	-43.9
-0.0233	-0.0008	-0.0091	0.003	-43.8
-0.0091	-0.0008	-0.0113	0.0045	-43.7
-0.0046	-0.0015	-0.012	0.006	-43.7
-0.0083	-0.0008	-0.0158	0.0045	-43.6
-0.0068	0.0015	-0.0195	0.0052	-43.6
-0.0091	0.0007	-0.0233	0.006	-43.5
-0.0053	0.0022	-0.024	0.0067	-43.4
-0.0091	0.0022	-0.0203	0.0082	-43.3
-0.0105	0.0007	-0.0188	0.0082	-43.3
-0.0083	-0.0008	-0.0195	0.0082	-43.2
-0.003	-0.0015	-0.0195	0.009	-43.2
0.003	-0.0023	-0.0181	0.009	-43.1
0.0022	-0.0053	-0.0195	0.0082	-43
0.0015	-0.003	-0.0218	0.0067	-42.9
0.0007	-0.0038	-0.0285	0.0067	-42.8
0.003	-0.0053	-0.0315	0.0067	-42.8
0.0052	-0.0046	-0.0293	0.0075	-42.7
0.0112	-0.0046	-0.0256	0.0052	-42.6
0.0127	-0.006	-0.0165	0.0015	-42.6
0.0052	-0.0068	-0.012	0.0022	-42.5
-0.0046	-0.0046	-0.006	0.0045	-42.4
-0.012	-0.0038	-0.003	0.003	-42.3
-0.0195	-0.0053	-0.0015	0.0022	-42.3
-0.033	-0.0053	0.0082	0	-42.2
-0.0315	-0.0046	0.0015	-0.0008	-42.1
-0.0188	-0.0046	-0.0098	-0.0008	-42.1
-0.0053	-0.0053	-0.015	-0.0008	-42
0.0045	-0.003	-0.0195	-0.003	-41.9
0.0082	-0.003	-0.0165	-0.0015	-41.8
0.0097	-0.0015	-0.0158	-0.0015	-41.8
0.0105	-0.0023	-0.0158	-0.0023	-41.7
0.0097	-0.0038	-0.0158	-0.0008	-41.6
0.0015	-0.0008	-0.0128	-0.0015	-41.5
0	-0.0015	-0.012	-0.0008	-41.4
-0.003	-0.0023	-0.0158	0.0007	-41.4
-0.0038	0	-0.0165	0.0007	-41.3
-0.003	-0.0015	-0.0188	0.0015	-41.2
-0.0008	-0.0015	-0.0195	-0.0008	-41.1
0.006	-0.0015	-0.0218	-0.0008	-41
0.0045	-0.0008	-0.0248	0.0007	-41
0.0007	0.0007	-0.0278	0.0015	-40.9
-0.0015	0.0015	-0.027	0.0015	-40.8
-0.0098	0.0007	-0.024	0.003	-40.7
-0.0181	-0.0008	-0.0188	0.0037	-40.6
-0.0218	0.0015	-0.0143	0.0007	-40.5
-0.012	-0.0008	-0.015	0.0007	-40.5
0.0045	-0.003	-0.0158	0.0015	-40.4
0.0067	-0.0015	-0.0158	-0.0008	-40.3
0.0045	-0.0015	-0.0158	-0.003	-40.2
-0.0008	0.0007	-0.0158	-0.0008	-40.1
-0.0038	0.0007	-0.0158	-0.0008	-40
-0.0098	-0.0015	-0.0105	-0.0015	-39.9
-0.0128	-0.0008	-0.012	-0.0015	-39.9
-0.0008	-0.0008	-0.0135	-0.0008	-39.8
0.0045	-0.0008	-0.012	-0.0008	-39.7
0.0075	0	-0.0113	-0.0015	-39.6
0.0127	0.0007	-0.0083	-0.0015	-39.5
0.009	0.0007	-0.0091	-0.0038	-39.4
0.0052	0.0007	-0.0113	-0.0046	-39.3
-0.0008	0.0015	-0.0128	-0.0046	-39.2
0	0	-0.0158	-0.003	-39.2
-0.0023	-0.0008	-0.0158	-0.0023	-39.1
-0.0046	0	-0.0181	-0.0008	-39
-0.006	0.0015	-0.0165	0.0015	-38.9
-0.0091	0.003	-0.0188	-0.0008	-38.8
-0.0038	0.0007	-0.0195	0.0015	-38.7
-0.003	0.0007	-0.0188	0.0007	-38.7
-0.0038	0.0007	-0.0181	-0.0008	-38.6
0	0.0007	-0.0143	0.0007	-38.5
-0.0023	-0.0008	-0.0105	-0.0015	-38.4
-0.0068	-0.0015	-0.006	-0.003	-38.3
-0.012	0	-0.0105	-0.0015	-38.2
-0.0143	0.0007	-0.012	-0.0015	-38.1
-0.0068	0.0007	-0.0165	-0.0008	-38
-0.0053	0.0007	-0.021	-0.0008	-37.9
-0.0068	0	-0.0218	-0.0015	-37.8
-0.0023	-0.0008	-0.0248	-0.0015	-37.8
0.0007	0	-0.0218	-0.0038	-37.7
0.0015	-0.0023	-0.0181	-0.006	-37.6
-0.0038	-0.0053	-0.0143	-0.0068	-37.5
-0.0083	-0.0046	-0.0128	-0.0046	-37.4
-0.0083	-0.0046	-0.0165	-0.0046	-37.4
-0.003	-0.003	-0.0203	-0.0053	-37.3
0.0052	-0.003	-0.024	-0.0046	-37.2
0.0075	-0.0046	-0.0218	-0.003	-37.1
0.012	-0.0046	-0.021	-0.003	-37
0.0172	-0.003	-0.0203	-0.0038	-36.9
0.012	0	-0.012	-0.0038	-36.8
0.0052	0.0007	-0.0083	-0.003	-36.8
-0.003	-0.0008	-0.0053	-0.003	-36.7
-0.0158	0.0015	-0.0068	0.0007	-36.6
-0.0203	0.0037	-0.0075	0.0022	-36.5
-0.0098	0.0022	-0.0128	0	-36.5
0.0052	0.0007	-0.0165	0.0007	-36.4
0.0142	0.0007	-0.0181	0	-36.3
0.0187	-0.0008	-0.024	-0.0008	-36.2
0.0142	-0.0015	-0.021	-0.0015	-36.1
-0.0015	-0.0008	-0.0195	0	-36.1
-0.0181	0.0007	-0.0165	-0.0008	-36
-0.0315	-0.0008	-0.0128	-0.0015	-36
-0.0285	-0.0008	-0.012	-0.0008	-35.9
-0.0105	-0.0008	-0.0083	-0.0015	-35.8
0.0067	0.0015	-0.0105	-0.0008	-35.7
0.012	0.003	-0.0128	0.0015	-35.6
-0.003	-0.0008	-0.012	0.0022	-35.6
-0.0128	-0.0046	-0.0113	0.0007	-35.5
-0.0165	-0.0083	-0.0128	0.0015	-35.4
-0.0203	-0.0053	-0.0181	0.0007	-35.4
-0.0173	-0.0046	-0.0188	0.0007	-35.4
-0.0143	-0.003	-0.021	0.0022	-35.3
-0.0083	-0.0008	-0.0218	0.0015	-35.3
0.0067	-0.003	-0.0225	0.003	-35.3
0.018	-0.003	-0.0263	0.003	-35.3
0.018	-0.0015	-0.0293	0.003	-35.3
0.0112	0.0007	-0.0308	0.0045	-35.2
-0.0046	0.0015	-0.0293	0.0015	-35.2
-0.021	-0.0015	-0.027	-0.0008	-35.2
-0.0285	0	-0.0195	-0.0008	-35.1
-0.021	-0.0015	-0.0113	-0.0008	-35.1
-0.0008	-0.003	-0.0083	-0.0015	-35.1
0.0202	-0.0015	-0.0068	-0.0008	-35.1
0.0157	-0.0008	-0.0015	-0.0015	-35.1
-0.0046	-0.0015	0	-0.0008	-35.1
-0.0068	-0.0015	-0.003	0.0007	-35.1
-0.0053	0	-0.0068	-0.0008	-35
-0.0008	-0.0008	-0.0143	-0.003	-35
0.0045	-0.0023	-0.0188	-0.0046	-35
0.0015	-0.0046	-0.0218	-0.0038	-34.9
-0.003	-0.0023	-0.0218	-0.0023	-34.9
-0.0015	-0.0008	-0.0203	-0.0023	-34.9
0.012	-0.003	-0.0218	-0.0023	-34.8
0.0187	-0.0023	-0.0195	-0.0015	-34.8
0.024	-0.006	-0.0173	-0.003	-34.7
0.0285	-0.006	-0.0165	-0.0015	-34.7
0.0255	-0.003	-0.015	0	-34.7
0.015	-0.003	-0.012	-0.0008	-34.7
-0.012	0	-0.0158	0.0015	-34.6
-0.0248	0	-0.0158	0.003	-34.6
-0.0188	-0.0015	-0.0158	0.0015	-34.6
-0.0233	-0.0008	-0.0195	0.0007	-34.5
-0.024	0	-0.0128	0	-34.5
-0.0225	0.0015	-0.0098	0	-34.5
-0.0128	0.003	-0.0046	0	-34.4
-0.0015	0.0022	-0.0038	0.0007	-34.4
-0.0091	0.0045	-0.0083	0.0007	-34.3
-0.0113	0.0037	-0.0075	0.003	-34.3
-0.0218	0.0007	-0.0158	0.003	-34.3
-0.039	0	-0.0195	0.0015	-34.2
-0.033	0	-0.024	0.0015	-34.2
-0.0135	-0.0015	-0.0346	0	-34.1
0.027	-0.0015	-0.0398	0.0007	-34
0.0742	-0.003	-0.0428	-0.0015	-34
0.084	-0.0015	-0.0368	-0.0015	-33.9
0.057	-0.0053	-0.0256	0	-33.8
0.0052	-0.0046	-0.012	0	-33.8
-0.0278	0.0015	0	0.0015	-33.7
-0.0525	0.0015	0.012	0.003	-33.7
-0.0856	0.003	0.0135	0.0015	-33.6
-0.0563	0.0015	0.0045	0.0015	-33.5
-0.0083	0.0007	0.0052	0.0007	-33.5
0.0045	0.0007	-0.0023	0.0007	-33.4
0.0172	0.0007	-0.0181	-0.0015	-33.3
0.0195	-0.0023	-0.0278	0	-33.3
0.0022	-0.003	-0.0315	-0.0008	-33.2
-0.0203	-0.0008	-0.0278	-0.0015	-33.2
-0.0338	0.0007	-0.0278	0.0015	-33.1
-0.033	0	-0.027	0.0022	-33
-0.0338	-0.0015	-0.0256	0.0015	-33
-0.0218	-0.0046	-0.0346	-0.0008	-32.9
0.0045	-0.0053	-0.033	-0.0015	-32.9
0.0255	-0.0046	-0.0256	-0.0008	-32.8
0.0352	-0.0015	-0.0218	-0.0008	-32.8
0.0285	0.0022	-0.0143	-0.0008	-32.7
0.003	-0.0008	-0.012	-0.0008	-32.6
-0.015	-0.003	-0.0053	0	-32.6
-0.0181	0.0007	-0.0015	0.0007	-32.5
-0.0091	0	-0.0046	-0.0008	-32.4
0.0007	0.0015	-0.0135	-0.0008	-32.4
0.0157	0.0015	-0.0181	-0.0008	-32.4
0.0142	-0.0008	-0.0105	-0.003	-32.3
-0.0053	-0.0015	-0.006	-0.0068	-32.3
-0.012	-0.0046	-0.0091	-0.0075	-32.2
-0.0046	-0.0083	-0.0135	-0.0083	-32.1
-0.0091	-0.0083	-0.0098	-0.0053	-32.1
-0.0195	-0.0023	-0.0158	-0.0046	-32
-0.0158	-0.0008	-0.0218	-0.0053	-32
-0.0091	0.0007	-0.0158	-0.0046	-31.9
0.0082	0	-0.0083	-0.0053	-31.9
0.0195	0.0007	-0.0135	-0.0038	-31.8
0.0187	0.0022	-0.0173	-0.0038	-31.7
0.009	0.0007	-0.0195	-0.0015	-31.7
-0.0023	0.003	-0.0233	0.0007	-31.6
-0.0015	0.003	-0.0181	0.0022	-31.6
0.0037	0	-0.021	0.0037	-31.5
0.015	0.0007	-0.024	0.003	-31.5
0.0255	0.0007	-0.0203	0.0045	-31.4
0.0232	-0.003	-0.015	0.003	-31.4
0.009	-0.0068	-0.0083	0.0015	-31.3
-0.0083	-0.0075	-0.0068	0.0022	-31.3
-0.012	-0.0068	-0.0046	0.0052	-31.2
-0.0188	-0.0053	-0.0068	0.0082	-31.1
-0.0225	-0.0038	-0.012	0.0097	-31.1
-0.0225	-0.006	-0.0173	0.009	-31.1
-0.015	-0.0046	-0.0165	0.0052	-31
0.0022	-0.003	-0.0158	0.0037	-30.9
0.0075	-0.0046	-0.0165	-0.0008	-30.9
0.0097	-0.0015	-0.0158	-0.0023	-30.8
0.0105	-0.0023	-0.0181	-0.0008	-30.8
0.0105	0	-0.0158	-0.0008	-30.7
-0.0023	0.0007	-0.0113	-0.0015	-30.6
-0.0143	0.0015	-0.0098	-0.0008	-30.6
-0.0143	0.0045	-0.0105	0.0007	-30.5
-0.0203	0.0045	-0.012	-0.0015	-30.5
-0.0315	0.0015	-0.0158	-0.0015	-30.4
-0.0353	-0.0015	-0.0203	-0.0015	-30.4
-0.0233	-0.0015	-0.0233	-0.0023	-30.3
-0.0091	-0.0023	-0.0248	-0.0023	-30.2
0.0082	0.0007	-0.0225	-0.0046	-30.2
0.0292	0.0007	-0.0203	-0.0023	-30.1
0.033	-0.0008	-0.0165	0	-30.1
0.015	-0.003	-0.0105	-0.0015	-30
-0.0008	-0.0015	-0.006	-0.0008	-29.9
-0.0083	0	-0.003	0.0007	-29.9
-0.0203	-0.0008	-0.0053	0	-29.8
-0.0203	0.0015	-0.012	-0.0015	-29.8
-0.0098	-0.0015	-0.0225	-0.0008	-29.7
0.024	-0.0015	-0.0293	0.0022	-29.7
0.0532	-0.0008	-0.03	0.0022	-29.6
0.0472	-0.0008	-0.0293	0.0015	-29.5
0.0337	-0.0008	-0.0203	0	-29.5
-0.0015	-0.0023	-0.0113	-0.0008	-29.4
-0.039	-0.0023	-0.0083	-0.0015	-29.3
-0.045	-0.0023	-0.0083	-0.003	-29.3
-0.0323	0.003	-0.0068	-0.0015	-29.3
-0.0263	0.0112	0.0007	-0.0015	-29.2
-0.0323	0.0142	-0.0008	-0.0015	-29.1
-0.0278	0.0097	-0.0068	0	-29
-0.0158	0.0052	-0.0165	0.0015	-29
-0.012	0.0022	-0.0256	0.0022	-28.9
-0.0008	-0.0008	-0.0278	0.0015	-28.8
0.0067	-0.0068	-0.0293	0.0022	-28.8
0.0067	-0.0181	-0.024	-0.0008	-28.8
0.0045	-0.0248	-0.0195	-0.0046	-28.7
-0.006	-0.0233	-0.0165	-0.0083	-28.6
-0.0068	-0.0128	-0.0113	-0.0068	-28.6
0.0052	-0.003	-0.0113	-0.003	-28.5
0.012	-0.0068	-0.0165	-0.003	-28.4
0.0165	-0.0046	-0.0203	-0.0023	-28.4
0.0292	-0.0023	-0.0256	-0.0046	-28.4
0.027	-0.0008	-0.0225	-0.003	-28.3
0.0105	0.0045	-0.0158	-0.0008	-28.2
0.0135	0.0015	-0.0173	0	-28.2
0.021	0.0045	-0.0181	0.0007	-28.1
0.0112	0.0037	-0.0181	-0.0008	-28.1
-0.0083	-0.0015	-0.015	-0.0008	-28
-0.0285	-0.003	-0.0158	-0.0015	-27.9
-0.0315	-0.0008	-0.0165	-0.003	-27.9
-0.0158	0.0007	-0.0181	-0.0015	-27.9
-0.0015	-0.0015	-0.0218	0.0007	-27.8
0.003	0.0007	-0.0143	0.003	-27.7
-0.0105	0.003	-0.0068	0.0052	-27.7
-0.0308	0.0015	-0.0038	0.006	-27.6
-0.0256	0.0015	-0.0105	0.0075	-27.6
-0.0195	0.003	-0.0143	0.0045	-27.5
-0.0233	0.0037	-0.0128	0.003	-27.5
-0.0128	0.0015	-0.0218	0.0045	-27.4
-0.006	-0.0008	-0.0188	0.003	-27.4
-0.0015	-0.0023	-0.015	0.003	-27.3
-0.0008	-0.0015	-0.0128	0.0015	-27.3
-0.0008	0	-0.0113	0.0015	-27.2
0.0015	-0.0015	-0.0091	0.0045	-27.1
-0.0008	-0.0008	-0.0083	0.0052	-27.1
0.0007	0.0015	-0.0128	0.006	-27
0.0082	0.0015	-0.0203	0.0082	-27
0.0172	0.0082	-0.027	0.0067	-27
0.0202	0.0127	-0.0256	0.0045	-26.9
0.0217	0.0127	-0.0195	0.003	-26.8
0.0022	0.0105	-0.0128	0.0007	-26.8
-0.024	0.0097	-0.0128	-0.003	-26.7
-0.0256	0.009	-0.0113	-0.0046	-26.7
-0.0046	0.009	-0.0165	0	-26.6
0.0052	-0.003	-0.0256	0.0007	-26.6
0.0045	-0.0315	-0.0323	-0.0008	-26.6
-0.0015	-0.0473	-0.0383	0.0007	-26.5
-0.0143	-0.033	-0.0375	0.003	-26.4
-0.0068	-0.0083	-0.0323	0.003	-26.4
0.0135	0.003	-0.027	0.003	-26.3
0.0435	0.0067	-0.0203	0.003	-26.3
0.027	0.0067	-0.0015	0.0007	-26.2
-0.0015	0.0045	0.0052	-0.0008	-26.2
0.0142	0.003	0.0015	-0.003	-26.1
-0.0128	0.003	0.0037	0.0007	-26.1
-0.0555	0.0052	-0.0068	0.0015	-26
-0.0465	-0.0038	-0.0128	-0.0023	-26
-0.0203	-0.0218	-0.0165	-0.0046	-25.9
-0.0068	-0.0225	-0.0248	-0.0053	-25.9
0.0015	-0.006	-0.024	-0.003	-25.8
-0.0015	-0.003	-0.0173	-0.0038	-25.8
-0.012	0.0007	-0.0128	-0.0053	-25.7
-0.0098	0.003	-0.0068	-0.0053	-25.7
-0.0053	-0.0015	-0.0068	-0.006	-25.7
-0.0008	-0.0008	-0.0105	-0.0053	-25.6
0.009	-0.0008	-0.0083	-0.0053	-25.5
0.0067	0.0015	-0.0158	-0.003	-25.5
-0.0015	0.0037	-0.0195	0	-25.4
-0.0128	0.0075	-0.0218	0.0007	-25.4
-0.033	0.0082	-0.0218	0.0015	-25.3
-0.033	0.0037	-0.0188	0.003	-25.3
-0.0098	0.0075	-0.021	0.0015	-25.2
0.0045	0.0067	-0.0218	0.0007	-25.2
0.018	0.0022	-0.0256	0	-25.2
0.027	0	-0.0256	0	-25.1
0.027	-0.0015	-0.0218	0.0007	-25.1
0.0255	-0.0046	-0.0218	0.0007	-25
0.0232	-0.0068	-0.0203	0.0007	-25
0.0165	-0.0113	-0.0195	0.0007	-24.9
-0.003	-0.006	-0.0165	0.0022	-24.9
-0.0105	-0.0015	-0.0113	0.0015	-24.9
-0.0098	-0.0015	-0.0053	0.003	-24.8
-0.0046	0.0007	0	0.003	-24.8
-0.0053	0.0007	0.0007	0.0022	-24.8
-0.0091	0.0015	-0.012	0.0015	-24.7
-0.0173	0.0007	-0.0181	0.0022	-24.7
-0.0346	-0.0008	-0.0233	0.0007	-24.6
-0.0308	-0.0008	-0.0278	-0.0008	-24.6
0.0127	-0.0023	-0.0225	0.0007	-24.5
0.0397	-0.0008	-0.0105	0.0022	-24.5
0.0097	-0.0015	0.0045	0.0037	-24.4
-0.0046	-0.003	0.018	0.003	-24.3
-0.0075	-0.0015	0.0225	0.0037	-24.3
-0.0181	-0.0008	0.012	0.003	-24.3
-0.0158	0	-0.0053	0.0007	-24.2
0	0	-0.0195	0.0022	-24.1
0.0195	0.0007	-0.0293	0.0015	-24.1
0.0165	0.0015	-0.0346	0.0037	-24
0.0135	0.0022	-0.0375	0.0022	-23.9
-0.0046	0.0007	-0.0346	0.0015	-23.9
-0.0383	0.0007	-0.03	0.003	-23.9
-0.0315	0.0007	-0.0293	0.0015	-23.8
-0.006	-0.0008	-0.0293	0.0015	-23.7
-0.0083	0.0015	-0.0308	0.0007	-23.7
-0.0075	-0.0008	-0.033	-0.0015	-23.6
-0.0046	-0.0023	-0.0338	-0.003	-23.5
-0.0225	0.0015	-0.0278	-0.0023	-23.5
-0.0256	0.003	-0.0233	-0.0015	-23.4
-0.0285	0.0015	-0.0233	-0.0008	-23.4
-0.0225	-0.0008	-0.024	0.0015	-23.3
0.006	-0.0046	-0.0203	0.006	-23.3
0.0465	-0.0023	-0.0233	0.0097	-23.2
0.0705	0.003	-0.0233	0.0067	-23.1
0.0532	0.0052	-0.0023	0.0052	-23.1
0.024	0.0045	0.0082	0.003	-23
-0.006	-0.0008	0.0037	0.0007	-23
-0.0105	-0.0083	0.0015	0	-22.9
0.0015	-0.012	0.0067	-0.0008	-22.8
-0.0368	-0.0105	0.015	-0.0015	-22.8
-0.0683	-0.003	0.0142	-0.0046	-22.7
-0.057	0.0007	0.009	-0.0068	-22.6
-0.0233	0.0015	-0.0015	-0.006	-22.6
0.003	0.0052	-0.0105	-0.0046	-22.5
0.0127	0.0037	-0.0128	-0.006	-22.5
0.0255	0.0015	-0.0158	-0.0046	-22.4
0.0247	-0.0046	-0.021	-0.0046	-22.3
0.027	-0.0083	-0.0233	-0.0038	-22.3
0.0292	-0.0113	-0.0195	-0.0046	-22.2
0.0172	-0.0113	-0.0158	-0.006	-22.1
-0.0046	-0.0083	-0.0128	-0.0068	-22.1
-0.012	-0.0046	-0.0113	-0.006	-22.1
-0.0091	0	-0.0165	-0.0023	-22
-0.012	-0.0015	-0.0233	0.0007	-22
-0.0113	0.0015	-0.0293	0.0015	-21.9
-0.0113	0.0015	-0.0308	-0.0008	-21.8
-0.0135	-0.003	-0.03	-0.0008	-21.8
-0.0158	-0.0053	-0.0315	0	-21.7
-0.0053	-0.0053	-0.0315	-0.0015	-21.7
0.0052	-0.0046	-0.0368	-0.0015	-21.6
0.015	-0.003	-0.0353	-0.0023	-21.6
0.0195	-0.0015	-0.0293	-0.0008	-21.6
0.021	-0.003	-0.0278	-0.003	-21.5
0.0022	-0.003	-0.0165	-0.0046	-21.5
-0.0203	-0.0008	-0.0008	-0.0015	-21.4
-0.0135	-0.0008	0.0052	0	-21.3
-0.0278	0	-0.0015	0.0015	-21.3
-0.0398	-0.0015	-0.012	0.0022	-21.2
-0.0173	0	-0.0233	0.0037	-21.2
-0.0091	0.0015	-0.024	0.0045	-21.2
-0.0143	0.003	-0.0165	0.003	-21.1
-0.0188	0.0015	-0.0053	0.0022	-21.1
-0.0173	0.0015	0.0037	0.0007	-21
-0.003	0.003	-0.0038	0.0015	-21
0.0105	-0.0008	-0.0203	0.003	-21
0.0135	-0.0023	-0.042	0.0007	-20.9
0.0202	-0.0023	-0.054	-0.0008	-20.9
0.012	0.0007	-0.048	-0.0046	-20.8
0.0052	-0.0015	-0.0323	-0.0068	-20.8
0.0067	-0.003	-0.0195	-0.0068	-20.7
-0.0083	0.0007	-0.0091	-0.006	-20.7
-0.0113	0.0037	0.0015	-0.003	-20.7
-0.0053	0.009	0.0045	-0.0008	-20.7
0.0052	0.0082	0.003	0	-20.6
0.0082	0.003	-0.003	0.0007	-20.6
0.0082	0.0007	-0.0098	-0.0023	-20.5
0.0067	0	-0.0113	-0.0015	-20.5
-0.015	-0.0075	-0.0053	-0.0008	-20.5
-0.0158	-0.024	-0.0015	-0.0023	-20.4
-0.0008	-0.0293	-0.003	-0.003	-20.4
-0.0053	-0.0113	-0.0015	-0.0008	-20.3
-0.0113	0	-0.0083	0.0022	-20.3
-0.0195	-0.003	-0.0188	0.0045	-20.3
-0.0278	0	-0.0256	0.006	-20.2
-0.0068	0	-0.0315	0.0022	-20.2
0.0142	0	-0.0293	-0.0008	-20.2
0.0195	0.0022	-0.027	-0.0008	-20.1
0.009	0.0022	-0.024	0.0007	-20.1
-0.0135	0.0082	-0.0293	0.0037	-20
0.0045	0.0127	-0.0315	0.0015	-20
0.018	0.009	-0.0285	0.0015	-19.9
0.0015	0.0052	-0.03	0.003	-19.9
0.0015	0.0067	-0.0278	0.0022	-19.9
0.0217	0.006	-0.0256	0.0022	-19.8
0.0397	0.006	-0.0218	0.0037	-19.8
0.021	-0.0068	-0.012	0	-19.8
-0.0233	-0.0293	0.0022	-0.0046	-19.7
-0.0593	-0.0143	0.018	-0.0008	-19.7
-0.0563	0.0082	0.027	-0.0008	-19.7
-0.024	-0.003	0.0232	-0.003	-19.6
-0.0046	0.0007	0.0202	-0.0046	-19.6
-0.0008	-0.0046	0.018	-0.0068	-19.5
-0.0046	-0.006	0.006	-0.0075	-19.5
-0.0113	0.0022	-0.0068	-0.0015	-19.4
-0.012	0.0007	-0.0188	0.0015	-19.4
-0.0128	0.0015	-0.024	0.0015	-19.4
-0.0195	-0.0008	-0.0308	0.0037	-19.4
-0.0181	0.0007	-0.033	0.0022	-19.3
-0.0053	0	-0.0308	0.0045	-19.3
0.0127	0	-0.0353	0.0052	-19.2
0.0315	0.0007	-0.0315	0.0037	-19.2
0.039	0.0007	-0.0256	0.0052	-19.2
0.0127	0.0007	-0.0203	0.0075	-19.1
-0.0165	0.0022	-0.0135	0.0052	-19.1
-0.0158	0.0082	-0.0181	0.006	-19
-0.0128	0.0105	-0.0188	0.0067	-19
-0.0015	0.015	-0.0195	0.006	-18.9
0.0097	0.0135	-0.0256	0.0045	-18.9
0.0037	0.0067	-0.0203	0.003	-18.9
-0.0083	-0.0015	-0.0225	0.0045	-18.9
-0.0091	-0.0165	-0.0315	0.0045	-18.8
