File Name: 8Nmar.log
Channel 1: 'RF', 9227 values, engineering units: mV, no filters.
Channel 2: 'BF', 9227 values, engineering units: mV, no filters.
Channel 3: 'VM', 9227 values, engineering units: mV, no filters.
Channel 4: 'ST', 9227 values, engineering units: mV, no filters.
Channel 5: 'FX', 462 values, engineering units: deg, no filters, extrapolated from 50 to 1000 samples per second.

-0.0023	-0.0256	0.0037	-0.0218	-4.2
-0.003	-0.0218	0.0015	-0.006	-4.2
-0.0023	-0.0113	0.0007	0.015	-4.2
-0.0008	-0.0008	0.0007	0.0352	-4.2
-0.0008	-0.0083	0.0007	0.036	-4.2
0.0007	-0.0068	0.0015	0.0142	-4.2
0.0007	-0.0046	0.003	-0.0023	-4.2
-0.0008	-0.0068	0.0052	-0.0083	-4.2
0.0007	-0.0053	0.0045	-0.0083	-4.2
0.0015	-0.0098	0.003	-0.0091	-4.2
0.0007	-0.0083	0.0045	-0.0105	-4.2
0.0015	-0.0091	0.0052	-0.0091	-4.2
0.0007	-0.006	0.0045	-0.0091	-4.2
-0.0015	-0.0053	0.0045	-0.0083	-4.2
-0.003	-0.0053	0.003	-0.0083	-4.2
-0.003	-0.0046	0.003	-0.0068	-4.2
-0.0015	-0.0023	0.0045	-0.0038	-4.2
0.0007	0.0022	0.0022	-0.0038	-4.2
0.0022	0	0.0022	-0.0023	-4.2
0.0037	-0.0015	0.0015	0.0007	-4.2
0.0015	-0.0015	0.0015	0.0015	-4.2
0.0015	-0.0053	0.0007	0.0015	-4.2
0.0007	-0.0046	0.0015	0.0007	-4.2
0.0015	-0.0053	0.0015	0.0007	-4.2
0.003	-0.0046	-0.0008	-0.0015	-4.2
-0.0008	0	-0.003	0.0015	-4.2
-0.0008	-0.0008	-0.0053	0.0015	-4.2
0.0007	-0.006	-0.006	0.0022	-4.2
-0.0015	-0.0105	-0.0053	0.003	-4.2
-0.0008	-0.006	-0.0053	0.0045	-4.2
-0.0023	0.0007	-0.0038	0.0097	-4.2
-0.0015	0.0022	-0.0046	0.0127	-4.2
-0.0015	0.0067	-0.0038	0.0142	-4.2
-0.003	0.0075	-0.0015	0.012	-4.2
-0.0008	0.0127	0	0.009	-4.2
0.0007	0.027	0	0.0112	-4.2
0.0015	0.039	0.0007	0.012	-4.2
0.003	0.0285	0.003	0.006	-4.2
0.0022	0.0112	0.0037	0.0022	-4.2
0.0007	0.006	0.003	0.0007	-4.2
-0.003	-0.0015	0.0015	0.003	-4.2
-0.0038	0	0	0.0075	-4.2
-0.003	-0.0008	-0.0008	0.003	-4.1
-0.0015	-0.0038	0.0015	0.0015	-4.1
-0.0008	-0.0046	0.0007	0	-4.1
-0.003	-0.0068	-0.0008	0.003	-4.1
-0.003	-0.0091	-0.0008	0.006	-4.1
-0.0023	-0.0105	-0.0008	0.006	-4.1
0.0007	-0.0053	0	0.0075	-4.1
0.0007	-0.0008	0.0007	0.009	-4.1
-0.0008	-0.0015	0.0007	0.009	-4.1
-0.003	-0.0023	0	0.0045	-4.1
-0.0046	0.0007	-0.0015	0.0015	-4.1
-0.0053	-0.0008	-0.0008	0.0007	-4.1
-0.0046	0	0.003	0.0015	-4
-0.0008	0.0037	0.0015	0.0007	-4
0	0.003	0.0022	0.0015	-4
-0.0008	0.0052	0.0015	0.003	-4
-0.003	0.003	0.0015	0.0022	-4
-0.0023	0.0022	0.0007	0.003	-4
-0.0008	0.0037	0.0007	0.003	-4
-0.0023	0.0015	0.0007	0.0052	-4
-0.0015	-0.0053	-0.0008	0.0052	-3.9
-0.0015	-0.0105	-0.0008	0.0052	-3.9
-0.0015	-0.006	0.0015	0.009	-3.9
-0.0015	-0.006	0.0007	0.009	-3.9
-0.0038	-0.0046	0	0.012	-3.9
-0.0046	-0.003	0.0007	0.0112	-3.9
-0.0046	-0.0023	-0.0015	0.0112	-3.9
-0.0038	-0.003	-0.0008	0.0127	-3.9
-0.003	-0.0046	0.0015	0.0105	-3.8
-0.0008	0.0022	0.003	0.0082	-3.8
0.0015	0.0015	0.0052	0.0082	-3.8
0.0022	-0.0038	0.0067	0.0067	-3.8
0.003	-0.0128	0.0067	0.0045	-3.8
0.0015	-0.021	0.0052	0.0015	-3.8
0.0015	-0.0233	0.0045	-0.0023	-3.8
-0.0008	-0.024	0.0037	-0.0046	-3.8
-0.0008	-0.0188	0.003	-0.0053	-3.7
-0.0008	-0.0158	0.0037	-0.006	-3.7
0.0007	-0.0158	0.0022	-0.0053	-3.7
0.0007	-0.0105	0.003	-0.0046	-3.7
0.0007	-0.0083	0.0022	-0.006	-3.7
0.0007	-0.0105	0.0022	-0.0083	-3.7
-0.0015	-0.0113	0.0045	-0.0068	-3.7
-0.0015	-0.0128	0.0067	-0.0083	-3.6
0	-0.012	0.006	-0.0053	-3.6
-0.0008	-0.0068	0.0045	-0.0068	-3.6
0.0007	-0.0053	0.0052	-0.0113	-3.6
0.0007	-0.0015	0.0052	-0.012	-3.6
0.0007	0.0007	0.0045	-0.012	-3.6
0.0015	0.0022	0.0015	-0.0091	-3.6
0.0007	0.0067	-0.0015	-0.0083	-3.6
-0.0008	0.0082	-0.0015	-0.0105	-3.5
-0.0023	0.0075	-0.0008	-0.0113	-3.5
-0.0015	0.0037	-0.0008	-0.0105	-3.5
-0.0015	0.0052	0	-0.0128	-3.5
-0.0046	0.0082	-0.0008	-0.0143	-3.5
-0.0023	0.009	-0.0023	-0.0113	-3.5
-0.0015	0.009	-0.003	-0.0091	-3.4
-0.0008	0.0067	-0.0008	-0.0075	-3.4
0	0.0022	-0.0008	-0.0091	-3.4
0	0	-0.0023	-0.0091	-3.4
0	0.0015	-0.0015	-0.006	-3.4
-0.0015	0.003	-0.003	-0.006	-3.4
-0.0008	0.0007	-0.0015	-0.0046	-3.4
-0.0008	0.0007	0	-0.0053	-3.4
0	0.003	-0.0008	-0.0038	-3.4
0.0007	0.0015	0.0007	-0.0046	-3.3
0.0015	0.0015	0.0015	-0.0053	-3.3
0.0022	0	0.0015	-0.0053	-3.3
0.0007	-0.0046	-0.0008	-0.0053	-3.3
-0.0008	-0.0068	-0.003	-0.0053	-3.3
0.0007	-0.0075	-0.003	-0.0053	-3.3
0	-0.0053	-0.0015	-0.0053	-3.3
0	-0.0046	0.0007	-0.0053	-3.3
0.0007	-0.0046	0	-0.0023	-3.3
0.0007	-0.0075	0	-0.0008	-3.3
-0.0008	-0.0038	-0.0008	-0.0023	-3.2
0.0007	0.0142	-0.0008	-0.0015	-3.2
0.0007	0.0307	0.0015	-0.0015	-3.2
0.0007	0.0187	0.0007	-0.0023	-3.2
0.0015	0.0105	0.0015	-0.0008	-3.2
0.0007	0.0127	0.0007	0.0015	-3.2
0.0007	0.0045	-0.003	0.0015	-3.2
0.0015	0.0052	-0.003	0.0015	-3.2
0.0022	0.0022	-0.0015	0.0045	-3.2
0.003	0.0015	-0.0015	0.012	-3.2
0.003	0.0015	-0.0008	0.0135	-3.2
0.0037	-0.003	-0.0015	0.012	-3.2
0.0007	0	-0.0008	0.0105	-3.1
0.0007	-0.0008	0	0.0105	-3.1
0.0037	-0.0023	0.0007	0.0112	-3.1
0.0015	-0.0046	0.0015	0.009	-3.1
0.0007	-0.0053	0.003	0.006	-3.1
0	-0.0068	0.0045	0.006	-3.1
-0.0008	-0.006	0.0067	0.0067	-3.1
-0.0015	-0.0023	0.006	0.0067	-3.1
-0.0015	-0.0053	0.0052	0.0067	-3
-0.0015	-0.006	0.0052	0.0052	-3
-0.003	-0.006	0.0045	0.0067	-3
-0.0008	-0.006	0.0045	0.0067	-3
-0.0008	-0.0075	0.0015	0.0037	-3
0.0007	-0.0105	0.0015	0.0052	-3
-0.0008	-0.0068	0.0007	0.0052	-3
-0.0015	-0.0105	0	0.0045	-2.9
-0.003	-0.0181	0.0007	0.006	-2.9
-0.0075	-0.0181	-0.0008	0.006	-2.9
-0.006	-0.0173	-0.0015	0.0067	-2.9
-0.0053	-0.0181	-0.0008	0.0052	-2.9
-0.0053	-0.0165	0.0022	0.0037	-2.8
-0.0053	-0.0143	0.003	0.003	-2.8
-0.0046	-0.0105	0.0015	0.0022	-2.8
-0.0015	-0.0098	0.0015	0.003	-2.8
-0.0015	-0.0083	0.0007	0.0022	-2.8
0	-0.0046	0.0007	0.0037	-2.8
0.0015	-0.0015	0.0007	0.0045	-2.7
0.0007	-0.0008	-0.0015	0.0052	-2.7
0	0.0007	-0.0008	0.0045	-2.7
-0.0015	0.003	-0.0008	-0.0015	-2.7
-0.0023	0.0052	-0.0008	-0.0015	-2.7
-0.003	0.003	-0.0015	0.0015	-2.7
-0.0046	0.0015	-0.0008	0.0015	-2.7
-0.0023	0.0015	0.0015	0.0022	-2.7
-0.0015	0.003	0.003	0.003	-2.7
-0.003	0.0067	0.003	0.0067	-2.6
-0.003	0.0082	0.003	0.0127	-2.6
-0.0038	0.0052	0.0015	0.0097	-2.6
-0.003	0.0007	0.0022	0.0052	-2.6
-0.0046	-0.003	0.0022	0.009	-2.6
-0.0046	-0.0068	0.0015	0.0195	-2.6
-0.0015	-0.0098	0.0015	0.0232	-2.6
-0.003	-0.0113	0.0015	0.0195	-2.5
-0.003	-0.0128	0.0022	0.0127	-2.5
-0.0023	-0.0075	0.003	0.0082	-2.5
-0.003	0.0045	0.0015	0.0052	-2.5
-0.0023	0.012	-0.0008	0.0037	-2.5
0	0.006	-0.0015	0.0037	-2.5
0.0015	0.0015	0	0.003	-2.5
0.0015	-0.0008	0.0007	0.0015	-2.4
0.0015	-0.0008	0.0007	0.0007	-2.4
0.0015	0.0015	0.0007	0.0015	-2.4
0.003	0.0015	0.0007	0.003	-2.4
0.0052	0.003	-0.0008	0.003	-2.4
0.003	0.0007	-0.0015	0.0015	-2.3
0.0015	-0.0008	-0.0008	0	-2.3
0.0015	-0.0008	0	0	-2.3
0.0015	0.0015	0	-0.0008	-2.3
0.0022	0.0015	0.0007	-0.0008	-2.3
0.003	0.003	0.0007	-0.0008	-2.3
0.0015	0.0075	0	-0.0008	-2.2
0.0007	0.0112	-0.0008	-0.0023	-2.2
0.003	0.0105	0	-0.0023	-2.2
0.003	0.0082	-0.0008	-0.0015	-2.2
0.003	0.0082	-0.0015	-0.003	-2.2
0.0007	0.0052	0	-0.0046	-2.1
0.0007	0.0037	0.0007	-0.0046	-2.1
-0.0015	0.0015	0.0015	-0.006	-2.1
-0.003	0.0015	0.0007	-0.0038	-2.1
-0.0008	0.0007	0.0045	0.0007	-2
-0.0008	-0.0008	0.0052	0.0045	-2
-0.0015	0.0007	0.0045	0.0052	-2
-0.0015	0.003	0.0037	0.0015	-2
-0.003	0.0052	0.003	0.0015	-1.9
-0.0023	0.0022	0.0037	0.0015	-1.9
-0.0008	-0.0015	0.0022	0.0015	-1.9
-0.0023	-0.0008	0.0022	0.003	-1.9
-0.003	-0.0015	0.0007	0.003	-1.9
-0.0023	-0.0046	0.0015	0.0037	-1.8
-0.003	-0.0083	0.0022	0.003	-1.8
-0.0023	-0.0091	0.0015	0.0015	-1.8
-0.0015	-0.0105	0.0015	0.0007	-1.8
-0.0008	-0.0143	0.0015	0.0015	-1.8
-0.0008	-0.0218	0.0007	0.0015	-1.7
-0.0023	-0.0256	0.0015	0.0007	-1.7
-0.0008	-0.0233	0.0007	0.0007	-1.7
-0.0008	-0.0218	0.0007	0.0015	-1.7
-0.0008	-0.0165	0	0.0022	-1.7
-0.0015	-0.0173	-0.0015	0.003	-1.6
-0.003	-0.0173	0.0007	0.0015	-1.6
-0.0015	-0.012	0	0.0015	-1.6
-0.0008	-0.0091	-0.0015	0.0007	-1.5
-0.0008	-0.0068	0.0007	0.0015	-1.5
0	-0.003	0.0015	0.0007	-1.5
-0.0008	0.0022	0.0007	-0.0008	-1.5
0.0007	0.003	0.0015	-0.0008	-1.4
0.0015	0.003	0	0.003	-1.4
-0.0015	-0.0008	0	0.0045	-1.4
-0.0023	-0.0023	0.0007	0.003	-1.4
-0.003	-0.0008	0.0015	0.0045	-1.4
-0.0053	-0.0015	0.0015	0.0052	-1.4
-0.0053	0.0022	0.0015	0.006	-1.3
-0.0053	0.003	0.0007	0.0045	-1.3
-0.003	0.0045	0.0007	0.0007	-1.3
0	0.0022	0.0015	0.0007	-1.3
0.0037	0.003	0.0015	0	-1.2
0.0045	0.0082	-0.003	0.0015	-1.2
0.003	0.0112	-0.0023	0.0007	-1.2
0.0045	0.012	-0.0015	-0.0008	-1.2
0.0045	0.0075	-0.0015	-0.0008	-1.2
0.0037	0.0037	-0.0008	-0.0008	-1.1
0.0007	0.003	0.0007	-0.0008	-1.1
-0.0015	0.0007	-0.0008	0	-1.1
-0.0038	0	-0.0015	-0.0008	-1.1
-0.0053	0.0022	0	0	-1
-0.0053	-0.0015	0.0007	-0.0008	-1
-0.0046	-0.0008	0.0015	-0.0015	-1
-0.0046	0.0007	0.0015	0	-1
-0.003	0	0.0007	-0.0008	-1
-0.0008	0.0007	0.0015	0	-0.9
-0.0015	0.0007	0.0045	0.003	-0.9
-0.0015	0.006	0.0045	0.0067	-0.9
-0.0008	0.0045	0.003	0.006	-0.9
-0.0015	0.003	0.0022	0.0045	-0.9
0.0007	0.0045	0.003	0.0052	-0.9
0.0015	0.003	0.0015	0.006	-0.9
0.0015	0.003	0.0007	0.0082	-0.9
0.0022	0.0007	0.003	0.0097	-0.8
0	-0.0008	0.003	0.009	-0.8
-0.003	-0.0023	0.0015	0.0052	-0.8
-0.003	-0.0038	-0.0008	0.0022	-0.8
-0.0008	-0.0046	-0.0015	0.0007	-0.8
-0.0008	-0.006	-0.0008	-0.0023	-0.7
-0.0008	-0.0053	0.0007	-0.0015	-0.7
-0.0008	-0.0068	0.0015	-0.003	-0.7
-0.0008	-0.0083	0.0007	-0.0046	-0.7
-0.0008	-0.0075	-0.0008	-0.003	-0.7
0.0015	-0.006	0.0045	-0.003	-0.6
0.0067	-0.006	0.0067	-0.0023	-0.6
0.0075	-0.0091	0.003	-0.0015	-0.6
0.0052	-0.0053	0.0022	0.0007	-0.6
0.0015	-0.0046	0	0.0007	-0.6
0.0015	-0.003	-0.0008	-0.0015	-0.5
0.0037	-0.003	-0.0008	0.0015	-0.5
0.003	-0.0008	-0.0008	0.003	-0.5
0.003	0.0022	0.0007	0.0022	-0.5
0.0015	-0.0015	0.0015	0.003	-0.5
0.0007	-0.0015	0.003	0.0015	-0.5
0.0022	0.0015	0.0037	0.0007	-0.5
-0.0008	0.003	0.0045	-0.0023	-0.4
-0.0008	0.0022	0.0022	-0.003	-0.4
-0.0008	-0.0008	0.0015	-0.0015	-0.4
0.0007	-0.0015	0	-0.0008	-0.4
0.003	-0.0023	0	0.0007	-0.4
-0.0015	-0.003	0.0007	0.0037	-0.4
-0.0008	-0.0053	0.0007	0.0045	-0.4
0.0007	-0.0068	0.0007	0.003	-0.3
-0.0015	-0.0046	-0.0015	0.0067	-0.3
-0.0046	-0.0053	-0.0008	0.0067	-0.3
-0.0083	-0.0105	-0.0015	0.0045	-0.3
-0.0083	-0.0173	-0.0008	0.0022	-0.3
-0.0053	-0.0181	0	-0.0008	-0.3
-0.006	-0.0143	0.0015	-0.0015	-0.3
-0.0046	-0.0143	0	0.0045	-0.3
-0.0046	-0.0158	-0.0015	0.006	-0.3
-0.0038	-0.0165	-0.0008	0.0015	-0.2
-0.003	-0.0128	-0.0015	-0.0008	-0.2
-0.003	-0.0105	-0.0015	0	-0.2
0.0007	-0.0098	-0.003	0.0015	-0.2
0.0015	-0.0068	-0.0038	0.0015	-0.2
0.0015	-0.0023	-0.0023	0.0052	-0.2
0.0015	-0.0023	-0.0015	0.0075	-0.2
0.0007	-0.003	-0.0023	0.003	-0.2
0.0015	-0.0008	-0.0008	-0.0038	-0.2
0	0.0015	-0.0008	-0.0015	-0.2
0.0022	0.0075	-0.0008	0.0015	-0.1
0.0052	0.003	-0.0008	0.0007	-0.1
0.0015	-0.0053	-0.0015	-0.0023	-0.1
-0.0015	-0.0091	-0.0023	-0.0015	-0.1
-0.0046	-0.012	-0.0023	-0.0015	-0.1
-0.006	-0.0091	-0.0008	-0.0023	-0.1
-0.0053	-0.0046	0.0015	-0.0015	-0.1
-0.0046	-0.0015	0.0015	0.0007	-0.1
-0.0053	0.003	0.0015	0	-0.1
-0.0053	0.003	0.0015	-0.0015	-0.1
-0.0038	0.0045	0.0045	0.0007	-0.1
-0.0023	0.003	0.0052	0.0007	-0.1
-0.0008	0.0045	0.0052	-0.0008	-0.1
0.0015	0.0052	0.0052	0.0007	-0.1
-0.0015	0.0045	0.0037	0.0015	-0.1
-0.0023	0.0037	0.0045	0.0022	-0.1
-0.0015	0	0.003	-0.0008	-0.1
-0.0015	-0.0015	0.0037	0.0007	0
-0.0015	0	0.003	0.003	0
-0.0046	0.0015	0.003	0.0037	0
-0.0046	-0.0008	0.003	0.003	0
-0.003	-0.0015	0.003	0.003	0
-0.0038	-0.003	0.0037	0.003	0
-0.0023	-0.0046	0.0022	0.0015	0
0	-0.0023	0.003	0.0015	0
0.0015	-0.003	0.0015	0.003	0
-0.0023	-0.006	0.003	0.003	0
-0.003	-0.0046	0.0045	0.0052	0.1
-0.0015	-0.0015	0.0015	0.0075	0.1
-0.0038	-0.0008	0.003	0.0082	0.1
-0.0046	0	0.0015	0.0067	0.1
-0.003	-0.0015	0.0022	0.0052	0.1
-0.0008	-0.0008	0.0045	0.003	0.1
-0.0008	0.003	0.0045	0.0022	0.1
-0.0023	0.003	0.0052	0.0015	0.2
-0.0046	0.003	0.003	0.0015	0.2
-0.0046	0.0045	0.0015	0	0.2
-0.0038	0.009	0.0007	-0.0015	0.2
-0.003	0.0112	0.0015	-0.0008	0.2
-0.0008	0.0082	0.0037	0	0.3
0.0022	0.0075	0.0007	0.0007	0.3
0.0022	0.0075	-0.0015	0.0007	0.3
-0.003	0.0045	-0.0015	0	0.4
-0.0091	0.0052	-0.0008	0.0007	0.4
-0.0143	0.0082	-0.0008	0.0045	0.4
-0.0091	0.009	-0.003	0.0052	0.4
-0.0015	0.009	-0.0015	0.0045	0.4
0.0045	0.0135	-0.0008	0.0045	0.4
0.0127	0.0157	-0.0008	0	0.4
0.0172	0.0052	0.0015	-0.0015	0.5
0.0187	-0.0053	0.0015	-0.0008	0.5
0.0165	-0.0091	0.0015	-0.0008	0.5
0.0142	-0.0143	0.0015	-0.0008	0.6
0.0127	-0.024	0.0015	0.0007	0.6
0.009	-0.0315	0.0007	0	0.6
0.0015	-0.0338	-0.0008	-0.0008	0.6
-0.0046	-0.0368	-0.0008	-0.0015	0.7
-0.0083	-0.0353	-0.0023	-0.003	0.7
-0.0098	-0.0315	-0.0023	-0.003	0.7
-0.0068	-0.027	-0.0015	-0.003	0.7
-0.0053	-0.0181	-0.0008	-0.0008	0.8
-0.0015	-0.0128	-0.0015	0	0.8
-0.0015	-0.0098	0	-0.0008	0.8
-0.0008	-0.0105	0	-0.0008	0.8
0.0015	-0.0091	0.0007	-0.0008	0.9
0	-0.0038	0.0007	0	0.9
0.0007	0.0015	-0.0008	0.0007	0.9
0.0022	0.0052	0	0.0015	0.9
0.0007	0.006	-0.0015	0.0015	0.9
0.003	0.0067	-0.0015	0.0015	1
0.0015	0.0082	-0.0008	0.0037	1
0.0007	0.0105	0.0007	0.0045	1
0.003	0.0127	0.0015	0.0022	1
0	0.0195	0.003	0.0037	1.1
-0.0015	0.0232	0.0037	0.0037	1.1
-0.003	0.0142	0.003	0.0015	1.1
-0.0046	0.0045	0.0037	0	1.2
-0.0046	-0.0038	0.0037	-0.0008	1.2
-0.0053	-0.0098	0.0015	0	1.2
-0.003	-0.0113	0.003	-0.0008	1.3
-0.0008	-0.0143	0.006	-0.0023	1.3
-0.0008	-0.0105	0.0045	-0.0015	1.3
0.0007	-0.0038	0.003	-0.0015	1.3
0.0015	-0.0008	0.0015	-0.0008	1.4
0.0007	0.0015	-0.0008	0.0022	1.4
0.0007	0.0007	0.0007	0.003	1.5
-0.0023	0.0015	0.0015	0.003	1.5
-0.0075	0.0067	0.0037	0.0015	1.5
-0.0113	0.018	0.003	0.003	1.6
-0.0091	0.0217	0.003	0.003	1.6
-0.0015	0.0105	0.003	0.0007	1.6
0.0037	0.0015	0.0045	0.0015	1.7
0.0082	-0.0105	0.003	0.0022	1.7
0.006	-0.024	-0.0008	0.0022	1.7
-0.006	-0.0256	-0.003	0.003	1.8
-0.0128	-0.0105	-0.0038	0.0037	1.8
-0.0008	-0.0038	-0.0046	0.0045	1.8
0.006	-0.0053	-0.0046	0.0067	1.9
0.0105	0.0135	-0.0038	0.0075	1.9
0.0165	0.0202	-0.003	0.006	2
0.0157	0.0165	-0.003	0.006	2
0.0142	0.018	-0.0015	0.0045	2
0.0082	0.0105	0	0.0022	2.1
0.006	0.009	0.0007	0	2.1
0.003	0.0075	0	0	2.2
-0.006	0.0082	0	0.003	2.2
-0.0105	0.0052	0.0022	0.0045	2.2
-0.0165	0.0007	0.0037	0.0015	2.3
-0.0181	0.0007	0.0015	-0.003	2.3
-0.0181	-0.0015	0.0007	-0.003	2.4
-0.0143	-0.0023	0.0022	-0.0038	2.4
-0.012	-0.0008	0.0022	-0.003	2.4
-0.0113	0.0045	0.0015	-0.0038	2.5
-0.0046	0.0075	0.0007	-0.003	2.5
-0.003	0.0127	0.0007	-0.0046	2.6
-0.0038	0.0165	-0.0008	0.0045	2.6
-0.0023	0.0075	-0.003	0.0105	2.6
-0.003	-0.0015	-0.0015	0.006	2.7
-0.003	-0.006	-0.0008	0.0067	2.7
-0.0008	-0.0091	0.0007	0.006	2.8
0.0007	-0.0105	0.0007	0.006	2.9
0.003	-0.0083	-0.0008	0.006	2.9
0.0037	-0.0075	-0.0038	0.0037	3
0.0045	-0.0105	-0.003	-0.0008	3
0.0052	-0.0083	-0.0015	0.0007	3.1
0.0045	-0.0008	-0.0015	0.0007	3.1
0.0052	-0.0053	0.0007	0.0015	3.2
0.0045	-0.0158	0	0.0015	3.2
0.003	-0.0248	0.0015	0.0015	3.3
0.0015	-0.033	0.0015	0.0052	3.3
0.0007	-0.0308	0.0007	0.0067	3.4
0.0015	-0.0218	0.003	0.0067	3.4
0.0015	-0.0181	0.0007	0.0052	3.5
0	-0.0158	0.0015	0.0045	3.6
-0.0015	-0.0128	0.0007	0.006	3.6
-0.0023	-0.0128	0.0022	0.0022	3.6
-0.0015	-0.0075	0.0037	-0.0038	3.7
-0.0023	-0.0053	0.0007	-0.006	3.8
-0.003	-0.0075	0.0015	-0.0068	3.8
-0.003	-0.006	0.0015	-0.0128	3.9
-0.0023	-0.0068	0.0007	-0.0143	4
-0.0015	-0.0008	0.0007	-0.0068	4
-0.003	0.003	0.0015	0.0007	4.1
-0.0023	0.0082	0.003	0.012	4.2
-0.0015	0.0105	0.0037	0.0195	4.2
-0.003	0.009	0.0052	0.0082	4.3
-0.003	0.0105	0.0045	-0.0008	4.4
0.0007	0.0082	0.003	0.006	4.5
0	0.0037	0.0022	0.0142	4.5
-0.0015	0.0015	0.003	0.0217	4.6
-0.0015	-0.0008	0.003	0.012	4.7
-0.0038	-0.0091	0.0015	-0.0218	4.7
-0.0046	-0.012	0.0015	-0.0443	4.8
-0.0053	-0.0105	0.0022	-0.0375	4.9
-0.0038	-0.0098	0.0022	-0.0278	4.9
-0.0008	-0.0053	0.003	-0.0256	5
0.0022	-0.0091	0.003	-0.0083	5.1
0.0015	-0.0068	0.0015	0.0075	5.1
0.0007	0.0292	-0.0008	0.015	5.2
0.0015	0.0952	-0.0008	0.0225	5.3
0.0022	0.099	-0.0015	0.0315	5.3
0.0037	0.0307	-0.0008	0.057	5.4
0.0045	0.0112	0.0007	0.0765	5.5
0.0037	-0.006	-0.0015	0.0435	5.6
0.0015	-0.0443	-0.0023	-0.0188	5.7
0.003	-0.048	-0.0015	-0.0623	5.8
0.003	-0.0443	-0.0015	-0.0691	5.8
0.003	-0.0218	0	-0.042	5.9
0.003	-0.012	0.0007	-0.003	5.9
0.0007	-0.0083	0.0007	0.0292	6
0	0.0337	0.0015	0.0525	6.1
0.0007	0.066	0.003	0.0637	6.2
0.003	0.051	0.0045	0.066	6.3
0.003	0.0142	0.003	0.0562	6.3
-0.0008	-0.0165	0.003	0.0105	6.4
-0.0023	-0.0293	0.0022	-0.0315	6.5
-0.0015	-0.0315	0.0007	-0.0346	6.6
-0.003	-0.0346	0.0007	-0.0278	6.7
-0.0038	-0.0278	0.0015	-0.0225	6.7
-0.0038	-0.0256	0.0015	-0.0068	6.8
-0.0038	-0.0233	0.0015	0.003	6.9
-0.0038	-0.0195	0.0022	-0.0053	7
-0.003	-0.0128	0.0037	-0.0436	7.1
-0.003	-0.0023	0.0007	-0.0765	7.2
-0.003	0.015	-0.0008	-0.0878	7.2
-0.0015	0.018	0.0015	-0.1013	7.3
-0.0015	-0.0015	0.0007	-0.0691	7.4
-0.0015	-0.0091	0.0007	-0.0135	7.5
-0.003	-0.0143	0.0015	0.024	7.6
-0.0038	-0.0165	0.003	0.0382	7.7
-0.0008	-0.0128	0.0052	0.0412	7.8
0.0007	-0.0128	0.0045	0.0817	7.8
-0.0015	-0.0068	0.003	0.1192	7.9
-0.0038	0.0007	0.0037	0.1222	8
-0.0023	0.0037	0.0045	0.0945	8.1
-0.0015	-0.003	0.0052	0.0682	8.2
-0.0015	-0.012	0.003	0.039	8.3
-0.003	-0.0293	0.0022	0.009	8.4
-0.0046	-0.0458	0.003	0.0442	8.5
-0.0023	-0.0428	0.0022	0.0772	8.6
0.0007	-0.0278	0.0037	0.048	8.8
0.0007	-0.0188	0.0015	-0.0068	8.9
-0.0008	-0.012	0.003	-0.0203	9
-0.0008	-0.006	0.0015	-0.0405	9.1
0.0007	-0.003	0	-0.0683	9.2
0.0022	0.0315	0.0015	-0.0668	9.3
0.0022	0.0712	0	-0.0743	9.4
-0.0008	0.054	-0.0015	-0.0578	9.5
-0.003	-0.0105	-0.003	-0.0436	9.6
-0.0053	-0.0308	-0.0068	-0.0091	9.8
-0.006	-0.0075	-0.0091	0.0225	9.9
-0.003	-0.0053	-0.0083	0.0315	10
-0.0046	-0.0068	-0.0068	0.0555	10.1
-0.0053	-0.0256	-0.0068	0.054	10.2
-0.006	-0.0525	-0.0075	0.0337	10.3
-0.0075	-0.0218	-0.0075	0.0142	10.4
-0.006	0.0195	-0.0068	-0.012	10.6
-0.0053	0.018	-0.0015	-0.0368	10.7
-0.006	-0.0023	0	-0.03	10.9
-0.0083	0.003	-0.0015	-0.0443	11
-0.0046	0.0262	0.0015	-0.0691	11.2
-0.0015	0.072	0.0045	-0.0608	11.3
0.0015	0.1185	0.0067	-0.024	11.5
0.0052	0.075	0.009	-0.003	11.6
0.0075	0.0082	0.0067	-0.0008	11.7
0.006	-0.0075	0.0045	-0.0008	11.9
0.0045	-0.024	0.0045	0.018	12.1
0.003	-0.0338	0.0037	0.0622	12.2
0.0022	-0.0346	0.003	0.0457	12.3
0.0007	-0.0308	0.0015	-0.0143	12.5
-0.0008	-0.0091	0.0015	-0.0181	12.6
-0.0008	0.0172	0.0022	0.0015	12.8
0.0015	0.0255	0.0015	-0.0105	12.9
0.0015	-0.0053	0.0015	-0.0046	13
0.0007	-0.0143	0.0007	0.0067	13.2
-0.0008	-0.0158	0.0015	0.0195	13.4
-0.0015	-0.0195	0.0015	0.0367	13.5
-0.0008	-0.015	0.0007	0.0525	13.7
0.0007	-0.0188	0.0022	0.0405	13.9
0	-0.0128	0.003	-0.003	14.1
0	-0.0053	0.0037	-0.0143	14.3
-0.0015	0.018	0.003	-0.0128	14.4
-0.0008	0.0322	0.0037	-0.0181	14.6
0	0.0232	0.0045	-0.0188	14.8
-0.0008	0.0075	0.0037	-0.0188	15
0.0007	0	0.003	-0.015	15.2
-0.0008	-0.0046	0.0015	-0.0075	15.3
-0.0008	-0.0068	-0.0008	0.0037	15.5
0.0007	0.0007	0	0.0067	15.7
0.0007	0.0045	0.0022	0.0007	15.8
0.0015	0.009	0.0022	-0.0023	16
0.003	0.0157	0	-0.0015	16.2
0.0067	0.0165	0	-0.0046	16.4
0.0067	0.0082	-0.0008	-0.0068	16.6
0.0045	-0.0008	-0.0008	-0.0046	16.7
0.003	-0.0091	0.003	-0.0046	16.9
0.0037	-0.0143	0.0045	-0.0038	17.1
0.0007	-0.0128	0.003	-0.0068	17.3
-0.0008	-0.0143	0.0007	-0.0075	17.5
-0.0015	-0.0165	0.0007	-0.0053	17.7
-0.0023	-0.0195	0.0007	-0.012	17.9
-0.0015	-0.0173	0.0007	-0.0188	18
-0.0008	-0.0143	0.0015	-0.0188	18.2
-0.0015	-0.0165	-0.0008	-0.0128	18.4
-0.0023	-0.021	0.0015	-0.0046	18.6
-0.003	-0.0218	0.0022	-0.0075	18.8
-0.003	-0.0165	-0.0015	-0.0053	19
-0.003	-0.0128	-0.003	0.0015	19.2
-0.0038	-0.0188	-0.006	0.0045	19.4
-0.0038	-0.027	-0.0068	0.0075	19.6
-0.0046	-0.0256	-0.006	0.018	19.8
-0.0038	-0.0203	-0.0053	0.0375	19.9
-0.0046	-0.0188	-0.0046	0.039	20.1
-0.0068	-0.024	-0.0068	0.0217	20.3
-0.0053	-0.033	-0.0068	0.012	20.5
-0.0053	-0.0361	-0.0046	0.0112	20.7
-0.0023	-0.033	-0.0053	0.0052	20.9
-0.0015	-0.0285	-0.0038	0.0022	21.1
-0.0008	-0.0233	-0.003	0.0037	21.3
-0.0008	-0.012	-0.0015	0.0067	21.5
-0.0015	-0.006	0.0007	0.0105	21.7
0.0007	-0.0015	0	0.0105	21.9
0.0007	0.0015	-0.0015	0.0067	22.1
0	0.0037	-0.0023	0.0015	22.3
0	0.0045	-0.003	0.0015	22.5
-0.0008	0.003	-0.0008	0.0007	22.7
-0.0008	0.0037	-0.0023	-0.0008	22.9
-0.003	0.0052	-0.003	0	23.1
-0.003	0.012	-0.0015	-0.0023	23.3
-0.0053	0.0187	-0.003	0	23.5
-0.0038	0.0217	-0.0023	0.0022	23.8
-0.0008	0.027	-0.0023	-0.0015	23.9
0	0.0322	-0.0008	0.0015	24.2
0.0045	0.0345	0.0007	0	24.3
0.0067	0.0397	0.006	0	24.5
0.009	0.0487	0.0075	0.0015	24.7
0.0067	0.0487	0.0045	0.0015	25
0.0067	0.0405	0.0045	0.0052	25.2
0.009	0.0322	0.0052	0.0045	25.4
0.0067	0.0262	0.003	0.0015	25.6
0.0052	0.0165	0.0022	0.0007	25.8
0.0052	0.009	0.0022	-0.0008	26.1
0.0045	0.0022	0.0015	-0.0008	26.2
0.0045	-0.006	0.0022	0.0007	26.5
0.003	-0.0091	0.0037	0.0015	26.7
0.0015	-0.012	0.003	0.0007	26.9
0	-0.0135	0.0015	-0.0008	27.1
-0.0038	-0.0143	0.003	-0.0008	27.3
-0.0053	-0.0158	0.0045	-0.0015	27.5
-0.0083	-0.0143	0.0015	-0.0015	27.7
-0.0091	-0.0091	0.0007	-0.003	27.9
-0.0083	-0.0008	0.0007	-0.0015	28.2
-0.0068	0.006	0.0015	0.0045	28.4
-0.0046	0.009	0.003	0.0105	28.6
-0.003	0.0045	0.0045	0.012	28.8
-0.003	-0.0008	0.0022	0.0105	29
-0.0023	-0.0015	0.0022	0.0082	29.2
-0.0015	-0.0053	0.0015	0.0052	29.4
-0.0015	-0.0083	0.0015	0.0052	29.7
-0.0023	-0.0015	0.0022	0.003	29.9
-0.0023	-0.0008	0.0007	0.0015	30.1
-0.0008	-0.0038	0.0007	-0.0015	30.3
-0.0015	-0.0053	0	-0.0038	30.5
-0.003	-0.0068	-0.0008	-0.0053	30.7
-0.0015	-0.0091	0.0015	-0.0068	30.9
0	-0.012	0.0015	-0.0053	31.1
-0.0008	-0.012	0.0015	-0.0068	31.4
-0.0008	-0.0105	0.0022	-0.0046	31.5
-0.003	-0.0105	-0.0008	-0.0068	31.8
-0.0046	-0.012	-0.0015	-0.006	32
-0.0046	-0.0098	-0.0015	-0.006	32.2
-0.0053	-0.0075	-0.0046	-0.0068	32.4
-0.0046	-0.0046	-0.0046	-0.0038	32.6
-0.0046	0.0015	-0.0038	-0.0046	32.8
-0.003	0.0082	-0.003	-0.0015	33
0.0015	0.0067	-0.0015	0.0037	33.3
0.0045	-0.0038	-0.0015	0.0052	33.4
0.0052	-0.0098	-0.0015	0.0075	33.7
0.0052	-0.0128	-0.0008	0.0067	33.8
0.003	-0.0158	0.0015	0.0052	34.1
0.0007	-0.0165	0	0.006	34.3
0	-0.0188	0.0015	0.0067	34.5
-0.003	-0.0203	0.0037	0.0052	34.7
-0.003	-0.0225	0.0067	0.0067	34.9
-0.0008	-0.027	0.0075	0.0067	35.1
-0.0008	-0.0218	0.0082	0.006	35.3
-0.003	-0.0135	0.0097	0.006	35.5
-0.0008	-0.0083	0.0082	0.003	35.7
0	-0.0023	0.0052	0.0015	35.9
-0.0008	-0.0053	0.0067	0.0015	36.1
0.0007	-0.0075	0.0045	-0.0008	36.3
-0.0008	-0.0105	0.0045	-0.0008	36.5
-0.0015	-0.0128	0.0052	-0.0023	36.7
-0.0015	-0.0068	0.0052	0	36.9
-0.0015	-0.0015	0.0052	0.003	37.1
-0.003	0.003	0.0045	0.003	37.3
-0.003	0.0022	0.0045	0.0015	37.5
-0.0023	-0.0008	0.0045	0.0007	37.7
-0.003	-0.0008	0.0045	-0.0015	37.9
-0.0015	0.0082	0.0052	-0.003	38.1
-0.003	0.0232	0.0052	-0.0015	38.2
-0.0038	0.0255	0.0052	-0.0015	38.4
-0.0015	0.021	0.0037	0.0015	38.6
-0.0008	0.012	0.0015	0.003	38.8
0.0007	0.0022	-0.0015	0.0015	39
-0.0015	-0.0046	-0.003	-0.0015	39.2
-0.0023	-0.0068	-0.0008	-0.0023	39.4
-0.0008	-0.006	-0.0015	-0.0023	39.6
0.0007	-0.0068	0	-0.003	39.8
0.0007	-0.003	0.0022	-0.0008	40
0.0015	0.0007	0.0015	0.0007	40.2
0.0015	-0.003	0	0	40.4
0.0007	-0.0068	0.0007	-0.0015	40.5
0.0015	-0.0091	0.0015	-0.0046	40.7
0.0007	-0.012	0	-0.0038	40.9
0.0015	-0.0068	0	-0.0008	41.1
0.0022	0.003	-0.0015	-0.0008	41.3
0	0.0135	-0.0023	-0.003	41.5
-0.0015	0.0232	-0.0008	-0.0015	41.7
-0.0008	0.0262	-0.0008	0.0015	41.8
0.0007	0.0232	-0.0008	0	42
0.0015	0.024	-0.0015	0.0007	42.2
0.0015	0.0232	0.0007	0.003	42.4
0.0007	0.0165	0.0015	0.0067	42.6
0.0007	0.015	0.0015	0.0097	42.7
0.0007	0.0105	0.003	0.009	43
0.0007	0.0015	0.0007	0.0097	43.1
0.0007	-0.006	0.0007	0.009	43.3
0.003	-0.0158	0.0007	0.0052	43.5
0.003	-0.0263	0.0022	0.0045	43.7
0.0015	-0.0353	0.0022	0.003	43.9
-0.0015	-0.0405	0.0007	0.003	44.1
-0.0046	-0.0368	0.0007	-0.0008	44.2
-0.0038	-0.027	0	-0.0046	44.4
-0.0053	-0.0165	0.0007	-0.0091	44.6
-0.0083	-0.0023	0	-0.0143	44.8
-0.0083	0.0105	-0.0008	-0.0128	44.9
-0.0068	0.0225	-0.0008	-0.0105	45.1
-0.0053	0.0315	0.0007	-0.0075	45.2
-0.0046	0.0292	0.0015	-0.0053	45.4
-0.0046	0.0292	0.003	-0.0038	45.5
-0.0023	0.0262	0.0015	-0.0008	45.7
-0.0008	0.0195	0	0.0037	45.8
0.0007	0.012	0.0015	0.0052	46
0.0022	0.0007	0.0015	0.009	46.1
0.0015	-0.0128	0.0007	0.0135	46.3
0.0015	-0.0233	0.0015	0.0142	46.4
0.003	-0.0263	0.0007	0.0142	46.6
0.0045	-0.0293	0.0007	0.0127	46.8
0.0037	-0.027	0.0037	0.0067	46.9
0.0022	-0.0233	0.003	0.0045	47
0.003	-0.0181	0.0037	0.0022	47.2
-0.0008	-0.0128	0.0015	0	47.3
-0.0023	-0.0105	0	-0.0008	47.5
-0.0008	-0.0053	-0.0015	-0.003	47.6
-0.0038	-0.006	-0.003	-0.0046	47.8
-0.0068	-0.0053	-0.0046	-0.0053	47.9
-0.0053	-0.006	-0.0091	-0.0038	48
-0.0046	-0.0046	-0.0083	-0.0038	48.1
-0.0053	-0.0023	-0.0083	-0.0053	48.2
-0.0068	-0.006	-0.0075	-0.003	48.4
-0.0068	-0.0046	-0.0068	-0.0023	48.5
-0.0053	-0.0008	-0.006	0.0015	48.6
-0.0046	0.003	-0.0046	0.0007	48.7
-0.0023	0.0082	-0.0083	0	48.8
-0.0008	0.0172	-0.0075	0.0015	49
0.0022	0.0225	-0.0075	0.0037	49
0.0037	0.0195	-0.0053	0.0067	49.2
0.0007	0.015	-0.0053	0.006	49.3
0	0.0097	-0.0046	0.0052	49.4
0.0007	0.006	-0.0008	0.003	49.5
0.0037	0.0045	0.0007	0.003	49.6
0.0075	-0.0015	0.003	0.0037	49.7
0.0067	-0.0046	0.003	0.003	49.9
0.0052	-0.0046	0.0045	0.0052	49.9
0.0045	-0.0046	0.0067	0.0082	50.1
0.0045	-0.0083	0.006	0.0082	50.1
0.0037	-0.0158	0.0067	0.0052	50.2
0.0007	-0.0158	0.0052	0.0045	50.3
-0.0008	-0.0195	0.003	0.0052	50.3
-0.0015	-0.0195	0.0015	0.0045	50.4
-0.003	-0.0143	0.0015	0.003	50.4
-0.003	-0.0135	-0.0008	0.0007	50.5
-0.003	-0.0143	-0.0046	0.0015	50.5
-0.003	-0.012	-0.0083	0.0015	50.6
-0.003	-0.0083	-0.0091	0.003	50.7
-0.0023	-0.0068	-0.0098	0.0015	50.7
-0.0023	-0.0046	-0.0098	0.0015	50.8
-0.003	-0.006	-0.0098	0.0015	50.8
-0.0015	-0.0098	-0.012	0.003	50.9
-0.0015	-0.012	-0.0143	0.0067	51
-0.0008	-0.012	-0.0181	0.0067	51
0	-0.0046	-0.0203	0.0045	51.1
-0.0008	-0.0015	-0.0218	0.0045	51.1
-0.0015	-0.0023	-0.024	0.0037	51.2
-0.0023	-0.0015	-0.0323	0.0015	51.3
-0.0015	-0.003	-0.042	0.0007	51.3
-0.0008	-0.0023	-0.0503	0.003	51.3
-0.0015	0	-0.0593	0.003	51.3
0.0015	0.0007	-0.0653	0.003	51.3
0.003	0.0015	-0.0691	0.0037	51.3
0.003	0.0015	-0.0706	0.003	51.3
0.0022	-0.0008	-0.0735	0.0022	51.3
-0.0008	-0.0046	-0.0788	-0.0008	51.3
-0.0008	-0.0038	-0.081	-0.003	51.4
-0.0008	-0.0015	-0.0818	0.0007	51.4
-0.0015	0	-0.0803	0	51.4
-0.0008	0.0045	-0.084	0	51.4
-0.0023	0.0067	-0.0825	-0.0015	51.4
-0.0023	0.0052	-0.0825	-0.0023	51.4
-0.0008	0.0037	-0.0848	-0.0015	51.5
-0.0008	0.0037	-0.063	-0.0015	51.5
-0.003	0.0015	0.0052	-0.003	51.5
0	0.0007	0.1027	-0.0023	51.5
0.0037	0.0022	0.1852	-0.0015	51.5
0.0022	0.0015	0.2437	-0.0008	51.5
0.0015	0.0022	0.2745	-0.0015	51.5
0.0007	0.0007	0.2902	0	51.5
-0.0008	0	0.2947	0.0015	51.5
-0.0015	0.0037	0.2805	0.0007	51.4
-0.0023	0.009	0.2647	0.0015	51.4
-0.0015	0.009	0.2422	0.0022	51.4
-0.0023	0.0052	0.2175	0.003	51.3
-0.003	0.0045	0.1912	0.003	51.3
-0.003	0.0045	0.1635	0.0045	51.3
-0.0046	0.0037	0.1365	0.003	51.3
-0.0046	0.0052	0.1072	0.0052	51.2
-0.003	0.0067	0.084	0.0052	51.2
-0.003	0.0082	0.0592	0.0037	51.2
-0.003	0.0045	0.0367	0.0037	51.1
-0.003	0.0015	0.0157	0.003	51.1
-0.003	0.003	-0.0008	0.0045	51.1
-0.0015	0.0015	-0.0173	0.003	51
-0.0008	0.0015	-0.0308	0.003	51
-0.0008	0.0022	-0.0428	0.0022	51
-0.0015	0.0037	-0.057	0.0015	50.9
-0.003	0.0067	-0.0638	0.0007	50.8
-0.0038	0.0052	-0.0698	0.0007	50.8
-0.0053	0.003	-0.0765	-0.0023	50.7
-0.0046	0.0007	-0.0833	-0.0008	50.6
-0.0008	0	-0.0878	0.0007	50.5
-0.0008	-0.0008	-0.0923	0.0022	50.4
-0.0008	-0.0008	-0.0938	0.0052	50.3
0	-0.0008	-0.0915	0.003	50.2
0	-0.003	-0.0871	0.0015	50.1
0.0007	-0.0075	-0.0856	0.0045	50
0.0015	-0.012	-0.0803	0.0052	49.9
0.0015	-0.015	-0.075	0.0045	49.8
0.0022	-0.0165	-0.0728	0.0022	49.7
0.0007	-0.0158	-0.0675	0.0015	49.6
0.0015	-0.0105	-0.0638	0.0007	49.5
0.0015	-0.0128	-0.06	-0.0023	49.5
-0.0008	-0.0195	-0.0563	-0.003	49.4
-0.0008	-0.0195	-0.0518	-0.003	49.3
-0.0023	-0.0256	-0.0458	-0.0023	49.2
-0.0046	-0.0315	-0.0405	-0.0023	49
-0.0046	-0.0315	-0.0368	-0.003	49
-0.0046	-0.0323	-0.0375	-0.0038	48.9
-0.0046	-0.03	-0.033	-0.003	48.7
-0.003	-0.024	-0.0293	-0.0038	48.6
-0.003	-0.0158	-0.0285	-0.0053	48.5
-0.0046	-0.0075	-0.0233	-0.003	48.4
-0.0053	-0.0008	-0.0203	-0.003	48.3
-0.0046	0.0067	-0.0173	-0.003	48.2
-0.0046	0.009	-0.012	-0.0015	48.1
-0.003	0.0082	-0.0105	-0.0015	47.9
0.0007	0.003	-0.0105	0	47.8
0.003	-0.0008	-0.0098	0.003	47.7
0.0045	0.003	-0.0113	0.0045	47.6
0.0052	0.009	-0.0105	0.0052	47.5
0.0045	0.0127	-0.0091	0.0052	47.4
0.0052	0.0112	-0.0068	0.0052	47.2
0.0045	0.0127	-0.0068	0.0052	47.2
0.0052	0.0142	-0.0075	0.006	47
0.0045	0.012	-0.0053	0.006	46.9
0.0022	0.003	-0.003	0.0045	46.8
0.0045	-0.0023	-0.003	0.0052	46.7
0.0015	-0.0046	-0.0023	0.0052	46.5
0.0015	-0.0083	-0.0038	0.0045	46.4
0.0015	-0.0083	-0.0046	0.0052	46.3
-0.0015	-0.0113	-0.0015	0.0052	46.1
-0.003	-0.0128	0.0015	0.0022	45.9
-0.0053	-0.0165	0.0022	0.0022	45.8
-0.0075	-0.0195	0.0015	0.0015	45.7
-0.0068	-0.012	0.0007	-0.0008	45.5
-0.0053	-0.003	0.0007	0	45.4
-0.0053	0.0007	0.0007	0.0007	45.3
-0.0068	0.003	0.0007	-0.0008	45.1
-0.0083	0.0015	-0.0008	-0.0038	45
-0.0083	0.0015	-0.0015	-0.0046	44.9
-0.0068	0.006	-0.0008	-0.0046	44.7
-0.0046	0.009	0	-0.0053	44.5
-0.0038	0.0105	0.0007	-0.0015	44.4
-0.0015	0.009	0.0015	-0.0015	44.3
-0.0015	0.0105	0.0022	0.0015	44.1
-0.0015	0.0127	0.0045	0.0015	44
-0.0008	0.0135	0.0052	0.0007	43.8
0.0007	0.0135	0.006	0.0022	43.6
0.0022	0.015	0.0082	0.003	43.5
0.0022	0.0157	0.009	0.0037	43.3
0.003	0.0165	0.0105	0.003	43.1
0.003	0.0172	0.0097	0.0045	43
0.003	0.0172	0.0097	0.0045	42.8
0.003	0.015	0.009	0.0045	42.7
0.0015	0.0112	0.0075	0.006	42.5
0.0022	0.006	0.0082	0.0052	42.3
0.0022	-0.0015	0.0052	0.0045	42.2
0.0022	-0.0046	0.0045	0.0067	42
0.0015	-0.0068	0.0052	0.0067	41.8
-0.0008	-0.006	0.0045	0.0037	41.6
-0.0008	-0.0038	0.0007	0.0037	41.5
-0.0008	-0.0046	0.0015	0.0052	41.3
-0.0008	-0.0046	0.0007	0.0067	41.1
0	-0.0053	0.0015	0.0052	41
0.0007	-0.0046	0.0037	0.003	40.8
0	-0.003	0.003	0.0045	40.6
0	-0.0023	0.0022	0.0045	40.5
0.0007	-0.0008	0.0015	0.0052	40.3
0.0007	0.0007	0.0007	0.003	40.1
0.0007	0.0022	0.0015	0.0015	39.9
-0.0008	0.0052	-0.0008	0.0015	39.7
-0.003	0.0052	-0.0008	0	39.6
-0.0015	0.0045	-0.0008	0.0007	39.4
-0.0008	0.006	0	0.0007	39.2
-0.0015	0.0082	0.0022	0	39
-0.0015	0.0082	0.0015	0.0007	38.8
-0.0008	0.0105	0.0022	0.0007	38.7
0.0007	0.0075	0.0045	0.0007	38.5
-0.0008	-0.0053	0.0052	-0.0008	38.3
-0.0015	-0.0173	0.0067	-0.0008	38.2
-0.003	-0.0233	0.0067	0	38
-0.003	-0.024	0.009	0.0015	37.8
-0.0015	-0.0233	0.009	0	37.6
-0.003	-0.0256	0.009	0.0015	37.4
-0.0038	-0.027	0.0112	0.003	37.3
-0.0038	-0.0233	0.0097	0.0015	37
-0.0038	-0.0195	0.0097	0.0007	36.9
-0.0046	-0.0173	0.009	0.0015	36.7
-0.0053	-0.0181	0.0082	0.0007	36.5
-0.0038	-0.0195	0.0082	0.0007	36.3
-0.0046	-0.0188	0.006	0.0015	36.1
-0.0046	-0.0173	0.0015	0.0007	35.9
-0.0008	-0.012	0.0007	-0.0008	35.7
0.0022	-0.0083	0.0015	-0.0015	35.5
0.0022	-0.006	0.0015	-0.0008	35.3
0.0007	-0.0053	0.0015	-0.0008	35.1
0.0007	-0.0015	0.0007	-0.0008	35
0	0.003	0.0007	0.0015	34.7
0.0007	0.0007	0.0007	0.0007	34.6
-0.0008	-0.0008	0.0007	0	34.4
-0.0008	0.0015	0	0.0007	34.1
0.0007	0.0067	0.0015	0.0007	34
-0.0008	0.0082	0.0022	-0.0008	33.8
0	0.0045	0.0015	0.0015	33.6
0.0015	0.003	0.0037	0.0015	33.4
0	0.0045	0.0037	0.003	33.2
-0.0015	0.0037	0.0037	0.0037	33
-0.0023	0.003	0.0022	0.003	32.8
-0.0008	0.0037	0.0007	0.0022	32.6
-0.0008	0.0052	0.0007	0.0007	32.4
0	0.0052	0.0022	0.003	32.2
0.0007	0.0045	0.0015	0.003	32
0	0.0045	0.0015	0.0015	31.9
-0.0008	0.0007	0.0022	0.0007	31.6
-0.0008	0.0007	0.003	0.0015	31.5
-0.0008	0.0022	0.003	0.0022	31.2
-0.0008	0	0.0037	0.0015	31
-0.0015	-0.0008	0.003	0.0022	30.9
-0.0008	0.003	0.0037	0.003	30.6
-0.0008	0.006	0.0052	0.003	30.5
-0.0008	0.0097	0.0037	0.0052	30.3
-0.003	0.0105	0.0037	0.006	30.1
-0.003	0.0052	0.0052	0.0045	29.9
-0.003	0.0022	0.0052	0.0037	29.7
-0.0008	-0.0008	0.0015	0.0037	29.5
-0.0008	-0.006	0.0015	0.0037	29.2
-0.0015	-0.0098	0.003	0.0045	29.1
-0.003	-0.0098	0.0022	0.0045	28.9
-0.003	-0.0098	0.0022	0.003	28.7
-0.0015	-0.0113	0.003	0.0015	28.5
-0.003	-0.0105	-0.0008	0.0022	28.3
-0.0023	-0.0091	-0.0008	0.0022	28.1
-0.0023	-0.0083	0	0.0022	27.9
-0.003	-0.006	-0.0015	0.0022	27.7
-0.0008	-0.0038	-0.0008	0.003	27.5
-0.003	-0.0015	-0.0008	0.0022	27.3
-0.0008	0.0007	-0.0015	0.0007	27.1
0.0045	0.0007	-0.0023	0.0015	26.9
0.0075	-0.0008	-0.0038	0	26.7
0.0067	0.0007	-0.0015	-0.0015	26.5
0.0045	0	0	-0.0015	26.3
0.0007	-0.0015	-0.0008	-0.0008	26.1
-0.0015	-0.0008	-0.0015	0	25.9
-0.0008	0	-0.0038	0	25.7
-0.0015	0.0007	-0.0015	-0.0008	25.5
0	0.0015	0.0007	0	25.2
0.0015	0.003	0.0015	-0.0008	25.1
0.0007	0.0007	0.003	0	24.9
-0.0008	-0.003	0.0022	-0.0008	24.7
-0.0015	-0.0046	0.003	-0.0015	24.5
-0.0038	-0.0053	0.003	-0.0008	24.3
-0.0091	-0.0083	0.003	-0.0008	24.1
-0.0128	-0.0165	0.0007	-0.0008	23.9
-0.0091	-0.027	0.0015	-0.0008	23.7
-0.0046	-0.0263	0.0015	0	23.5
-0.0015	-0.024	0.0015	0.0015	23.3
0.0045	-0.0218	0.0007	0	23.1
0.009	-0.0165	-0.0008	0.0015	22.9
0.0142	-0.0113	0.0015	0.0007	22.7
0.0142	-0.0091	0.0022	0	22.5
0.0112	-0.0113	0.0007	0.0007	22.3
0.009	-0.0128	0.0007	0.0015	22.1
0.0075	-0.0143	0.0007	0.0045	21.9
0.0045	-0.0083	0.0015	0.003	21.7
-0.0008	-0.0008	0.0007	0.0037	21.5
-0.0053	0.0015	-0.0008	0.003	21.3
-0.0105	0.0045	0.0007	0.0015	21.1
-0.012	0.0015	0	0.0045	20.9
-0.012	-0.0046	0	0.003	20.7
-0.0091	-0.003	-0.0008	0.0015	20.5
-0.0053	0	-0.0008	0.0022	20.3
-0.0046	-0.0015	-0.0008	0.003	20.1
-0.0038	0.0045	-0.0008	0.003	19.8
-0.003	0.0082	-0.0008	0.0022	19.7
-0.0008	0.009	-0.0015	0.0007	19.4
0	0.009	-0.0015	0.0015	19.2
0.0007	0.0067	-0.0015	0.0015	19
-0.0015	0.0045	-0.0015	0.0007	18.8
-0.0046	0.003	0.0007	0	18.6
-0.003	0.0067	0	-0.0015	18.4
-0.0023	0.0067	0.0007	-0.0015	18.2
-0.0015	0.0052	0	-0.0015	18
-0.0023	0.0045	0.0007	-0.0008	17.8
-0.0046	0.0022	0.0015	-0.0008	17.5
-0.0038	0.0007	0.0007	-0.0008	17.4
-0.0023	0.0015	0.0007	-0.0008	17.1
-0.0008	0.0045	0	-0.0008	17
0	0.0052	0	-0.0008	16.7
0.0007	0.006	-0.0008	-0.0015	16.6
0.0015	0.0045	0	-0.0015	16.3
0.003	0.0052	0.0022	0.0007	16.2
0.003	0.006	0.003	-0.0008	15.9
0.0007	0.0052	0.0022	-0.0015	15.7
-0.0008	0.0015	0.0022	-0.0023	15.5
0.0022	0.0007	0.0015	0.0015	15.3
0.0022	0.0022	0.0022	0.0052	15.1
0.0007	0.003	0.003	0.0052	14.9
0.0007	0.003	0.0045	0.006	14.8
0.0015	0.0067	0.0052	0.0067	14.5
0.0007	0.0082	0.0022	0.006	14.4
-0.0015	0.0105	0.0015	0.0052	14.1
-0.0015	0.0105	0.003	0.0045	13.9
-0.0008	0.009	0.0015	0.0045	13.7
0.0007	0.0082	0	0.003	13.5
0.0007	0.0045	0.0007	0.0037	13.3
-0.0008	0.0015	0.0015	0.0037	13.1
0.0015	0.0007	0.0015	0.0045	13
0.0037	-0.0008	0.0007	0.0037	12.8
0.003	-0.0023	0	0.0007	12.6
0	-0.0038	-0.0008	-0.0023	12.4
-0.0015	-0.0038	-0.0023	-0.0015	12.2
0.0007	-0.0053	-0.003	-0.0015	12
0.003	-0.0091	-0.003	-0.0023	11.8
0.0007	-0.0098	-0.0023	-0.003	11.7
-0.003	-0.0075	-0.0008	-0.003	11.5
-0.0023	-0.0038	0.0015	-0.003	11.2
-0.0015	-0.003	0	-0.0015	11.1
-0.0038	-0.0068	-0.0008	-0.0008	10.9
-0.0023	-0.0068	0	-0.0015	10.7
-0.0015	-0.0083	-0.0008	-0.0023	10.5
-0.0023	-0.006	-0.003	-0.0015	10.3
-0.003	-0.0046	-0.003	-0.0008	10.2
-0.0023	-0.0046	-0.0008	0.0007	9.9
-0.003	0.0007	0.0007	0.0045	9.8
-0.0015	0	0.0015	0.0067	9.6
-0.0015	-0.0068	0.0015	0.0082	9.4
-0.0015	-0.0158	0.0015	0.0075	9.2
-0.0008	-0.0218	0.003	0.0075	9.1
-0.0008	-0.0203	0.0015	0.0075	8.9
-0.0008	-0.0195	0.0015	0.006	8.8
0.0007	-0.0165	0.0015	0.0045	8.6
-0.0008	-0.0135	0.0007	0.0045	8.4
-0.0015	-0.015	-0.0008	0.0052	8.3
-0.0015	-0.0158	-0.0015	0.0022	8.1
-0.0015	-0.0143	0.0007	0	8
-0.0015	-0.0143	0.0007	0	7.8
-0.003	-0.012	0.0007	0.0015	7.6
-0.0046	-0.0083	0.0007	0.003	7.5
-0.003	-0.0053	-0.0008	0.0015	7.3
-0.003	-0.0038	0.0007	0.0015	7.2
-0.003	-0.003	0.0007	0.0015	7
-0.0038	-0.0038	0.003	0.003	6.8
-0.0075	-0.003	0.003	0.003	6.7
-0.0105	-0.0008	0.0037	0.0015	6.5
-0.0105	0	0.0022	-0.0008	6.3
-0.0075	-0.0023	0.003	-0.0023	6.1
-0.0053	-0.0015	0.006	-0.0023	6
-0.0008	0.0007	0.0045	-0.003	5.9
0.0067	0.003	0.003	-0.0015	5.8
0.0105	0.0052	0.0022	0.0007	5.7
0.0142	0.009	0.0037	0.0015	5.5
0.0202	0.0135	0.0075	0.003	5.4
0.0195	0.0165	0.0082	0.0037	5.3
0.0127	0.0172	0.0052	0.0022	5.1
0.0082	0.0142	0.0045	0.0045	5
0.0022	0.0105	0.0052	0.0067	4.9
-0.003	0.0082	0.009	0.006	4.8
-0.0083	0.0045	0.0075	0.0052	4.6
-0.0105	0.0015	0.0052	0.0022	4.5
-0.0105	-0.0015	0.0052	0.0015	4.4
-0.0083	-0.0015	0.0052	0.003	4.2
-0.0053	-0.0023	0.0067	0.0022	4.1
-0.0046	-0.0053	0.0045	-0.0008	4
-0.0046	-0.0046	0.0022	-0.006	3.9
-0.0046	-0.0046	0.0007	-0.006	3.7
-0.003	-0.0023	0.0007	-0.0038	3.6
-0.0023	0.003	0.0007	-0.0046	3.5
-0.003	0.003	-0.0008	-0.006	3.4
-0.003	-0.0023	-0.0015	-0.0068	3.2
-0.0023	-0.0046	-0.0015	-0.0053	3.1
-0.0015	-0.0008	0	-0.0053	3
-0.003	-0.003	-0.0008	-0.0008	2.9
-0.0038	-0.0015	-0.0015	0.0037	2.8
-0.0015	0	0	0.0022	2.6
-0.0008	-0.003	-0.0008	0.006	2.6
-0.0023	-0.0068	0.0007	0.0097	2.4
0.0015	-0.0098	0.003	0.0015	2.3
0.003	-0.0113	0.003	-0.0128	2.2
0.003	-0.0105	0.0052	-0.0195	2.1
0.0045	-0.0053	0.0052	-0.015	2
0.0045	-0.0023	0.0045	-0.012	1.8
0.003	-0.003	0.0015	-0.0075	1.7
0.0015	-0.0068	-0.0015	-0.003	1.6
0.0037	-0.0105	-0.003	0.0052	1.5
0.003	-0.006	-0.0046	0.0172	1.4
-0.0008	0.0127	-0.0046	0.03	1.2
-0.0008	0.0502	-0.0046	0.0502	1.2
-0.0023	0.0637	-0.0046	0.0727	1.1
-0.003	0.0495	-0.0038	0.0562	1
-0.0015	0.0345	-0.0046	0.0195	1
-0.003	0.0202	-0.003	0.006	0.9
-0.0053	0.027	-0.0046	0.0045	0.8
-0.0038	0.0315	-0.0046	0.0007	0.8
-0.003	0.015	-0.0008	-0.0068	0.7
-0.0008	0.003	0.003	-0.0091	0.6
0.0007	0.0015	0.0015	-0.0083	0.5
-0.0015	-0.0046	0	-0.0143	0.4
-0.0038	-0.024	-0.0015	-0.0225	0.4
-0.0046	-0.0511	-0.003	-0.0413	0.3
-0.0068	-0.063	-0.0023	-0.057	0.3
-0.006	-0.063	-0.003	-0.057	0.2
-0.0038	-0.0668	-0.003	-0.0563	0.1
-0.0008	-0.0653	-0.0023	-0.048	0
0.003	-0.057	-0.0015	-0.0278	0
0.0007	-0.0511	-0.0046	0.0007	-0.1
-0.0008	-0.0525	-0.0053	0.0352	-0.2
-0.0008	-0.0495	-0.0046	0.072	-0.2
-0.0008	-0.0436	-0.006	0.0915	-0.2
0.0015	-0.039	-0.0046	0.0937	-0.2
0	-0.0218	-0.0038	0.0877	-0.3
-0.0008	-0.0091	-0.003	0.0682	-0.3
0.0037	-0.0023	0	0.0457	-0.3
0.0052	0.0292	0.003	-0.0008	-0.3
0.0052	0.0345	0.0052	-0.0608	-0.3
0.0045	0.0052	0.006	-0.0825	-0.4
0.0045	-0.0091	0.003	-0.0856	-0.4
0.003	-0.0203	0.003	-0.0765	-0.4
0.0045	-0.0143	0.0045	-0.0691	-0.4
0.0052	0.009	0.0045	-0.0608	-0.4
0.003	0.0292	0.003	-0.0308	-0.5
0.0015	0.0532	0.0037	-0.0015	-0.5
0.0007	0.0675	0.0052	0.0217	-0.5
0.0007	0.057	0.0052	0.0532	-0.5
0.0015	0.0427	0.0067	0.09	-0.5
0.003	0.0555	0.0082	0.0982	-0.5
0.0015	0.0532	0.0075	0.0615	-0.6
-0.0008	0.0105	0.0052	0.0337	-0.6
0	-0.006	0.003	0.0382	-0.6
-0.003	-0.012	-0.0015	0.0277	-0.6
-0.0046	-0.0225	-0.0023	0.0067	-0.5
-0.0053	-0.021	-0.0015	-0.0218	-0.5
-0.0075	-0.024	0	-0.0248	-0.5
-0.006	-0.0135	0.0015	0	-0.5
-0.003	-0.0053	0.0045	0.0202	-0.5
0.0007	-0.0083	0.0052	0.0345	-0.5
0.0015	-0.0105	0.0045	0.0217	-0.5
-0.0015	-0.0113	0.0022	0.0007	-0.5
-0.003	-0.0113	-0.0015	-0.0256	-0.5
-0.0046	-0.0293	-0.0008	-0.039	-0.5
-0.0023	-0.0361	0	-0.0443	-0.5
-0.0015	-0.0308	0.0015	-0.0473	-0.5
-0.003	-0.0233	0.0022	-0.0503	-0.5
-0.003	-0.0083	0.003	-0.0533	-0.5
-0.0038	-0.0068	0.0045	-0.0495	-0.5
-0.003	-0.0083	0.003	-0.0428	-0.5
-0.0015	-0.0015	0	-0.0353	-0.5
-0.003	0.0157	-0.0015	-0.024	-0.4
-0.0038	0.0442	-0.0015	0.0007	-0.4
-0.0015	0.0645	-0.0015	0.0322	-0.4
-0.0008	0.048	0	0.0615	-0.3
-0.0015	0.0277	0.0015	0.078	-0.3
0.0015	0.0052	-0.0008	0.0615	-0.3
0.0037	-0.0128	-0.0015	0.0352	-0.2
0.0022	-0.0165	0	0.0367	-0.2
0.0007	-0.0256	-0.0008	0.039	-0.2
-0.0015	-0.0105	-0.0038	0.0337	-0.1
-0.0015	-0.0015	-0.0046	0.0097	-0.1
-0.0023	0.0142	-0.0053	-0.0293	-0.1
-0.003	0.0487	-0.0075	-0.0353	-0.1
-0.0053	0.0382	-0.0075	-0.0338	0
-0.0046	0.0045	-0.0083	-0.0225	0
-0.0038	-0.0015	-0.006	0.0045	0
-0.0038	-0.0015	-0.0015	0.0187	0
-0.0008	-0.0015	0.0045	0.0082	0.1
-0.0008	-0.003	0.0045	-0.0075	0.1
-0.0053	-0.003	0	-0.0091	0.1
-0.0053	-0.0015	-0.0015	-0.021	0.2
-0.0046	0.0007	-0.0015	-0.0293	0.2
-0.0053	0.0232	-0.0015	-0.0181	0.3
-0.0053	0.042	-0.0023	-0.006	0.4
-0.003	0.0157	-0.0015	-0.003	0.4
-0.0015	-0.0225	0.0045	0.0045	0.4
-0.0023	-0.0353	0.0052	0.0142	0.5
-0.003	-0.042	0.003	0.0255	0.5
-0.0008	-0.0405	0.0015	0.03	0.6
0.0007	-0.0353	-0.0008	0.0307	0.7
0	-0.0383	0.0015	0.033	0.7
0.0022	-0.0405	0.0045	0.0225	0.8
0.006	-0.0383	0.009	-0.0038	0.8
0.009	-0.0285	0.012	-0.0248	0.9
0.0052	-0.0278	0.0105	-0.0278	0.9
0.0037	-0.033	0.0112	-0.0315	0.9
0.003	-0.033	0.0105	-0.0293	1
0.0007	-0.0308	0.0067	-0.0181	1.1
-0.003	-0.0256	0.009	0.0082	1.1
-0.003	-0.0158	0.0097	0.0255	1.2
-0.0008	-0.0015	0.0075	0.012	1.2
-0.0038	0.0045	0.006	0.0007	1.2
-0.0015	0.0045	0.0052	0.0052	1.3
0	0.0007	0.006	0.0052	1.3
0.0007	-0.0068	0.0037	-0.0105	1.3
0.0015	-0.0023	0.0045	-0.012	1.3
0.003	0.0007	0.0082	-0.0091	1.3
0.003	0.006	0.0105	0.003	1.3
0.003	0.0082	0.0142	0.0165	1.4
0.0037	0.0045	0.012	0.0015	1.4
0.0007	0.003	0.006	-0.0128	1.4
-0.0008	0.003	0.003	-0.0053	1.5
-0.0015	0.003	0.0045	0.009	1.5
-0.0023	0.0022	0.0075	0.0157	1.5
0.0045	0.0097	0.0105	0.0315	1.5
0.0082	0.0142	0.0112	0.0345	1.6
0.0045	0.0142	0.015	0.0322	1.6
0.003	0.0105	0.0375	0.0195	1.6
0.0007	0.003	0.0615	-0.0038	1.6
-0.0053	0.033	0.057	-0.0158	1.7
-0.0143	0.081	0.0405	-0.0218	1.7
-0.0165	0.0667	0.0232	-0.0105	1.6
-0.0143	0.0247	-0.0015	-0.0038	1.5
-0.015	0.0142	-0.0158	0.0022	1.4
-0.0128	0.0007	-0.0225	0.0195	1.4
-0.0083	-0.0038	-0.0203	0.0187	1.3
-0.0038	-0.0113	-0.024	-0.0098	1.3
-0.0008	-0.0203	-0.0361	-0.0346	1.2
0.0135	-0.0143	-0.0368	-0.0405	1.1
0.0217	-0.027	-0.0218	-0.0413	1
0.0142	-0.0353	-0.0105	-0.021	1
0.018	-0.0181	-0.0105	-0.0098	0.9
0.018	0.0007	-0.0046	0.0187	0.9
0.0075	0.0075	0.0015	0.048	0.8
0.006	0.012	0.0045	0.009	0.7
0.0007	0.009	0.0067	-0.0285	0.7
-0.0068	0.0015	0.0082	-0.0278	0.6
-0.0135	-0.0053	0.0105	-0.0195	0.5
-0.0181	-0.012	0.0075	-0.0068	0.4
-0.0135	-0.0158	0.0052	-0.006	0.4
-0.012	-0.0203	-0.0008	-0.0128	0.3
-0.0113	-0.015	-0.0068	-0.0008	0.1
-0.0098	-0.0113	-0.0091	0.0105	0
-0.0091	-0.0128	-0.012	0.0292	-0.1
-0.0053	-0.0113	-0.0113	0.0397	-0.3
-0.0015	-0.0105	-0.0105	-0.0135	-0.5
-0.0008	0.0142	-0.012	-0.0555	-0.6
-0.003	0.0495	-0.0135	-0.03	-0.7
-0.003	0.0502	-0.0143	0.0007	-0.9
-0.0008	0.0345	-0.0181	0.0277	-1
-0.0015	0.0322	-0.0218	0.0517	-1.1
-0.0015	0.0315	-0.0203	0.0562	-1.3
-0.0046	0.0172	-0.0218	0.0487	-1.4
-0.0068	-0.0091	-0.021	0.0292	-1.5
-0.0046	-0.0098	-0.0195	0.0427	-1.7
-0.0008	0.0082	-0.0165	0.06	-1.8
-0.0008	-0.0038	-0.0113	0.0577	-2
-0.0008	-0.0458	-0.0091	0.0577	-2.1
0.0015	-0.0706	-0.0068	0.0292	-2.3
0.0045	-0.0615	-0.0046	0.0082	-2.4
0.0045	-0.0585	-0.0015	0.036	-2.4
0.0045	-0.0428	0.0015	0.0495	-2.4
0.0037	0.009	0.003	0.0142	-2.4
0.003	0.0592	0.0045	-0.0233	-2.4
0.0052	0.027	0.0075	-0.0323	-2.4
0.0045	-0.0143	0.0082	-0.0315	-2.4
0.0015	-0.0128	0.0052	-0.021	-2.4
-0.0008	-0.0346	0.0015	-0.024	-2.4
-0.0038	-0.0346	-0.003	-0.0368	-2.4
-0.0015	-0.0315	-0.0098	-0.0285	-2.4
-0.0038	-0.0308	-0.0143	-0.0346	-2.4
-0.006	-0.0233	-0.021	-0.0428	-2.4
-0.0053	-0.027	-0.0293	-0.0353	-2.4
-0.0046	-0.0188	-0.0368	-0.0308	-2.4
-0.0015	-0.0181	-0.048	-0.024	-2.4
-0.0015	-0.0158	-0.057	-0.0263	-2.4
-0.0008	-0.0143	-0.0608	-0.0285	-2.4
0	-0.0158	-0.0638	-0.0248	-2.4
-0.0008	-0.0128	-0.0675	-0.0195	-2.4
-0.0015	-0.0091	-0.0645	-0.0113	-2.4
-0.0015	-0.0038	-0.063	-0.0023	-2.4
0.0007	0.0007	-0.0518	0.0082	-2.4
0.0015	0.0045	-0.0315	0.012	-2.4
0.0007	0.0067	-0.027	0.0097	-2.4
0	0.0075	-0.0195	0.0045	-2.4
0.0007	0.0082	0.003	-0.003	-2.4
-0.0008	0.0135	0.0345	-0.0068	-2.4
-0.0015	0.0142	0.057	-0.0105	-2.4
-0.0015	0.0142	0.0667	-0.0091	-2.4
-0.0023	0.015	0.078	-0.0015	-2.4
-0.003	0.015	0.0892	0.0082	-2.4
-0.003	0.018	0.1117	0.018	-2.4
-0.003	0.018	0.123	0.0315	-2.4
-0.0015	0.0172	0.1185	0.0405	-2.4
0.0007	0.0172	0.12	0.0345	-2.4
0.003	0.0187	0.1207	0.0135	-2.4
0.0015	0.0157	0.117	-0.0015	-2.5
0	0.0142	0.1057	0.003	-2.5
0	0.018	0.0967	0.0037	-2.5
0.003	0.018	0.0877	-0.0015	-2.5
0.003	0.0195	0.0757	-0.0038	-2.5
0.003	0.018	0.063	0.0007	-2.5
0.0037	0.0157	0.048	0.003	-2.5
0.003	0.0165	0.0315	0.0045	-2.5
0.0045	0.0195	0.0157	0.0067	-2.5
0.003	0.0195	0.003	-0.0023	-2.5
0.003	0.0187	-0.0091	-0.0195	-2.5
0.003	0.0157	-0.0165	-0.0195	-2.5
-0.0008	0.0105	-0.027	-0.0083	-2.5
0.0007	0.0112	-0.033	0.0067	-2.5
0.003	0.0082	-0.039	0.0405	-2.5
0.0045	0.0052	-0.0443	0.069	-2.5
0.0045	0.003	-0.0495	0.063	-2.5
0.0015	-0.0008	-0.0555	0.0277	-2.5
0	-0.003	-0.0585	0.0052	-2.4
-0.0023	-0.0015	-0.0593	-0.0098	-2.4
-0.0008	-0.0023	-0.0555	-0.0165	-2.4
0.003	-0.003	-0.0533	-0.0083	-2.4
0.003	-0.0083	-0.0533	0.0007	-2.4
0.0037	-0.0203	-0.048	0.009	-2.4
0.0045	-0.0308	-0.0428	0.0045	-2.4
0.0015	-0.033	-0.0368	0.0007	-2.4
0.0015	-0.0383	-0.0323	-0.0068	-2.3
0.0037	-0.0488	-0.0278	-0.0068	-2.3
0.0015	-0.057	-0.0218	0.0045	-2.3
0.0007	-0.057	-0.0181	0.0052	-2.3
-0.0008	-0.0511	-0.0165	-0.0068	-2.2
-0.0008	-0.0315	-0.0188	-0.0105	-2.2
-0.003	-0.0105	-0.0165	-0.0015	-2.1
-0.0046	-0.0023	-0.012	0.0052	-2.1
-0.0015	-0.003	-0.0075	0.0142	-2.1
0	-0.0105	-0.0046	0.0067	-2
-0.0038	-0.0068	-0.003	-0.003	-2
-0.0046	-0.0053	0.0007	-0.0046	-1.9
-0.003	0	0.0015	-0.006	-1.9
-0.0015	0.0172	0.0015	-0.0046	-1.9
-0.0008	0.0225	0.0015	-0.003	-1.8
-0.0008	0.012	0.0007	-0.0038	-1.8
-0.0015	-0.0046	-0.0008	-0.0053	-1.8
-0.0015	-0.0053	-0.0008	-0.006	-1.8
-0.003	-0.0053	0	-0.0083	-1.8
-0.0015	-0.0008	-0.0023	-0.0068	-1.8
-0.0015	-0.0008	-0.0023	-0.006	-1.8
-0.0015	-0.0008	-0.0023	-0.0053	-1.9
-0.003	0.0022	-0.0038	-0.0068	-1.9
-0.006	-0.0023	-0.0053	-0.006	-2
-0.0068	0.0015	-0.0053	-0.0053	-2
-0.0053	0.0015	-0.003	-0.0068	-2.1
-0.0046	0.0045	-0.0015	-0.006	-2.1
-0.003	0.0037	-0.0008	-0.0068	-2.2
-0.0015	0.003	0.003	-0.0053	-2.2
0.0022	0.0067	0.0015	-0.0038	-2.2
0.0015	0.009	0.0015	-0.003	-2.3
-0.0008	0.0105	0.0037	-0.0038	-2.3
-0.0023	0.009	-0.0008	-0.0023	-2.3
-0.0023	0.0075	-0.0008	-0.0015	-2.4
-0.003	0.0067	0	-0.0015	-2.4
-0.0046	0.0082	-0.0015	-0.0015	-2.5
-0.0046	0.009	0.0022	-0.0053	-2.5
-0.0023	0.0097	0.0045	-0.0053	-2.6
-0.0008	0.009	0.003	-0.0023	-2.6
-0.0015	0.0082	0.0022	-0.0008	-2.7
0	0.0067	0.003	0.0045	-2.7
0.0007	0.0015	0.003	0.0127	-2.8
0.0007	0.0022	0.0015	0.0112	-2.8
0.0007	0.0037	0.0007	0.006	-2.9
0	0.0045	0.0007	0.0082	-2.9
-0.0008	0.0045	0	0.006	-3
-0.0015	0.0045	0	0.0045	-3.1
-0.0008	0.0052	0.0007	0.0045	-3.1
-0.003	0.0045	0.0007	0.0037	-3.2
-0.0038	0.003	0.0007	0.0052	-3.2
-0.0015	0.0015	0.0007	0.0045	-3.3
-0.0008	0	0.0007	0.0037	-3.3
-0.0008	0.0007	-0.0008	0.0045	-3.4
-0.0023	0.003	0.0015	0.0045	-3.4
-0.003	0.0015	0.0015	0.003	-3.5
-0.0015	0	-0.0008	0.003	-3.6
-0.0015	0.0007	0	0.0037	-3.6
-0.0015	-0.0008	-0.0008	0.0015	-3.7
-0.003	-0.0015	0	0.0022	-3.7
-0.0046	-0.0008	0.0015	0.0015	-3.7
-0.0046	0.0015	0.0045	0.003	-3.7
-0.0015	0.0022	0.0037	0.0037	-3.7
-0.0008	0.0037	0.003	0.003	-3.7
-0.0008	0.0045	0.0045	0.003	-3.7
-0.0008	0.003	0.0045	0.0022	-3.7
-0.0015	0.0045	0.0067	0.003	-3.7
0	0.0045	0.0075	0.0045	-3.7
0.0015	0.0022	0.0067	0.0067	-3.8
0.0037	-0.0008	0.0075	0.0067	-3.8
0.0037	-0.0015	0.0097	0.0045	-3.8
0.0007	-0.0008	0.0097	0.006	-3.8
-0.0008	-0.0008	0.0105	0.0052	-3.8
-0.0023	-0.0023	0.0105	0.006	-3.8
-0.003	-0.0046	0.009	0.0045	-3.8
-0.003	-0.0083	0.0052	0.0045	-3.8
-0.0015	-0.0195	0.0052	0.0045	-3.9
-0.0015	-0.0361	0.006	0.0015	-3.9
-0.0008	-0.0465	0.0067	0.003	-3.9
0	-0.0518	0.006	0.003	-3.9
-0.0023	-0.0533	0.0082	0.003	-3.9
-0.0008	-0.0495	0.009	0.0007	-3.9
-0.0015	-0.0473	0.0082	-0.0038	-3.8
-0.003	-0.045	0.0067	-0.0015	-3.8
-0.003	-0.0383	0.0067	0.0015	-3.8
-0.0015	-0.0315	0.0067	0.0097	-3.8
0	-0.0278	0.0045	0.0142	-3.7
-0.0008	-0.0233	0.003	0.0135	-3.7
-0.0015	-0.0165	0.0015	0.009	-3.7
-0.0008	-0.0135	-0.0015	0.0007	-3.7
-0.0008	-0.0091	-0.0023	-0.0023	-3.7
-0.0038	-0.0053	-0.003	-0.0023	-3.6
-0.0046	0.0015	-0.003	0	-3.6
-0.003	0.0052	-0.0015	0.0015	-3.6
-0.003	0.0045	-0.0015	0.0015	-3.6
-0.0023	0.0082	0	0.0022	-3.6
-0.0008	0.0082	-0.0015	0	-3.6
0.0015	0.0105	-0.0008	0.0007	-3.5
0.0022	0.012	-0.0008	-0.0015	-3.5
0.0015	0.009	0.0015	-0.0023	-3.5
0.0015	0.0082	0.0045	-0.0015	-3.5
0.0007	0.0082	0.0045	0	-3.5
0.0007	0.0075	0.0045	0.0007	-3.5
0.0015	0.0067	0.003	0	-3.5
0.0022	0.0067	0.0007	0.0007	-3.5
0.0022	0.0082	0.0007	-0.0008	-3.5
0	0.012	0	-0.0015	-3.5
-0.0008	0.0142	-0.0008	-0.0008	-3.5
-0.0008	0.0157	-0.0008	0	-3.5
0.0015	0.0142	-0.0015	0.0007	-3.5
0.0015	0.0142	-0.0046	0.0007	-3.5
0.0007	0.015	-0.0023	0	-3.5
0.0007	0.0127	0.0007	-0.0015	-3.5
-0.0008	0.0135	0.0007	-0.0023	-3.5
0	0.0142	0	-0.0046	-3.5
-0.0015	0.0142	0.0015	-0.0046	-3.5
-0.003	0.0172	0.0022	-0.0046	-3.5
-0.0015	0.015	0.0045	-0.0075	-3.5
0	0.0127	0.003	-0.0083	-3.6
0.0022	0.0127	0.0037	-0.0091	-3.6
0.0037	0.0127	0.0045	-0.0091	-3.6
0.0015	0.0127	0.003	-0.0105	-3.6
0.0007	0.0112	0.0015	-0.0075	-3.6
-0.0008	0.0097	0.0015	-0.0015	-3.6
-0.0008	0.0067	-0.0008	0.0052	-3.6
-0.0015	0.0067	0	0.012	-3.6
-0.003	0.0067	0.0007	0.003	-3.6
-0.003	0.0052	0	-0.003	-3.6
0	0.0045	0.0015	-0.0015	-3.7
0.0022	-0.0015	0.0007	0.0007	-3.7
0	-0.0083	-0.0008	0.0022	-3.7
-0.0008	-0.012	0.0007	0	-3.7
-0.0008	-0.012	0.0007	-0.0015	-3.7
-0.0008	-0.0128	0.0007	-0.0046	-3.7
-0.0008	-0.012	-0.0015	-0.0091	-3.8
-0.003	-0.0105	-0.003	-0.0083	-3.8
-0.003	-0.0098	-0.003	-0.0023	-3.8
-0.0038	-0.006	-0.003	0.0015	-3.8
-0.0046	0	-0.0008	0.0007	-3.9
-0.0046	0.0195	-0.0015	-0.0015	-3.9
-0.0023	0.0442	-0.0008	-0.0046	-3.9
-0.0008	0.0397	-0.0023	-0.0053	-3.9
-0.0038	0.018	-0.0023	-0.0053	-3.9
-0.003	0.0015	-0.0015	-0.0053	-3.9
-0.0015	-0.0068	0	-0.0046	-3.9
-0.0046	-0.0083	0.0015	-0.003	-3.9
-0.0053	-0.0091	0.0015	-0.003	-3.9
-0.003	0.0015	0.0045	0	-3.9
-0.0008	0.0105	0.0007	0.006	-4
-0.0008	-0.003	0	0.0067	-4
0.0007	-0.0128	-0.0015	-0.0046	-4
0.0007	-0.0135	-0.0008	-0.0165	-4
0.003	-0.0128	0.0022	-0.0165	-4
0.0045	-0.0105	0.0015	-0.0165	-4
0.003	-0.0203	0.0007	-0.0181	-4
0.0015	-0.0361	0.0007	-0.0203	-4
0.0015	-0.0473	-0.0015	-0.0263	-4.1
0.0007	-0.0518	-0.0046	-0.0256	-4.1
0.0007	-0.0525	-0.0038	-0.012	-4.1
-0.0008	-0.0428	-0.0015	0.0127	-4.1
-0.0015	-0.0285	-0.003	0.0307	-4.1
0.0007	-0.0293	-0.0038	0.0397	-4.1
0.0007	-0.0308	-0.0046	0.0465	-4.1
-0.0008	-0.0233	-0.0046	0.0547	-4.1
0.0007	-0.0203	-0.003	0.0607	-4.1
0.0015	-0.0181	-0.0015	0.0607	-4.1
0.0007	-0.0165	0.0007	0.0607	-4.1
0	-0.0105	0.003	0.0555	-4.1
0	-0.0038	0.0052	0.051	-4.1
-0.0008	-0.0046	0.0045	0.0457	-4.1
-0.0015	-0.0046	0.0052	0.0397	-4.1
-0.0008	-0.0015	0.0052	0.0367	-4.1
0	0.0022	0.003	0.0345	-4.1
0.0022	-0.0023	0.0052	0.0352	-4
0.003	-0.0075	0.006	0.0292	-4
0.0015	-0.0105	0.003	0.0045	-4
0.0007	-0.0128	0.0007	-0.012	-4
0	-0.0165	-0.0015	-0.012	-4
-0.0015	-0.015	-0.0015	-0.0091	-4
-0.0046	0.0022	0.0007	-0.0053	-4
-0.0038	0.0165	0.003	0.0067	-4
-0.003	0.0232	0.003	0.0315	-4
-0.0015	0.0397	0.0045	0.0367	-4
0	0.0472	0.0052	0.0285	-4
0	0.039	0.0045	0.033	-4
0.0007	0.042	0.0067	0.0442	-4
0.0007	0.0292	0.0075	0.0457	-4
0.0007	0.0157	0.006	0.039	-4
-0.0008	0.0135	0.0067	0.009	-3.9
-0.0008	-0.0053	0.0052	-0.0263	-3.9
0.0007	0.0052	0.0045	-0.0308	-3.9
-0.0008	0.0285	0.003	-0.0383	-3.9
-0.0015	0.039	0.0037	-0.0405	-3.9
-0.0008	0.0367	0.003	-0.0398	-3.9
-0.003	0.0165	0.0015	-0.042	-3.9
-0.0038	0.018	0.0015	-0.0405	-3.9
-0.0046	0.0195	-0.0008	-0.0495	-3.9
-0.003	-0.0023	-0.0023	-0.0713	-3.9
0	-0.0091	-0.0015	-0.0908	-3.9
-0.0015	-0.0128	0	-0.081	-3.9
-0.003	-0.0218	-0.0008	-0.0668	-3.9
-0.0015	-0.0218	-0.003	-0.0458	-3.9
-0.0015	-0.021	-0.0008	-0.024	-3.9
-0.0015	-0.0158	-0.0015	-0.0105	-3.9
-0.0023	-0.0158	0.0007	0.0082	-3.9
-0.0015	-0.0181	0.0007	0.0225	-3.9
0	-0.0075	0.0007	0.0495	-3.9
0.0007	0.0097	0.0015	0.0705	-3.9
0.0007	0.033	0.0022	0.054	-3.9
0	0.0397	0.0037	0.0105	-3.9
-0.0015	0.009	0.0022	-0.0203	-3.9
-0.0023	-0.015	0.003	-0.0428	-3.9
-0.0038	-0.0113	0	-0.0578	-3.9
-0.0038	-0.0023	0	-0.0353	-3.9
-0.0015	0.0165	0.0007	-0.0158	-3.9
-0.0008	0.018	-0.0023	-0.0165	-3.9
-0.0015	-0.0015	-0.0008	-0.0015	-3.9
-0.0038	-0.0143	0	0.027	-3.9
-0.0015	-0.0165	-0.0008	0.0442	-3.9
-0.0008	-0.0233	-0.0015	0.0405	-3.9
-0.0015	-0.0233	-0.0015	0.0232	-3.9
0	-0.0068	-0.0008	0.0082	-3.9
-0.0015	0.0007	0	-0.0188	-3.9
-0.0008	-0.0068	0.0015	-0.0488	-3.9
0	-0.0165	0.0037	-0.0413	-3.9
0.0007	-0.0293	0.0037	-0.0173	-3.9
0.0007	-0.0181	0.0052	0.003	-3.9
0.0015	0.009	0.0067	0.027	-3.9
0.0007	0.0195	0.0067	0.0427	-3.9
-0.0008	0.009	0.0075	0.0532	-3.9
0	-0.0165	0.0075	0.039	-3.9
0.0015	-0.012	0.009	0.0007	-3.9
0.0015	-0.0068	0.0082	-0.0143	-3.9
0	0.003	0.0067	-0.0075	-3.9
-0.0008	0.0217	0.0045	-0.0053	-3.9
-0.0015	0.0202	0.0052	-0.006	-3.9
-0.0046	0.0135	0.0075	-0.0068	-3.9
-0.0068	-0.0188	0.009	-0.0046	-3.9
-0.0046	-0.0443	0.009	-0.0053	-4
-0.0015	-0.0525	0.009	-0.0128	-4
-0.0008	-0.0578	0.0067	-0.0143	-4
0	-0.0503	0.0045	-0.0143	-4
-0.0008	-0.0383	0.0037	-0.012	-4
-0.0008	-0.0405	0.0015	-0.0053	-4
-0.0008	-0.0383	0.0022	0.003	-4
-0.0008	-0.0278	0.0015	0.0157	-4
0	-0.0256	0.0007	0.024	-4
-0.0008	-0.0218	-0.0008	0.0165	-4
-0.0015	-0.0181	-0.0023	0.0045	-4
-0.0015	-0.0091	-0.003	0.0015	-4
0	-0.0068	-0.003	0.0007	-4
0.0022	-0.0068	-0.0046	0.0007	-4
0.0015	-0.0053	-0.0053	0.0007	-4
0.0015	-0.0015	-0.0046	0.0037	-4
0	0.0022	-0.0053	0.0067	-4
-0.0015	0.0037	-0.0046	0.0067	-4
-0.0015	0.0097	-0.0053	0.0052	-4
-0.0008	0.0127	-0.0068	0.003	-4
0	0.018	-0.0068	0.0015	-4
-0.0008	0.024	-0.006	0.0015	-4
0.0007	0.03	-0.0046	0.0007	-4
0.0015	0.0345	-0.003	-0.0008	-4
0.0007	0.0277	-0.0008	-0.003	-4
0.0007	0.0247	-0.0008	-0.0008	-4
-0.0008	0.021	0.0015	0.009	-4
-0.0015	0.0165	0.0015	0.0135	-4
-0.0015	0.0112	0.0007	0.0127	-4
-0.0015	0.009	0.0015	0.0082	-4
-0.0015	0.0097	-0.0008	0.006	-4
-0.0015	0.009	-0.0008	0.003	-4
0	0.0075	-0.0015	0	-4
0	0.0022	-0.0023	-0.0023	-4
0.0007	-0.0008	-0.0008	-0.0098	-4
0.0022	0.0022	0.0007	-0.0113	-4
0.003	-0.003	0.0007	-0.0046	-4
0.0022	-0.0091	0.0015	0.0022	-4
0.0007	-0.0113	0.0007	0.0075	-4
-0.0015	-0.0091	-0.0015	0.009	-4
-0.0023	0.0052	-0.0023	0.0105	-4
-0.0015	0.0187	-0.0015	0.0082	-4
-0.003	0.0157	0.0007	0.0052	-4
-0.0046	-0.003	0.0015	0.0037	-3.9
-0.0038	0.0157	0.0037	0.0052	-3.9
-0.0023	0.033	0.003	0.0037	-3.9
-0.0015	0.0067	0.0015	-0.003	-3.9
-0.003	-0.0053	0.0022	-0.0075	-3.9
-0.0038	-0.0128	0.0015	-0.003	-3.9
-0.003	-0.0091	0.0022	0.0097	-3.9
-0.003	0.0157	0.003	0.0292	-3.8
-0.0015	0.0345	0.0045	0.0442	-3.8
0	0.0375	0.0052	0.0442	-3.8
0.0007	0.0255	0.006	0.0292	-3.8
0.0007	0.0015	0.0045	0.0082	-3.8
-0.0015	-0.0181	0.003	-0.0008	-3.8
-0.0015	-0.0188	0.0022	-0.0023	-3.8
-0.0008	-0.0218	0.0015	-0.0046	-3.8
-0.0015	-0.0173	0.0015	-0.0008	-3.7
0	-0.0181	0.003	-0.0015	-3.7
-0.0008	-0.0173	0.0022	-0.0046	-3.7
0	-0.0128	0.0015	-0.0038	-3.7
-0.0015	-0.0128	0.0015	-0.003	-3.7
-0.003	-0.0098	-0.0015	-0.003	-3.7
-0.003	-0.0105	-0.0008	-0.003	-3.7
-0.0046	-0.0083	-0.0023	-0.0008	-3.7
-0.0046	-0.0091	-0.0038	-0.0015	-3.7
-0.0046	-0.0091	-0.003	-0.0015	-3.6
-0.006	-0.0083	-0.0053	0.003	-3.6
-0.0046	-0.0053	-0.006	0.0037	-3.6
-0.003	-0.0046	-0.006	-0.0008	-3.6
-0.0046	-0.003	-0.0053	-0.0046	-3.6
-0.003	0.0007	-0.0046	-0.0083	-3.6
-0.0008	0	-0.003	-0.0083	-3.6
-0.0015	-0.0008	-0.0008	-0.0023	-3.6
-0.0008	0	-0.0015	-0.0008	-3.6
0.0015	0.0015	-0.0008	-0.0008	-3.6
0.0037	-0.0008	0.0007	-0.0015	-3.6
0.0045	-0.0015	0.003	-0.003	-3.5
0.006	-0.003	0.003	-0.0008	-3.5
0.0052	-0.0091	0.0015	-0.0015	-3.5
0.0015	-0.0195	-0.0008	-0.0015	-3.5
0.0015	-0.0293	0	-0.0008	-3.5
0.0037	-0.0368	-0.0008	0.0007	-3.5
0.003	-0.0443	0.0007	0	-3.5
0.0015	-0.045	0.0015	-0.0015	-3.4
0.0007	-0.0443	0.0007	-0.003	-3.4
0	-0.0405	0.0007	-0.0053	-3.4
-0.0008	-0.033	-0.0008	-0.0068	-3.4
0	-0.0135	-0.0015	-0.0091	-3.4
-0.0008	0.0045	-0.003	-0.012	-3.3
-0.0023	-0.0068	-0.003	-0.0158	-3.3
-0.0015	-0.0128	-0.003	-0.0165	-3.3
-0.003	-0.0091	-0.0038	-0.003	-3.3
-0.0038	-0.0083	-0.0023	0.006	-3.3
-0.003	-0.0038	-0.0038	-0.006	-3.3
-0.0015	-0.0046	-0.0046	-0.006	-3.2
0.0007	0.009	-0.0038	0.009	-3.2
0.0015	0.039	-0.0008	0.0262	-3.2
0.0015	0.045	-0.0008	0.0532	-3.2
0.0007	0.0277	-0.0008	0.0562	-3.2
0.0015	0.0157	0.003	0.012	-3.2
0.003	0.0022	0.0037	-0.048	-3.2
0.0007	-0.0023	0.003	-0.0593	-3.2
-0.0008	0.0015	0.003	-0.042	-3.1
-0.0015	0.0045	0.003	-0.027	-3.1
0	0.0202	0.0045	-0.015	-3.1
0.0015	0.0195	0.0052	-0.0046	-3.1
0	0.009	0.0052	0.012	-3.1
-0.0015	0.0082	0.006	0.039	-3
-0.0015	0.0067	0.0052	0.078	-3
0	0.0187	0.006	0.0757	-3
-0.0008	0.0262	0.003	0.0292	-3
-0.0008	0.021	0.003	-0.0068	-3
-0.0015	0.012	0.0022	-0.0158	-2.9
-0.0015	0.0052	0.0045	-0.0195	-2.9
0.0007	0.0052	0.0067	-0.0181	-2.9
-0.0008	0.0037	0.0052	-0.0173	-2.9
-0.0015	0.0045	0.006	-0.0165	-2.9
-0.0008	0.0015	0.0045	-0.0128	-2.8
-0.0023	0	0.0037	-0.0135	-2.8
-0.0046	0.0015	0.003	-0.0068	-2.8
-0.0038	-0.0053	0.0052	0.0052	-2.8
-0.003	-0.0053	0.0067	0.009	-2.8
-0.0023	0.0195	0.0067	-0.0008	-2.8
0.0007	0.0405	0.0052	-0.0075	-2.7
0.0022	0.0067	0.0015	-0.015	-2.7
0.0015	-0.0158	0.003	-0.0181	-2.7
0.0022	-0.0068	0.003	-0.0083	-2.7
0.0007	-0.0143	0	-0.0046	-2.7
0.0007	-0.0015	-0.003	-0.0143	-2.7
-0.0008	0.0007	-0.0038	-0.024	-2.7
-0.0015	0.0052	-0.0023	-0.0105	-2.7
-0.0008	0.018	-0.003	0.0015	-2.7
-0.0015	-0.003	-0.0015	-0.0008	-2.7
-0.003	-0.0143	-0.003	-0.0015	-2.6
-0.0038	-0.0091	-0.0053	-0.0038	-2.6
-0.003	0	-0.0053	-0.0038	-2.6
-0.0015	0.0007	-0.0046	-0.0023	-2.6
-0.0015	-0.0098	-0.003	0.0007	-2.6
-0.0015	-0.0075	-0.0038	0.0007	-2.6
-0.003	-0.0083	-0.0053	0.003	-2.6
-0.0015	-0.0068	-0.0068	0.0037	-2.5
0	-0.0046	-0.0046	0.003	-2.5
0.0007	-0.0068	-0.003	0.0075	-2.5
0	-0.0053	-0.0046	0.0082	-2.5
-0.0008	-0.0053	-0.0015	0.0082	-2.5
-0.0008	-0.0046	-0.0008	0.0067	-2.5
-0.0008	-0.0053	-0.0008	0.0045	-2.5
0.0007	-0.0046	0.0007	0.0015	-2.4
-0.0008	-0.003	0	0.0022	-2.4
-0.0015	-0.0008	-0.0008	0.0045	-2.4
-0.0015	-0.0015	0	0.0045	-2.4
-0.0015	-0.0015	0	0.0045	-2.4
-0.003	0.0015	-0.0008	0.0052	-2.4
-0.0046	0.0007	-0.0015	0.006	-2.3
-0.0046	0.0007	-0.0008	0.0045	-2.3
-0.003	-0.0008	0.0007	0.0045	-2.3
-0.0046	-0.0008	0.0022	0.0052	-2.3
-0.0053	-0.0008	0.003	0.0052	-2.3
0	-0.0015	0.0037	0.0045	-2.3
0.0007	-0.0008	0.0045	0.0037	-2.3
0.0007	0.0007	0.0052	0.0052	-2.3
0.0015	0.0007	0.0045	0.0052	-2.3
0.0015	-0.0008	0.0037	0.0052	-2.2
0.0015	-0.003	0.003	0.0082	-2.2
0	-0.0083	0.003	0.0067	-2.2
0.0015	-0.0105	0.0037	0.0052	-2.2
0.0015	-0.012	0.0045	0.006	-2.2
-0.0008	-0.0128	0.006	0.0052	-2.1
-0.0008	-0.0091	0.0045	0.0037	-2.1
0.0007	-0.0083	0.0037	0.0045	-2.1
-0.0008	-0.012	0.0052	0.0037	-2.1
-0.0023	-0.0113	0.0052	0.0037	-2.1
-0.0015	-0.015	0.0045	0.0037	-2
0.0007	-0.0218	0.0037	0.0037	-2
0.0015	-0.0143	0.0037	0.003	-2
0.0022	-0.0098	0.0037	0.0015	-2
0.0015	-0.03	0.0045	0.0015	-2
-0.0008	-0.0428	0.003	0.0015	-1.9
-0.0015	-0.0443	0	0.0045	-1.9
-0.0015	-0.0465	-0.0008	0.0045	-1.9
-0.0015	-0.0428	-0.0008	0.0045	-1.9
-0.0008	-0.042	-0.0015	0.0052	-1.9
0	-0.033	-0.0008	0.0067	-1.8
-0.0008	-0.0218	-0.0015	0.0067	-1.8
-0.003	-0.0195	-0.0015	0.0045	-1.8
-0.0015	-0.0181	-0.0015	0.0037	-1.8
-0.0015	-0.0173	-0.0015	0.0067	-1.8
-0.0008	-0.0135	-0.0023	0.0052	-1.8
-0.0008	-0.0091	-0.0053	0.0045	-1.8
-0.0015	-0.0023	-0.0053	0.0067	-1.8
-0.0015	0.0037	-0.0046	0.006	-1.7
-0.003	0.009	-0.003	0.0037	-1.7
-0.003	0.0142	-0.0023	0.0022	-1.7
-0.0008	0.0172	-0.003	0.0015	-1.7
-0.0015	0.0217	-0.0023	0.003	-1.7
-0.003	0.024	-0.0015	0.0015	-1.6
-0.0015	0.0217	-0.0023	0.0015	-1.6
-0.0008	0.0217	-0.0015	0.003	-1.6
0.0007	0.0225	-0.0008	0.003	-1.6
-0.0008	0.0217	-0.0008	0.0045	-1.6
0.0007	0.0202	0.0022	0.0067	-1.5
0.0007	0.0202	0.0007	0.0045	-1.5
-0.0008	0.0225	-0.0008	0.003	-1.5
0	0.0217	-0.0008	0.0045	-1.5
0.0007	0.0217	-0.0015	0.0045	-1.4
0.003	0.0195	-0.0008	0.003	-1.4
0.0015	0.0195	0.0015	0.0015	-1.4
0.0007	0.0172	0.0045	0.0007	-1.4
0.0007	0.0142	0.003	-0.0008	-1.4
0.0007	0.0127	0.0052	-0.0008	-1.4
0.0007	0.0105	0.0052	-0.0023	-1.4
0.0007	0.0105	0.003	-0.0008	-1.3
0.0007	0.0082	0.003	0.0007	-1.3
0.0007	0.0082	0.0022	0.003	-1.3
-0.0023	0.009	0.0037	0.003	-1.3
-0.0023	0.0082	0.0022	0.003	-1.2
-0.0046	0.0067	0.0007	0.0022	-1.2
-0.0053	0.0052	0.0015	0.003	-1.2
-0.003	0.0067	0.0022	0.006	-1.2
-0.0023	0.0075	0.0037	0.0045	-1.2
-0.003	0.0052	0.0045	0.003	-1.1
-0.003	0.0015	0.0045	0.003	-1.1
-0.0015	-0.003	0.003	0.0022	-1.1
-0.0008	-0.0046	0.0052	0.003	-1
-0.0008	-0.0046	0.0052	0.0015	-1
-0.0008	-0.0046	0.0037	0.003	-1
-0.0015	-0.0053	0.0007	0.003	-1
0	-0.006	0.0007	0.003	-0.9
0.0015	-0.006	0.0007	0.0022	-0.9
0.0007	-0.0053	0	0.0015	-0.9
0.0037	-0.0068	0.0015	0.0015	-0.9
0.003	-0.0046	0.0007	0.0022	-0.9
0.0007	-0.0023	-0.0015	0.0015	-0.9
0.0022	-0.0046	-0.0008	-0.0015	-0.8
0.0007	-0.0053	-0.0008	-0.003	-0.8
0	-0.006	0	-0.0038	-0.8
0	-0.0053	0.0015	-0.0046	-0.8
0.0007	-0.0046	0.003	-0.0053	-0.7
0.0007	-0.0015	0.0022	-0.0046	-0.7
-0.0015	0.0007	0.0015	-0.0053	-0.7
-0.0015	0.003	0	-0.0008	-0.7
-0.003	0.0045	0	0.006	-0.6
-0.0053	-0.003	0.0015	0.0075	-0.6
-0.0046	-0.0068	0	0.0075	-0.6
-0.003	-0.0091	-0.0015	0.009	-0.6
-0.0023	-0.0105	-0.0015	0.0105	-0.5
-0.003	-0.0105	-0.0015	0.0105	-0.5
-0.0015	-0.012	-0.0008	0.0112	-0.5
-0.0008	-0.0105	-0.0015	0.003	-0.5
-0.0023	-0.0135	-0.0023	-0.0008	-0.5
-0.0038	-0.0158	-0.003	-0.0008	-0.4
-0.0015	-0.0113	-0.003	-0.0046	-0.4
-0.0015	-0.0068	-0.0015	-0.0046	-0.4
-0.0015	-0.0038	-0.0008	-0.006	-0.4
-0.0015	-0.0015	-0.0023	-0.0053	-0.3
-0.0046	0.0015	-0.0008	-0.006	-0.3
-0.0038	-0.0023	0.0007	-0.0046	-0.3
-0.003	-0.0053	0.0015	-0.003	-0.3
-0.003	-0.0091	0.003	-0.003	-0.2
-0.0008	-0.021	0.0015	0.0007	-0.2
-0.0008	-0.0315	0.003	0.003	-0.2
-0.0038	-0.0383	0.003	0.0007	-0.1
-0.003	-0.0436	0.0022	0	-0.1
-0.0046	-0.0465	0	0.0022	-0.1
-0.0038	-0.0458	-0.0015	0	-0.1
-0.0023	-0.0405	-0.0015	-0.0008	0
-0.003	-0.0346	-0.0015	0	0
-0.0023	-0.0293	-0.0015	-0.003	0
-0.0015	-0.024	-0.0008	-0.003	0
0.0007	-0.0165	0.003	0.0015	0
0.0015	0.0052	0.003	0.0015	0.1
0.0015	0.024	0.0022	-0.003	0.1
0.0022	0.0052	0.0045	-0.0068	0.1
0.003	-0.0008	0.0045	-0.0023	0.1
0.0037	0.0097	0.0052	0.009	0.2
0.0022	0.0045	0.006	0.0157	0.2
0.0022	0.012	0.0082	0.0225	0.2
0.0015	0.0075	0.009	0.03	0.2
0.0037	0.0052	0.006	0.027	0.3
0.003	0.0105	0.0052	0.012	0.3
0.0015	0.0105	0.0052	0.0015	0.3
0.0015	0.0202	0.0045	-0.0008	0.3
0.0007	0.0142	0.003	-0.006	0.4
-0.0008	-0.0015	0.0015	-0.0143	0.4
-0.0015	-0.0075	0.0007	-0.0203	0.4
-0.003	0.0052	0.0022	-0.0158	0.4
-0.0008	0.0007	0.0037	-0.0181	0.4
0	-0.0091	0.003	-0.024	0.4
-0.0008	-0.0075	0.003	-0.021	0.4
-0.0023	-0.0046	0.0015	-0.0143	0.4
-0.0023	0.0577	0	0.003	0.5
0	0.135	0.0007	0.0352	0.5
0.003	0.129	0.0007	0.0555	0.5
0.0052	0.0667	0.003	0.042	0.5
0.0037	0.0292	0.0007	0.0195	0.5
0.003	0.009	-0.0015	0.0135	0.6
0.0022	-0.0038	0.0007	0.0187	0.6
-0.0008	-0.0046	0	0.021	0.6
-0.003	-0.0135	-0.0008	0.012	0.6
-0.003	-0.0105	-0.0008	-0.0053	0.6
-0.0008	-0.0143	0	-0.012	0.7
0.0007	-0.0165	0.0007	-0.0128	0.7
0.0015	-0.0158	0.0007	-0.0128	0.7
0.0007	-0.015	0.0015	-0.0128	0.7
0	-0.0105	0	-0.0128	0.7
-0.0008	-0.0083	0.0007	-0.0105	0.7
-0.0015	-0.003	0.0007	-0.0068	0.7
-0.003	-0.0083	0	-0.0053	0.8
-0.0053	-0.0105	-0.0008	-0.006	0.8
-0.0046	-0.0091	-0.0015	-0.006	0.8
-0.0046	-0.0068	0	-0.0068	0.8
-0.0015	-0.0023	0.0022	-0.0053	0.8
-0.0008	-0.003	0.003	-0.0038	0.8
-0.0023	-0.0046	0.0015	-0.0015	0.9
-0.0015	-0.0053	0.0037	-0.0008	0.9
-0.0038	-0.0046	0.0052	-0.0015	0.9
-0.0053	-0.0053	0.006	-0.0015	0.9
-0.0038	-0.0053	0.0052	-0.0008	0.9
-0.003	-0.0053	0.0045	-0.0008	0.9
-0.0015	-0.0053	0.0052	-0.0015	0.9
-0.0046	-0.0046	0.0052	-0.0008	0.9
-0.0091	-0.0038	0.0045	-0.0008	0.9
-0.0143	-0.003	0.0037	0	1
-0.0105	-0.006	0.003	0.0007	1
-0.003	-0.0091	0.0037	0.0007	1
0.0007	-0.0113	0.003	-0.0008	1
0.0082	-0.012	0.0015	0.0007	1.1
0.0135	-0.0113	0	0.003	1.1
0.015	-0.0128	0.0007	0.0127	1.1
0.0112	-0.0128	0.0022	0.0315	1.1
0.0105	-0.0135	0.0015	0.0352	1.1
0.0082	-0.0098	0.0007	0.018	1.2
0.0052	-0.0023	-0.0023	0.0045	1.2
0.0022	0.0015	-0.003	-0.0046	1.2
-0.003	0.0015	-0.0023	-0.0105	1.2
-0.0083	-0.0008	-0.0015	-0.0143	1.3
-0.012	-0.0023	-0.0008	-0.024	1.3
-0.0105	-0.003	-0.003	-0.0248	1.3
-0.0075	-0.0015	-0.003	-0.012	1.3
-0.0053	-0.0008	-0.0015	-0.0046	1.3
-0.003	0.009	-0.0023	0.0007	1.3
-0.003	0.0127	-0.003	0.0022	1.4
0.0015	0.0037	-0.0046	0.0015	1.4
0.0007	-0.0015	-0.0038	0.0045	1.4
-0.0023	-0.0173	-0.0046	0.0037	1.4
-0.0008	-0.033	-0.0023	0.0045	1.5
-0.0008	-0.0398	-0.0015	0.0045	1.5
0.0007	-0.039	-0.003	0.003	1.5
0.0022	-0.0338	-0.0046	0.0007	1.6
0.0022	-0.0308	-0.0038	0.0015	1.6
0.0015	-0.0361	-0.0023	0.0045	1.6
0.0015	-0.0353	-0.003	0.0037	1.6
0.0007	-0.0308	-0.0023	0.003	1.7
-0.0015	-0.0256	0.0007	0.003	1.7
-0.003	-0.0203	0.003	0.003	1.7
-0.003	-0.021	0.0045	0.003	1.7
-0.003	-0.0165	0.0052	0.0045	1.8
-0.0023	-0.0218	0.0045	0.003	1.8
-0.003	-0.0248	0.006	0.0015	1.8
-0.0098	-0.0053	0.009	0.003	1.8
-0.0143	0.0135	0.0082	0.003	1.8
-0.0105	0.021	0.0097	0.0045	1.9
-0.003	0.0217	0.0067	0.0067	1.9
0.003	0.0142	0.003	0.0052	1.9
0.0075	0.0097	0	0.003	1.9
0.0127	0.0142	-0.0015	0.0015	1.9
0.015	0.015	-0.0008	0.0007	2
0.0157	0.009	-0.0008	0.0007	2
0.0112	0.0105	-0.0015	0.0007	2
0.0045	0.0172	-0.0015	0	2
0.0015	0.018	-0.0023	0.0007	2.1
-0.0008	0.0187	-0.0015	0.003	2.1
-0.0068	0.018	-0.0015	0.0052	2.1
-0.012	0.0157	-0.0015	0.0067	2.2
-0.0105	0.015	-0.0008	0.0045	2.2
-0.0083	0.0105	-0.0008	0.0037	2.2
-0.0083	0.0075	0.003	0.0015	2.2
-0.0091	0.0075	0.003	-0.0015	2.2
-0.0218	0.0105	0.0022	-0.0046	2.2
-0.0256	0.0127	0.0052	-0.0046	2.3
-0.012	0.012	0.0045	-0.003	2.3
0	0.0142	0.0045	-0.0015	2.3
0.009	0.0157	0.0045	0.0015	2.4
0.018	0.009	0.003	0.0007	2.4
0.0217	0.0052	0.0015	-0.0008	2.4
0.0255	-0.0015	-0.0015	-0.0023	2.5
0.0232	-0.0075	-0.0023	-0.0023	2.5
0.0157	-0.0105	-0.0038	-0.0015	2.5
0.0105	-0.012	-0.0038	-0.0023	2.6
0.0045	-0.0068	-0.0008	-0.0038	2.6
-0.0053	-0.0053	-0.0008	-0.0068	2.6
-0.012	-0.003	0.0015	-0.0098	2.6
-0.012	0.0007	0.006	-0.0091	2.7
-0.0135	0.0007	0.0052	-0.0068	2.7
-0.0113	0.0067	0.003	-0.003	2.7
-0.0098	0.009	0.003	0.009	2.8
-0.0068	0.012	0.003	0.0157	2.8
-0.0015	0.0082	0.0045	0.0195	2.8
-0.003	0.0105	0.003	0.0217	2.9
0.0015	0.0097	0.0015	0.0142	2.9
0.0015	-0.003	0.0007	0.015	3
-0.0015	-0.0015	0.0007	0.0195	3
-0.003	-0.0038	0.0007	0.0142	3
-0.0046	-0.0075	-0.0015	0.012	3.1
-0.003	-0.0091	-0.0015	0.0052	3.1
-0.0053	-0.0068	0	-0.003	3.1
-0.0053	0	-0.0008	-0.0053	3.2
-0.0046	0.003	-0.0015	-0.0038	3.2
-0.0053	0.0015	-0.0023	-0.0015	3.3
-0.003	-0.0015	-0.0008	0.0015	3.3
-0.003	-0.0015	0.0015	0.0015	3.3
-0.0008	-0.003	0.0015	0.0022	3.4
-0.0015	-0.0015	0.0007	-0.003	3.4
-0.0008	0.0007	0.0015	-0.0083	3.5
-0.0008	-0.0008	-0.0008	-0.0091	3.5
-0.0008	-0.0053	-0.0008	-0.0105	3.5
0.0007	-0.0091	-0.0008	-0.012	3.6
-0.0023	-0.0091	-0.0008	-0.0083	3.6
-0.0046	-0.0098	-0.0008	0.0022	3.6
-0.0053	-0.0083	-0.0015	0.0052	3.7
-0.0038	-0.0083	0.0015	0.0022	3.7
-0.0023	-0.0098	0.0015	0.0007	3.8
-0.003	-0.0128	0.0007	0.0037	3.8
-0.003	-0.015	0.0007	0.0135	3.9
-0.0015	-0.0143	0	0.0202	4
0.0007	-0.0015	-0.0008	0.0232	4
0.003	0.0112	-0.0015	0.0172	4
0.003	0.006	0	0.0127	4.1
0.003	0.0195	0.0007	0.0262	4.1
0.0045	0.0202	0.0022	0.0307	4.2
0.003	-0.0158	0.0045	0.012	4.2
0.0045	-0.0346	0.0022	-0.0038	4.3
0.003	-0.0308	0.0015	-0.0053	4.3
0.0015	-0.033	0.0007	-0.0038	4.4
0.003	-0.0458	0.0022	-0.0053	4.5
0.0022	-0.0405	0.0045	-0.0053	4.5
0.0022	-0.0338	0.003	-0.0083	4.5
0.003	-0.033	0.0022	-0.0105	4.6
0	-0.0308	0.0022	-0.012	4.6
0.0007	-0.033	0.0022	-0.015	4.7
0.0022	-0.0285	0.0015	-0.0165	4.8
0.003	-0.024	0.0007	-0.0218	4.9
0.0015	-0.0165	0.0007	-0.0278	4.9
0	-0.0083	0.0007	-0.0293	5
0.0015	-0.0083	-0.0008	-0.0256	5.1
0	-0.003	-0.0008	-0.0225	5.2
-0.003	0.0135	0.0007	-0.0165	5.2
-0.0023	0.0315	0.0015	-0.0158	5.3
-0.0008	0.0277	0.003	-0.006	5.4
-0.0008	0.033	0.0007	0.0165	5.4
-0.0023	0.0315	0.0007	0.0225	5.5
-0.0038	0.0105	-0.0015	0.021	5.6
-0.0053	0.006	-0.0046	0.0195	5.7
-0.0053	-0.0083	-0.003	0.0157	5.8
-0.0046	-0.0023	-0.0015	0.0217	5.8
-0.003	0.0127	-0.0023	0.0232	5.9
-0.003	0.0217	-0.003	0.0187	6
-0.0046	0.0345	-0.003	0.0285	6
-0.0046	0.0202	-0.0015	0.0382	6.1
-0.003	0.0142	-0.0015	0.0345	6.2
-0.003	0.012	-0.0008	0.0195	6.3
-0.0015	0.0007	-0.0008	-0.0083	6.4
-0.0008	0.0052	-0.0023	-0.033	6.4
0.0007	0.003	-0.0008	-0.0428	6.5
0.0007	0.0045	-0.0008	-0.0608	6.6
-0.0008	0.0097	-0.0015	-0.0608	6.7
0	0.0112	0.0015	-0.0443	6.8
-0.0008	0.0052	0.0007	-0.033	6.9
-0.0008	-0.015	0.0022	0.0015	7
0.0007	-0.0278	0.0015	0.0082	7
-0.0008	-0.0218	0.0007	0.0105	7.1
-0.0015	0.0015	0.0015	0.0525	7.2
-0.0008	0.0075	0.0007	0.075	7.3
0.0045	-0.0038	0.003	0.0637	7.4
0.0045	-0.0113	0.0007	0.0465	7.5
-0.0008	0.012	0.0015	0.0292	7.5
-0.0015	0.0502	0.0037	0.0172	7.6
-0.0008	0.0315	0.003	0.0337	7.7
-0.0015	0.0202	0.0052	0.0307	7.8
0	0.0277	0.0045	0.0052	7.9
-0.0008	0.0052	0.0052	-0.0353	8
-0.0015	0.009	0.0037	-0.0413	8.1
-0.0023	0.012	0.0015	-0.0165	8.3
-0.003	0.0082	0.0022	-0.0046	8.4
-0.0038	-0.0083	-0.0015	0.0112	8.5
-0.0046	-0.0128	-0.0023	0.0157	8.6
-0.0046	-0.0075	-0.003	0.0255	8.8
-0.006	-0.027	-0.0046	0.024	8.9
-0.0068	-0.0256	-0.0038	0.0165	9
-0.003	-0.0158	-0.0023	0.0015	9.1
-0.0038	-0.0053	-0.0015	-0.0046	9.2
-0.0053	-0.012	-0.0008	-0.0338	9.4
-0.0053	-0.0098	0.0015	-0.1238	9.5
-0.0008	-0.0338	0.0037	-0.1426	9.6
-0.0008	-0.084	0.003	-0.0968	9.7
-0.003	-0.0825	0.0022	-0.0856	9.9
-0.0023	-0.0683	0	-0.0465	10
-0.0046	-0.0398	-0.0023	0.027	10.1
-0.0046	-0.0248	-0.0038	0.0855	10.2
-0.0015	-0.0008	-0.0046	0.1462	10.4
0.003	0.1005	0	0.2467	10.5
0.0105	0.2107	0.0052	0.3307	10.7
0.018	0.2032	0.0067	0.2512	10.8
0.0142	0.0697	0.0015	0.0502	11
0.0052	-0.0225	-0.0015	-0.0315	11.2
0	-0.0323	0.0007	-0.0278	11.3
-0.0015	-0.0015	-0.0008	-0.06	11.5
-0.0023	0.0217	-0.0008	-0.078	11.7
-0.003	0.0135	-0.0008	-0.0953	11.8
-0.003	0.0217	-0.0015	-0.0975	12
-0.0015	-0.0256	0	-0.0923	12.1
0.0007	-0.0668	0.0007	-0.063	12.3
0.0015	-0.0683	0.0007	-0.0428	12.5
0.003	-0.075	0	-0.0488	12.6
0.0015	-0.06	0.0015	-0.0443	12.8
0.0007	-0.0691	0.0022	-0.0405	13
-0.0008	-0.063	0.0052	-0.0165	13.1
-0.0008	-0.0518	0.0052	0.0045	13.3
0	-0.042	0.0082	0.0202	13.5
0.0015	-0.024	0.0105	0.0315	13.6
0.0022	-0.024	0.0105	0.0382	13.8
0.0007	-0.0165	0.0105	0.0217	14
-0.0008	-0.0165	0.0082	-0.0015	14.1
-0.0008	-0.0173	0.006	-0.015	14.3
-0.0008	-0.0195	0.003	-0.0256	14.5
0.0007	-0.0098	0.0045	-0.024	14.7
0.0007	0.012	0.003	-0.0195	14.8
-0.0008	0.0165	0	-0.0091	15
-0.003	0.0105	0.0007	0.0015	15.2
-0.003	0.006	0	0.0082	15.3
-0.0015	0.0015	0.0015	0.0052	15.5
-0.0015	0.009	0	0.0007	15.7
-0.0008	0.0232	-0.003	-0.0091	15.9
-0.0015	0.0232	-0.0015	-0.0135	16.1
-0.0015	0.0165	-0.0015	-0.0105	16.2
0	0.0217	-0.003	-0.0173	16.4
0.0015	0.0367	0	-0.0181	16.6
0.0007	0.0397	0.0015	-0.0083	16.7
0	0.0465	-0.0008	0.0022	16.9
-0.0015	0.0427	0	0.012	17.1
-0.0015	0.0135	0	0.0082	17.3
-0.0008	-0.0008	-0.0008	-0.0165	17.5
-0.0023	-0.0068	0.0015	-0.0233	17.7
-0.0038	-0.0128	0	-0.0105	17.9
-0.0015	0	0.0007	-0.0068	18.1
0.0007	-0.0008	0	-0.0015	18.3
0.0015	-0.0143	0.0007	0.0127	18.4
0.0045	-0.0053	0.0015	0.0322	18.7
0.0045	0.0225	0.0015	0.0577	18.9
0.0007	0.03	0	0.093	19
0.0007	0.0082	-0.0008	0.1207	19.3
-0.0008	-0.0008	-0.0015	0.075	19.4
-0.003	-0.0053	-0.0015	0.0015	19.6
-0.0053	-0.0128	-0.0008	-0.012	19.8
-0.006	-0.012	-0.003	-0.0158	20
-0.0023	-0.0165	-0.0015	-0.0181	20.2
-0.0038	-0.0195	-0.0008	-0.0158	20.4
-0.0046	-0.024	-0.0015	-0.0173	20.6
-0.0046	-0.024	-0.003	-0.0158	20.8
-0.0038	-0.0173	-0.0046	-0.015	21
-0.003	-0.0083	-0.0046	-0.0098	21.2
-0.0046	0.0052	-0.006	-0.0128	21.4
-0.0038	0.0127	-0.0053	-0.015	21.6
-0.003	0.0127	-0.0053	-0.0128	21.8
-0.0023	0.0037	-0.0068	-0.0143	22
-0.0046	-0.0053	-0.0068	-0.0165	22.2
-0.0046	-0.015	-0.0046	-0.0135	22.5
-0.003	-0.0203	-0.003	-0.0091	22.6
-0.0015	-0.0203	0.0007	-0.0053	22.9
-0.003	-0.015	0.0037	-0.0015	23.1
-0.003	-0.0083	0.0045	-0.0015	23.3
0	-0.0015	0.0037	0.0007	23.5
0.0015	0.0007	0.0022	0.0022	23.7
0.003	0.0052	0.0045	0.003	23.9
0.0037	0.0067	0.0045	0.003	24.1
0.003	-0.0008	0.0015	0.003	24.3
0	-0.0098	-0.0015	0.0015	24.5
-0.003	-0.0158	-0.003	0	24.7
-0.0046	-0.0143	-0.003	0.0007	24.9
-0.0023	-0.0068	-0.003	0.003	25.2
0.0007	0.0007	0.0015	0.0045	25.3
0.0007	0.0067	0.003	0.0015	25.6
0.0007	0.0165	0.0037	0.0007	25.8
0.003	0.0292	0.0015	0.0022	26
0.0015	0.0397	-0.0008	0.0052	26.2
-0.0008	0.0382	0.0007	0.0082	26.4
0.0022	0.0292	0.0007	0.006	26.6
0.003	0.0195	-0.0015	0.0075	26.8
0.003	0.0127	-0.003	0.0082	27
0.003	0.0142	0	0.0082	27.2
0.0022	0.012	0.0015	0.0082	27.4
0.0015	0.0067	0.0037	0.0067	27.6
0	0.0007	0.0067	0.006	27.9
0.0007	-0.0046	0.0075	0.0067	28.1
0.0015	-0.0015	0.0082	0.0082	28.3
0.0007	-0.003	0.0075	0.0067	28.5
0.0015	-0.0105	0.0082	0.0022	28.7
-0.0015	-0.0165	0.009	0.0007	28.9
-0.0046	-0.0233	0.0067	-0.003	29.1
-0.0075	-0.024	0.0037	-0.0038	29.3
-0.0068	-0.0195	0.0015	-0.0046	29.5
-0.0053	-0.0218	0	-0.0046	29.7
-0.0046	-0.033	-0.0008	-0.0046	29.9
-0.0038	-0.0398	0	-0.0068	30.1
-0.0053	-0.0346	0.0007	-0.0046	30.3
-0.003	-0.0315	-0.0015	-0.0015	30.5
0.0007	-0.0308	0	-0.003	30.7
0.0007	-0.0346	-0.0015	-0.0046	30.9
-0.0015	-0.0443	-0.0038	-0.0046	31.1
-0.0046	-0.0488	-0.0023	-0.003	31.3
-0.0046	-0.0533	-0.0023	-0.0008	31.5
-0.0038	-0.0578	-0.0008	-0.0008	31.7
-0.0015	-0.057	-0.0008	-0.0008	31.9
-0.0015	-0.054	-0.0015	-0.0008	32.1
-0.003	-0.0503	-0.0023	0.003	32.3
-0.0015	-0.0428	-0.0008	0.0052	32.5
0.0015	-0.0308	0.0015	0.0067	32.7
0.0007	-0.0218	0.0045	0.0075	32.9
0.0007	-0.015	0.0075	0.0075	33.1
-0.0008	-0.0075	0.0075	0.0097	33.3
-0.0008	0.003	0.0075	0.0082	33.5
-0.003	0.0127	0.0037	0.003	33.7
-0.006	0.0142	0	0.0015	33.9
-0.0038	0.0157	-0.0023	-0.0008	34.1
-0.0046	0.0217	-0.0038	-0.0015	34.2
-0.0075	0.033	-0.0046	-0.0008	34.5
-0.0046	0.0405	-0.0038	0.003	34.6
0	0.045	-0.0046	0.003	34.8
0.0037	0.0465	-0.0046	0.003	35.1
0.0052	0.0472	-0.0038	0.0052	35.2
0.006	0.0442	-0.0046	0.0067	35.4
0.0075	0.0367	-0.0068	0.0075	35.6
0.0067	0.0322	-0.0068	0.0082	35.8
0.0052	0.024	-0.0068	0.009	36
0.0052	0.018	-0.0075	0.0097	36.2
0.0045	0.0165	-0.0068	0.0082	36.4
0.003	0.0157	-0.0053	0.0045	36.6
0.003	0.0127	-0.003	0.0037	36.8
0.0007	0.0097	-0.0038	0.0022	36.9
-0.0008	0.006	-0.0038	0.0007	37.1
-0.0023	0.003	-0.0008	0	37.3
-0.0046	0.0052	-0.0015	-0.0008	37.5
-0.0038	0.0127	-0.0008	-0.0015	37.7
-0.0015	0.018	-0.0008	-0.0023	37.9
-0.0015	0.0217	0.0007	-0.0015	38.1
-0.0015	0.024	0.0037	-0.003	38.3
-0.0008	0.0187	0.0045	-0.0038	38.5
-0.003	0.0127	0.003	-0.0053	38.7
-0.006	0.0127	0.0045	-0.0053	38.9
-0.0046	0.0202	0.006	-0.003	39.1
-0.003	0.024	0.0067	-0.0008	39.3
-0.0023	0.0217	0.0082	0.0015	39.5
-0.0015	0.0142	0.0052	0.0007	39.7
-0.0023	0.0067	0.0067	-0.0008	39.9
-0.0015	0.0067	0.0067	0.0015	40.1
0	0.0082	0.0052	0.0015	40.3
0.0015	0.0127	0.0075	0.0015	40.5
0.0022	0.0097	0.006	0.003	40.7
0.0022	-0.0053	0.003	0.0045	40.9
0.0045	-0.0165	0.0022	0.0052	41
0.003	-0.0218	0.0015	0.0022	41.2
-0.003	-0.021	-0.0008	0.0015	41.4
-0.0023	-0.0181	0.0007	0.0015	41.6
-0.003	-0.015	0.0007	0.0015	41.8
-0.0038	-0.0143	0.003	0.0045	42
-0.0015	-0.0165	0.0052	0.006	42.2
0	-0.0158	0.0045	0.0015	42.4
0.0015	-0.0091	0.0037	-0.0008	42.6
0.0015	-0.0008	0.003	-0.0015	42.7
0	0.0127	0.0037	-0.0015	42.9
-0.0008	0.0195	0.003	-0.0015	43.1
0	0.009	0.003	-0.0023	43.3
0.0015	-0.0015	0.003	-0.003	43.5
0	-0.0113	0.0015	-0.0015	43.7
-0.0008	-0.0203	-0.0008	0.003	43.9
0.0015	-0.024	-0.003	0.003	44.1
0.003	-0.0315	-0.0038	0.0022	44.3
0.003	-0.0346	-0.0046	0.0045	44.5
0.0015	-0.0315	-0.0046	0.0052	44.6
0.0022	-0.027	-0.0053	0.0007	44.8
0	-0.021	-0.0068	-0.0008	45
-0.0038	-0.0113	-0.0068	-0.0015	45.1
-0.0046	-0.0038	-0.006	-0.0023	45.3
-0.003	-0.0046	-0.003	-0.0046	45.4
-0.0015	-0.0015	-0.0046	-0.0083	45.6
-0.0023	0.0015	-0.0023	-0.012	45.8
-0.0038	0.0195	-0.0008	-0.0105	45.9
-0.003	0.0405	-0.0023	-0.0046	46.1
-0.0015	0.042	0	0.0007	46.3
0.0007	0.0405	0.003	0.0022	46.4
0.0037	0.0352	0.0067	0.0045	46.6
0.006	0.0202	0.009	0.0052	46.8
0.009	0.0052	0.0082	0.0067	46.9
0.009	-0.0135	0.009	0.0082	47.1
0.0052	-0.0293	0.0082	0.0097	47.2
0.0007	-0.0368	0.006	0.0105	47.4
0	-0.042	0.0045	0.0075	47.6
-0.0023	-0.0511	0.003	0.0015	47.7
-0.0053	-0.0653	0.0015	-0.0008	47.9
-0.0091	-0.0765	0.0007	-0.0015	48
-0.0128	-0.0803	0.0015	-0.0046	48.1
-0.012	-0.0773	0	-0.0053	48.2
-0.012	-0.0706	0.0015	-0.0053	48.3
-0.0105	-0.057	0.0022	-0.0075	48.5
-0.0105	-0.0428	0.0015	-0.0091	48.6
-0.0113	-0.0285	0.0015	-0.0083	48.6
-0.0091	-0.0158	0.003	-0.003	48.8
-0.0068	-0.0091	0.0052	0	48.9
-0.0038	-0.0068	0.0082	0.0015	49
-0.0023	-0.0053	0.0105	0.0022	49.1
-0.0008	-0.0046	0.0127	0.0045	49.2
0	0.003	0.0142	0.0052	49.4
0.0015	0.012	0.018	0.0052	49.5
0.0007	0.0187	0.0187	0.0067	49.6
0.0007	0.0195	0.0195	0.0067	49.7
0.0015	0.0157	0.0217	0.0075	49.8
0.0015	0.0165	0.021	0.0045	49.9
0.0015	0.0172	0.0217	0.0045	50
0.0015	0.018	0.0225	0.006	50.1
0.0007	0.0217	0.0202	0.0082	50.2
0.0015	0.027	0.021	0.009	50.2
0.0022	0.0277	0.0187	0.0052	50.3
0.0045	0.0277	0.0142	0.0045	50.4
0.0052	0.0292	0.0127	0.0045	50.4
0.0052	0.0292	0.0112	0.0045	50.4
0.0052	0.03	0.0082	0.0022	50.5
0.003	0.0255	0.0015	0.0015	50.6
0.0037	0.024	-0.0046	0.0007	50.6
0.0022	0.027	-0.0091	0.003	50.7
0.0045	0.0285	-0.012	0.0052	50.8
0.0052	0.0307	-0.0158	0.0015	50.8
0.0045	0.0292	-0.0195	0.0007	50.8
0.0045	0.0255	-0.0218	0.0045	50.9
0.0045	0.0232	-0.027	0.0022	51
0.0045	0.024	-0.0308	0.003	51
0.0037	0.021	-0.0323	0.0037	51.1
0.0007	0.0195	-0.033	0.0045	51.2
-0.0015	0.018	-0.0315	0.0067	51.2
-0.0008	0.009	-0.0353	0.006	51.3
-0.0015	-0.0023	-0.0405	0.0045	51.3
-0.003	-0.0143	-0.0436	0.0037	51.3
-0.003	-0.0233	-0.0495	0.0045	51.3
-0.0015	-0.0248	-0.0495	0.0015	51.3
-0.003	-0.0263	-0.0488	0.0007	51.3
-0.0023	-0.024	-0.0488	0.0037	51.3
-0.0015	-0.0158	-0.0473	0.003	51.3
-0.0015	-0.0068	-0.0473	0.0007	51.3
-0.0015	0.003	-0.0488	-0.0046	51.3
-0.0008	0.0067	-0.0503	-0.0023	51.4
0.0007	0.0045	-0.0495	-0.0008	51.4
0.0007	0.0037	-0.048	-0.003	51.4
0.0007	0.0037	-0.0465	-0.0008	51.4
0.0007	0.0007	-0.042	-0.0008	51.4
-0.0015	-0.003	-0.0375	0	51.4
-0.0015	-0.0083	-0.0338	0.0015	51.4
-0.003	-0.0143	-0.0315	0.0022	51.4
-0.0068	-0.0181	-0.0181	0.0015	51.5
-0.006	-0.0203	0.021	0	51.5
-0.0053	-0.024	0.0787	0.003	51.5
-0.0046	-0.024	0.1237	0.0015	51.5
-0.006	-0.0203	0.15	-0.0008	51.5
-0.0068	-0.015	0.1635	0.0007	51.4
-0.0091	-0.0091	0.1657	0.0007	51.4
-0.0091	-0.003	0.1642	-0.0008	51.4
-0.0075	0.0022	0.1612	0	51.4
-0.006	0.009	0.1567	0.0007	51.4
-0.0046	0.0105	0.1492	0.0007	51.3
-0.0046	0.009	0.1417	0.003	51.3
-0.0023	0.009	0.1312	0.003	51.3
-0.0008	0.0082	0.1177	0.0015	51.3
0	0.0105	0.102	0.0015	51.3
-0.0008	0.0142	0.0885	0.0022	51.2
-0.0008	0.0142	0.0705	0.0015	51.2
0.0007	0.015	0.0502	0.0007	51.2
0.0007	0.009	0.0322	0.0015	51.2
-0.0008	0.003	0.0187	0.0015	51.2
0	0.0007	0.0067	0.003	51.1
0.0015	0.0007	-0.0068	0.003	51.1
0.0022	0.0015	-0.0135	0.0022	51
0.003	0.0007	-0.024	0.0037	51
0.003	0.0015	-0.0346	0.0037	50.9
0.0037	0	-0.0436	0.003	50.8
0.0045	-0.003	-0.054	0.0037	50.7
0.0037	-0.003	-0.0578	0.0045	50.6
0.0015	-0.0038	-0.0638	0.003	50.5
0.0007	-0.0046	-0.0713	0.0015	50.4
0	-0.0015	-0.078	0.0007	50.4
0.0007	0.003	-0.0803	0.0007	50.3
0.0007	0.0067	-0.078	0	50.2
0.0022	0.003	-0.0765	0	50.1
0.0007	-0.0091	-0.0713	0.0007	50
-0.0008	-0.0256	-0.0668	0.0015	49.9
-0.0008	-0.0368	-0.0638	0.0037	49.9
-0.0008	-0.0428	-0.054	0.003	49.8
-0.0008	-0.0473	-0.048	0.0015	49.7
0.0007	-0.042	-0.0413	0.003	49.6
0.0015	-0.0368	-0.03	0.003	49.5
0	-0.0308	-0.0233	0.0045	49.4
0	-0.027	-0.0188	0.0045	49.3
-0.0008	-0.0256	-0.0135	0.0037	49.2
-0.0015	-0.0248	-0.012	0.003	49.1
-0.0008	-0.0203	-0.0091	0.0015	49
0	-0.0143	-0.0068	0.0007	48.8
-0.0008	-0.0083	-0.0083	-0.0008	48.7
-0.0015	-0.003	-0.0098	0	48.6
0.0007	-0.0015	-0.0091	-0.0008	48.5
0.0007	-0.0015	-0.0105	-0.0008	48.4
-0.0015	-0.0015	-0.0083	-0.0008	48.2
0.0007	-0.0015	-0.0046	-0.0008	48.1
0.0007	0.0022	0.0007	0.0015	48
0.0007	0.0015	0.003	0.0015	47.9
-0.0015	-0.0015	0.0022	0.0015	47.8
-0.0008	0	0.0015	0.0007	47.6
-0.0015	-0.003	0.0015	0	47.5
-0.0046	-0.0038	0.0015	0.0007	47.4
-0.003	-0.003	0.0007	-0.0015	47.3
-0.0046	-0.003	-0.003	-0.003	47.2
-0.0046	0.0007	-0.0053	-0.0023	47.1
-0.0046	0.003	-0.0075	-0.003	46.9
-0.0053	0.0075	-0.012	-0.0023	46.8
-0.0015	0.0105	-0.0158	-0.0015	46.7
-0.0015	0.0112	-0.0165	-0.0023	46.5
-0.0015	0.012	-0.0181	0	46.3
-0.003	0.0082	-0.0195	0.0007	46.2
-0.0015	0.0105	-0.0203	0.003	46.1
0.0007	0.0127	-0.0188	0.0045	45.9
0.003	0.0127	-0.0203	0.0045	45.8
0.0045	0.0127	-0.0233	0.0052	45.7
0.0022	0.012	-0.024	0.0075	45.5
0.0015	0.0135	-0.0233	0.0082	45.4
0.0015	0.015	-0.0195	0.0082	45.2
0.0015	0.0135	-0.0203	0.0067	45.1
0	0.012	-0.0195	0.0052	45
-0.0015	0.0105	-0.0181	0.0045	44.8
-0.0015	0.0082	-0.0195	0.0037	44.7
-0.0015	0.006	-0.0188	0.0015	44.5
-0.0008	0.0052	-0.0195	0.0015	44.4
-0.0008	0.0037	-0.0195	0.0015	44.2
0.0007	0.0067	-0.0173	0.0015	44.1
0.0007	0.0082	-0.015	0.0007	43.9
0.0007	0.0082	-0.012	0.003	43.8
-0.0008	0.009	-0.0098	0.0022	43.6
0.0007	0.0082	-0.0083	0.0022	43.5
0.0022	0.0082	-0.0075	0.003	43.3
0.0015	0.0082	-0.006	0.0015	43.1
0	0.0082	-0.0008	0.0015	43
-0.003	0.009	0.0052	0.0015	42.8
-0.0015	0.0105	0.0105	0.0007	42.7
-0.0008	0.0105	0.015	0.0007	42.5
-0.003	0.0075	0.015	0	42.3
-0.003	0.003	0.0135	-0.0015	42.2
-0.0015	0	0.0127	-0.0015	42
-0.0015	-0.0046	0.0105	-0.0008	41.8
-0.0015	-0.0068	0.0097	-0.0015	41.7
-0.0023	-0.0068	0.012	0.0007	41.5
-0.0015	-0.0083	0.0142	0	41.4
-0.0023	-0.0091	0.0142	-0.0008	41.2
-0.0015	-0.0091	0.0135	0.0007	41
-0.0008	-0.0083	0.0142	0.0007	40.8
-0.0015	-0.0083	0.0135	0.0007	40.7
-0.003	-0.0083	0.0127	0	40.5
-0.003	-0.0105	0.0157	0.0015	40.3
-0.0015	-0.012	0.018	0.0015	40.1
0.0007	-0.0105	0.0195	0.0007	40
0	-0.0075	0.0195	0.0007	39.8
-0.0008	-0.0053	0.0172	0.0007	39.6
-0.0015	-0.003	0.0157	0.0007	39.4
-0.0015	-0.0015	0.0157	0.0007	39.2
-0.0023	-0.003	0.0172	-0.0008	39.1
-0.003	-0.003	0.0165	0.0007	38.9
-0.0023	-0.0053	0.0157	0.0015	38.7
-0.003	-0.0135	0.018	0.003	38.5
-0.0046	-0.0256	0.0187	0.0022	38.3
-0.0038	-0.0308	0.0195	0.0022	38.2
-0.0015	-0.03	0.0202	0.0015	38
-0.0023	-0.0315	0.0187	0.0015	37.8
0	-0.0293	0.0172	0.0045	37.6
-0.0008	-0.024	0.0165	0.0052	37.4
-0.0015	-0.021	0.0157	0.0052	37.2
0	-0.0225	0.0165	0.0037	37.1
-0.0015	-0.0225	0.0165	0.0045	36.9
-0.0008	-0.0218	0.0157	0.003	36.7
-0.0015	-0.0181	0.0142	0.003	36.5
-0.0023	-0.0113	0.0112	0.0037	36.3
-0.0008	-0.0091	0.009	0.0015	36.1
0.0007	-0.003	0.009	0.0007	36
0.0015	0	0.009	0.0007	35.7
0.0007	0.0022	0.0067	0.0007	35.5
-0.0015	0.0052	0.0052	0.0015	35.4
-0.0023	0.0082	0.0045	0.0037	35.2
-0.0015	0.009	0.0037	0.0015	35
-0.0008	0.009	0.0022	0.0015	34.8
-0.0015	0.0142	-0.0008	0.0007	34.6
-0.0015	0.0142	-0.0023	0	34.4
-0.0023	0.0142	-0.0038	0.0007	34.2
-0.003	0.0127	-0.0038	0.0007	34.1
-0.003	0.0105	-0.0008	0.0015	33.8
-0.0015	0.0097	-0.0008	0.0007	33.7
-0.0008	0.0067	0.0007	0.0015	33.4
0.0007	0.0045	0.0022	0.0022	33.3
0.0007	0.003	0.0015	0.0022	33.1
-0.0008	0.0045	0.0015	0.0037	32.8
0	0.0052	0.0007	0.003	32.7
0	0.006	0	0.0022	32.4
-0.0015	0.006	-0.0015	0.003	32.2
-0.0015	0.0022	-0.003	0.0022	32
-0.0008	0.0045	0.0007	0.0015	31.8
0.0007	0.009	0.0015	0.0022	31.6
0.0015	0.009	0.0015	0.0022	31.4
0.0007	0.012	0.0007	0.0015	31.2
0.0007	0.0127	0.0007	0.003	31
0.0007	0.0105	0.0007	0.0037	30.8
-0.0008	0.009	-0.0015	0.0022	30.6
0.0015	0.0082	-0.0015	0.0015	30.4
0.003	0.009	-0.0023	0.0015	30.1
0.0022	0.0082	-0.0015	-0.0008	30
0.0007	0.0067	0	0.0007	29.7
-0.0008	0.0045	0.0007	-0.0008	29.6
-0.0008	0.0022	0.0007	-0.0008	29.3
-0.0008	-0.0008	-0.0008	0.0007	29.1
-0.0015	-0.003	0.0015	0.0007	28.9
0.0015	-0.0068	0.0022	0.0007	28.7
0.0007	-0.0053	0.0037	0.0007	28.4
0	-0.0046	0.0045	0.0015	28.2
-0.0008	-0.006	0.0045	0.0007	28
-0.0008	-0.0075	0.0045	-0.0008	27.8
-0.0008	-0.0083	0.0037	0.0015	27.5
0	-0.0083	0.0022	0.0015	27.3
0.0007	-0.0091	0.0015	0.0007	27.1
-0.0015	-0.0083	0.0007	0.0007	26.9
-0.0015	-0.0098	0.0022	0	26.7
-0.003	-0.0105	0.0022	0.0007	26.5
-0.003	-0.0091	0.0015	0.0007	26.2
-0.0015	-0.0091	0.0007	0.0015	26
-0.0008	-0.0068	0	0.0037	25.8
0.0007	-0.0046	0	0.0045	25.6
-0.0008	-0.0053	-0.003	0.0045	25.3
-0.0015	-0.0053	-0.0046	0.0037	25.1
-0.0038	-0.003	-0.0053	0.0015	24.8
-0.003	-0.0008	-0.003	0.003	24.7
-0.0015	-0.003	-0.0008	0.0037	24.4
-0.0053	-0.003	-0.0046	0.0015	24.2
-0.0083	-0.003	-0.0046	0.0015	24
-0.0068	-0.0015	-0.0053	0	23.8
-0.0015	0	-0.0068	0	23.5
-0.0008	-0.0015	-0.0046	0.0007	23.3
0.003	-0.003	-0.003	0.0015	23.1
0.0105	-0.0023	0	0	22.9
0.0157	-0.0015	0.0007	0.0007	22.6
0.0142	-0.0015	-0.0015	0.0015	22.4
0.0105	0.0007	-0.0015	0.0015	22.2
0.0082	0	-0.0046	0.0007	22
0.0045	-0.0068	-0.0038	0.0015	21.7
0.0015	-0.0158	-0.0046	0.0015	21.5
-0.0015	-0.0233	-0.0068	0.003	21.3
-0.003	-0.0263	-0.0083	0.0015	21.1
-0.0075	-0.0293	-0.0105	0.0015	20.8
-0.0128	-0.0323	-0.0091	0.0015	20.6
-0.0128	-0.033	-0.0105	0.0015	20.3
-0.0105	-0.0308	-0.0091	0.0015	20.2
-0.003	-0.0248	-0.0083	0.0015	19.9
0.003	-0.0225	-0.0075	0.0007	19.7
0.0045	-0.0181	-0.0038	0.0015	19.5
0.0045	-0.012	-0.0008	0.0015	19.2
0.0007	-0.0083	0	0.003	19
-0.0008	-0.003	0.0007	0.0022	18.8
-0.0008	-0.0015	0.0037	0.0022	18.5
-0.0038	-0.0023	0.0045	0.0007	18.3
-0.0046	0	0.003	-0.0008	18.1
-0.003	-0.0015	0.0045	0.0007	17.9
0	-0.0015	0.0045	0.0007	17.6
-0.0015	0.0007	0.003	0.003	17.4
-0.0023	0.003	0.0022	0.0037	17.2
-0.0023	0.0007	0.0045	0.0037	16.9
-0.0015	0	0.0075	0.0045	16.7
0.0007	0.003	0.0097	0.0015	16.5
0.0015	0.0045	0.012	0.0007	16.2
0.0015	0.0067	0.009	0	16
-0.0008	0.0105	0.0082	0.0007	15.7
-0.0008	0.009	0.0082	0.0022	15.6
-0.0015	0.0082	0.0067	0.0022	15.3
-0.0023	0.0105	0.0052	0.0015	15.1
-0.003	0.0097	0.006	0.0015	14.9
-0.0023	0.0082	0.0045	-0.0008	14.7
-0.0046	0.0112	0.0022	0	14.5
-0.0046	0.012	0.0015	0.0037	14.3
-0.0008	0.015	0.0007	0.0067	14
0.0007	0.0157	0.0007	0.012	13.8
0.003	0.0127	0	0.0165	13.6
0.0037	0.012	-0.0008	0.0127	13.4
0	0.0075	0	0.0015	13.2
0.0007	0.0052	-0.0008	-0.003	13
-0.0023	0.003	-0.0023	-0.003	12.7
-0.0008	0.0007	-0.006	-0.0046	12.5
0.0007	0	-0.0046	-0.0053	12.3
0.0007	-0.0008	-0.003	-0.0053	12.1
0.0015	-0.0008	-0.0053	-0.0053	11.9
-0.0015	0.0015	-0.0068	-0.0053	11.7
0.0007	0.0022	-0.0053	-0.0046	11.4
0	0	-0.0023	-0.0038	11.2
-0.0023	-0.0008	-0.0015	-0.0038	11
-0.0046	-0.003	0.0015	-0.0023	10.8
-0.006	-0.0008	0.003	0.0007	10.6
-0.003	0.0067	0.0052	0.0045	10.4
0	0.0105	0.0052	0.0045	10.2
0.0015	0.009	0.003	0.003	10
-0.0008	0.0045	0.003	0.003	9.8
-0.0015	0.0052	0.0022	0.0037	9.6
-0.0008	0.0067	0.0007	0.0022	9.4
-0.0023	0.0082	0.0015	0.0015	9.2
-0.0008	0.0067	0.0015	0.003	9
0.0007	0.003	0	0.0015	8.8
0.0022	0.0007	-0.0008	0.0022	8.6
0.003	-0.0008	-0.0008	0.0037	8.4
0.0015	-0.0008	-0.0008	0.0037	8.2
0.0015	0.0007	0.0007	0.0007	8
0	-0.003	-0.0015	-0.0046	7.8
-0.0015	-0.003	-0.003	-0.0075	7.6
-0.0053	0.0007	-0.0015	-0.0083	7.3
-0.0075	0.0022	-0.0015	-0.006	7.2
-0.012	0.0015	-0.0008	-0.0038	7
-0.012	-0.0008	0.0007	-0.0008	6.8
-0.0075	0.0007	0	0.0015	6.6
-0.0075	0.0052	0.0015	0.0045	6.4
-0.0023	0.0052	0.003	0.0075	6.2
0.006	0.0045	0.0045	0.0105	6
0.012	0.0007	0.0052	0.0112	5.8
0.0142	-0.0091	0.0052	0.0112	5.6
0.0142	-0.0256	0.0037	0.012	5.3
0.0135	-0.0353	0.0037	0.0075	5.2
0.0105	-0.0413	0.003	0.0037	5
0.0037	-0.0443	0.0015	0.0007	4.8
-0.0008	-0.0405	0.0007	-0.0023	4.6
-0.0046	-0.0383	-0.0015	-0.0046	4.4
-0.0128	-0.0338	-0.003	-0.0053	4.2
-0.0158	-0.0293	-0.003	-0.0053	4
-0.015	-0.021	-0.006	0	3.8
-0.0105	-0.0143	-0.0075	0.0052	3.6
-0.0068	-0.0105	-0.0068	0.0045	3.3
-0.006	-0.0068	-0.0046	0.0052	3.2
-0.0046	-0.0038	-0.0015	0.0052	3.1
-0.006	-0.0046	-0.0008	0.0052	3
-0.0046	-0.006	0.0015	0.006	2.9
-0.003	-0.0068	0.0052	0.0045	2.7
-0.003	-0.0091	0.0067	0.0015	2.6
-0.0015	-0.0091	0.0067	0.0015	2.5
-0.0038	-0.0068	0.006	-0.0015	2.4
-0.0015	-0.0083	0.0045	-0.006	2.2
-0.0008	-0.0083	0.0045	-0.0068	2.1
0.0015	-0.003	0.0045	-0.0068	2
0.0082	0.0015	0.006	-0.0053	1.8
0.0067	0.0022	0.0067	-0.0023	1.8
0.006	0.0105	0.0052	-0.0015	1.6
0.003	0.021	0.0052	0.0022	1.5
0.0015	0.024	0.0052	0.0105	1.3
0.0007	0.0292	0.006	0.0127	1.2
-0.0015	0.039	0.0052	0.009	1.1
-0.003	0.0262	0.0045	0.0037	1
-0.0053	0.0067	0.003	-0.0008	0.8
-0.0053	0.0052	0.0037	-0.003	0.8
-0.0053	0.0007	0.0037	-0.0046	0.7
-0.0091	-0.0008	0.0022	-0.003	0.6
-0.0053	0.0015	0.0045	-0.0015	0.6
-0.0008	-0.0008	0.0007	0.0015	0.5
0	-0.0053	-0.0015	0.0015	0.4
-0.0015	-0.0098	-0.0023	0.0015	0.4
-0.0008	-0.0023	-0.003	0.0015	0.3
0.0007	0.0082	-0.0068	-0.0008	0.2
-0.0008	0.0075	-0.0091	0.0015	0.1
-0.0023	0	-0.0091	0.0022	0.1
-0.0023	0.003	-0.0075	-0.0083	0
-0.0008	0.0135	-0.0046	-0.021	0
-0.0008	0.0202	-0.0038	-0.0338	-0.1
-0.0023	0.0195	-0.0015	-0.042	-0.2
-0.0008	0.0045	0.0007	-0.039	-0.3
0.0007	-0.0135	0.0007	-0.0383	-0.3
-0.0008	-0.0233	0.0007	-0.0188	-0.4
0	-0.021	0.003	0.0127	-0.5
0.003	-0.006	0.006	0.0442	-0.6
0.006	0.027	0.009	0.0682	-0.6
0.006	0.0577	0.0067	0.0802	-0.6
0.0067	0.069	0.0052	0.0787	-0.6
0.0075	0.0667	0.0052	0.048	-0.6
0.0052	0.03	0.0052	0.0345	-0.6
0.003	0.0045	0.0067	0.0315	-0.6
0.0045	0.0097	0.006	0.0045	-0.6
0.0075	-0.0083	0.006	-0.0091	-0.6
0.003	-0.0158	0.0052	-0.0173	-0.6
-0.0038	-0.0143	0.0007	-0.0165	-0.6
-0.0053	-0.0188	-0.0015	-0.0135	-0.6
-0.0053	-0.0143	-0.003	-0.0128	-0.6
-0.0046	-0.0128	-0.003	-0.0075	-0.6
0.0007	-0.012	-0.0038	-0.0098	-0.6
0.0052	-0.0165	-0.006	-0.0128	-0.6
0.0075	-0.0181	-0.006	-0.0165	-0.6
0.0067	-0.0203	-0.0068	-0.0158	-0.6
0.009	-0.0195	-0.003	-0.0143	-0.6
0.009	-0.0143	0.0007	-0.0128	-0.6
0.0052	-0.012	0.0022	-0.0091	-0.7
0.003	-0.0083	0.0022	-0.0098	-0.6
-0.0046	-0.0098	-0.0008	-0.0053	-0.6
-0.012	-0.012	0.0015	-0.0023	-0.5
-0.0128	-0.0173	-0.0015	-0.0015	-0.5
-0.0083	-0.0248	-0.0008	0.0037	-0.5
-0.0015	-0.0256	0.0075	0.012	-0.4
0.0045	-0.0256	0.009	0.0157	-0.4
0.0045	-0.0233	0.0052	0.024	-0.3
0	-0.0165	0.0007	0.036	-0.3
0	-0.0143	0.0015	0.0457	-0.2
0.0007	-0.0143	0.0015	0.0465	-0.2
-0.0015	-0.0128	0.0007	0.0217	-0.1
0.0015	-0.0091	0.0022	-0.0053	-0.1
0.0022	-0.0091	0.0015	-0.0203	0
0.0015	0.003	0.0007	-0.033	0
0.0015	0.0285	0.0007	-0.0368	0
-0.0008	0.024	0.0007	-0.0533	0.1
0	-0.0083	0.0007	-0.075	0.1
-0.0023	-0.027	0.0015	-0.0803	0.2
-0.0068	-0.0368	-0.0015	-0.0735	0.2
-0.0053	-0.0405	-0.0053	-0.06	0.3
-0.0046	-0.039	-0.0046	-0.0465	0.3
-0.0038	-0.0383	-0.0023	-0.021	0.4
-0.0008	-0.0203	0	0.0067	0.4
0	0.0007	0.0022	0.0367	0.4
0.0007	-0.0068	0.0052	0.0787	0.4
0.0067	-0.0143	0.0067	0.1305	0.5
0.0105	0.0202	0.0037	0.162	0.5
0.0067	0.0817	0	0.1515	0.6
0.0052	0.1215	-0.0023	0.132	0.6
0.0052	0.087	-0.0046	0.1087	0.7
-0.0046	0.0352	-0.0023	0.0697	0.7
-0.006	0.0457	0.0007	0.0345	0.8
-0.003	0.0405	0.0007	-0.0075	0.8
-0.0038	0.0247	-0.0008	-0.0256	0.9
-0.0053	0.0127	-0.0023	-0.0315	0.9
-0.0053	-0.0091	-0.003	-0.0413	0.9
-0.0046	-0.0135	-0.0015	-0.0511	0.9
-0.0046	-0.0368	-0.0023	-0.0653	1
-0.0038	-0.0503	-0.0046	-0.0608	1
-0.0053	-0.0578	-0.006	-0.0548	1.1
-0.0038	-0.0548	-0.0038	-0.048	1.2
-0.0008	-0.048	-0.0015	-0.039	1.2
-0.0023	-0.048	-0.0023	-0.0315	1.3
-0.003	-0.0315	-0.0008	-0.0068	1.3
-0.0046	-0.0308	0	0.0225	1.4
-0.0053	-0.0285	0.0015	0.0442	1.4
-0.0015	-0.0203	0.0015	0.0195	1.5
0.0015	-0.0218	-0.0023	-0.0338	1.6
0	-0.027	-0.0053	-0.0375	1.6
-0.0046	-0.0293	-0.0105	-0.0256	1.7
-0.0053	-0.0278	-0.0091	-0.0233	1.8
-0.0053	-0.0143	-0.0053	-0.0158	1.8
-0.003	-0.0008	-0.0046	-0.0015	1.8
-0.003	-0.003	-0.0038	0.0105	1.9
-0.003	0.0007	-0.006	0.0097	2
-0.003	0.0007	-0.003	0.0112	2
0	-0.0008	0.0022	0.0127	2.1
0.0045	0.0097	0.009	-0.0008	2.2
0.0052	0.0157	0.0142	-0.0165	2.2
0.0052	0.018	0.0127	-0.0173	2.2
0.003	0.0202	0.0105	-0.0075	2.2
-0.0015	0.0225	0.009	-0.0015	2.2
-0.0038	0.015	0.0105	-0.0068	2.2
-0.003	0.0067	0.012	-0.0091	2.3
0	0.009	0.015	-0.0075	2.3
0.0015	0.0097	0.0307	-0.012	2.3
-0.0023	0.0067	0.0547	-0.0091	2.3
-0.0068	0.0007	0.063	0.0067	2.3
-0.0068	0.0105	0.0412	0.0292	2.4
-0.012	0.018	0.0142	0.0495	2.4
-0.0165	0.0195	-0.003	0.0577	2.4
-0.0158	0.0217	-0.0181	0.0555	2.4
-0.015	0.0075	-0.024	0.0345	2.4
-0.0113	0.0045	-0.027	0.0127	2.4
-0.0098	0.0045	-0.0278	0.003	2.5
-0.003	0.0075	-0.0308	-0.0083	2.5
0.0105	0.0127	-0.033	-0.0173	2.5
0.0232	0.0082	-0.0233	-0.0233	2.5
0.027	0.0097	-0.0038	-0.0368	2.5
0.0277	0.0045	0.0075	-0.0405	2.4
0.0277	0.0015	0.009	-0.039	2.3
0.021	0.0105	0.0105	-0.0533	2.2
0.009	0.0195	0.0105	-0.0495	2.1
-0.0023	0.027	0.012	-0.0233	1.9
-0.0075	0.0292	0.015	0.0127	1.8
-0.0105	0.0217	0.0127	0.0315	1.7
-0.0143	0.0127	0.0082	0.0082	1.6
-0.0135	0.0105	0.009	0.0022	1.4
-0.0083	0.003	0.0165	0.0247	1.3
-0.0015	-0.003	0.0202	0.006	1.2
-0.0038	-0.0105	0.0165	-0.0293	1.1
-0.0105	-0.0181	0.0157	-0.024	0.9
-0.0083	-0.0128	0.0232	0.0067	0.9
-0.0008	-0.006	0.0292	0.0345	0.7
-0.0008	-0.0105	0.0262	0.0307	0.6
-0.0128	-0.0315	0.015	0.0015	0.4
-0.0188	-0.0458	0.0105	-0.0293	0.3
-0.0158	-0.0413	0.0105	-0.039	0.2
-0.0098	-0.039	0.0135	-0.045	0
-0.0053	-0.0346	0.018	-0.0503	0
-0.0015	-0.0285	0.0195	-0.033	0
0	-0.0315	0.0232	-0.012	0
0.0007	-0.0346	0.024	0.0255	0
0	-0.0353	0.0232	0.054	0
0.003	-0.0188	0.0262	0.0832	0
0.009	0.0517	0.027	0.114	0
0.012	0.1162	0.024	0.1192	0
0.0105	0.0855	0.018	0.1125	0
0.003	0.0337	0.0157	0.0877	0
-0.0015	0.0052	0.0105	0.0457	0
-0.0038	-0.0091	0.0075	-0.0008	0
-0.006	-0.0091	0.0052	-0.0195	0
-0.0083	-0.024	0.0015	-0.027	0
-0.006	-0.0181	0.0022	-0.0383	-0.1
-0.0046	-0.0375	0	-0.063	-0.1
-0.0068	-0.063	-0.003	-0.0803	-0.1
-0.0068	-0.0653	-0.0046	-0.063	-0.1
-0.0046	-0.063	-0.0053	-0.0503	-0.1
-0.003	-0.0473	-0.006	-0.0278	-0.2
0.0007	-0.054	-0.003	0.0082	-0.2
0.006	-0.027	-0.0015	0.0442	-0.2
0.0067	0.0052	-0.0105	0.0757	-0.2
0.0067	0.039	-0.0218	0.1125	-0.2
0.0052	0.0712	-0.0353	0.093	-0.2
0.0052	0.0292	-0.0518	0.0255	-0.2
0.0052	-0.0083	-0.0706	0.0082	-0.2
0.0052	-0.0233	-0.093	-0.0053	-0.2
0.0007	-0.0375	-0.1125	-0.0278	-0.2
-0.003	-0.0293	-0.129	-0.0233	-0.2
-0.0015	-0.0233	-0.1426	-0.03	-0.2
-0.003	-0.0181	-0.1523	-0.0361	-0.2
-0.0023	-0.0135	-0.1598	-0.0375	-0.2
-0.0023	-0.0083	-0.1665	-0.039	-0.2
-0.003	-0.0046	-0.162	-0.033	-0.2
-0.0008	-0.0015	-0.1485	-0.03	-0.2
-0.0008	0.0015	-0.1328	-0.024	-0.2
0.0007	0.0075	-0.111	-0.0173	-0.2
0.003	0.0112	-0.0848	-0.0188	-0.2
0.0045	0.0105	-0.0518	-0.0233	-0.2
0.0067	0.009	-0.0203	-0.0203	-0.2
0.0052	0.0075	0.0082	-0.0181	-0.3
0.0022	0.0052	0.0375	-0.0173	-0.4
-0.0008	0.0067	0.0562	-0.0053	-0.4
-0.0015	0.009	0.0712	0.0045	-0.5
-0.0015	0.0105	0.0802	0.009	-0.6
-0.0015	0.0142	0.1027	0.012	-0.6
-0.0015	0.0127	0.1305	0.0045	-0.7
-0.0015	0.0105	0.1357	-0.003	-0.8
-0.0053	0.0165	0.15	0.0075	-0.9
-0.0038	0.0217	0.1665	0.018	-0.9
-0.0008	0.027	0.1635	0.0195	-1
-0.0015	0.0255	0.159	0.024	-1.1
0.0007	0.0157	0.15	0.021	-1.1
0.0007	0.0127	0.141	0.003	-1.2
-0.0038	0.006	0.1365	-0.003	-1.3
-0.0053	0.0037	0.1252	-0.0008	-1.4
-0.0046	0.0067	0.1125	-0.0008	-1.4
-0.0015	0.012	0.093	-0.003	-1.5
0	0.012	0.093	-0.0091	-1.6
-0.0023	0.0045	0.1072	0.0045	-1.6
-0.0015	0.0045	0.108	0.027	-1.5
-0.0015	0.003	0.1012	0.0315	-1.5
-0.0015	-0.0046	0.0817	0.0247	-1.4
0.0015	-0.0015	0.0607	0.027	-1.4
0.0052	0.0105	0.0345	0.0375	-1.4
0.0045	0.0105	-0.0015	0.051	-1.3
0.003	0.009	-0.03	0.0367	-1.3
0.003	0.0075	-0.0585	0.009	-1.2
0.003	-0.003	-0.0795	-0.0083	-1.2
0.0022	-0.0068	-0.1095	-0.027	-1.1
-0.0008	-0.0053	-0.1441	-0.027	-1.1
-0.0015	0	-0.1635	-0.0165	-1
-0.003	0.0082	-0.1726	-0.0068	-1
-0.003	-0.0015	-0.1711	0.0007	-0.9
-0.0023	-0.006	-0.1696	0.0015	-0.9
-0.0015	-0.0143	-0.1628	-0.0015	-0.9
0.0007	-0.0308	-0.1553	-0.0053	-0.8
0.0007	-0.033	-0.1448	-0.012	-0.8
0.0022	-0.0346	-0.1305	-0.0105	-0.7
0.0015	-0.0105	-0.1088	-0.0083	-0.7
0.0037	0.0277	-0.075	-0.0008	-0.7
0.0052	0.0622	-0.0353	0.0082	-0.8
0.0015	0.0937	-0.0038	0.0052	-0.8
-0.0008	0.0487	0.0232	0.0007	-0.9
-0.003	-0.0038	0.048	0.0007	-0.9
-0.003	-0.0083	0.0742	0.0015	-0.9
-0.0023	-0.027	0.1027	0	-0.9
-0.0023	-0.021	0.1297	-0.0015	-0.9
-0.0008	-0.0203	0.1575	-0.0008	-1
-0.0008	-0.0248	0.1777	-0.003	-1
0.0007	-0.0218	0.189	-0.0038	-1
0.0007	-0.0256	0.1927	-0.003	-1.1
0	-0.0195	0.1882	-0.0023	-1.1
0.0007	-0.0188	0.177	-0.0053	-1.2
0.003	-0.015	0.1597	-0.0105	-1.2
0.0007	-0.0158	0.1372	-0.0105	-1.2
-0.0008	-0.0143	0.1125	-0.006	-1.3
-0.0015	-0.015	0.0862	-0.0015	-1.3
-0.0023	-0.012	0.063	0.0037	-1.4
-0.0015	-0.006	0.042	0.0045	-1.4
-0.003	-0.0068	0.027	-0.0053	-1.4
-0.0046	-0.0083	0.0142	-0.0158	-1.5
-0.0046	-0.0218	0.0022	-0.0091	-1.5
-0.003	-0.0338	-0.0053	0.006	-1.6
-0.0015	-0.0368	-0.0143	0.0255	-1.7
-0.0008	-0.0383	-0.027	0.0315	-1.7
-0.0038	-0.0405	-0.0368	0.0217	-1.8
-0.0053	-0.0405	-0.042	0.0052	-1.8
-0.003	-0.0368	-0.054	-0.0015	-1.9
-0.0015	-0.033	-0.0713	-0.006	-1.9
-0.0023	-0.0278	-0.09	-0.0188	-2
-0.0038	-0.0225	-0.1013	-0.033	-2.1
-0.0046	-0.0158	-0.1035	-0.0398	-2.1
-0.003	-0.012	-0.1006	-0.0323	-2.2
-0.003	-0.0083	-0.096	-0.0181	-2.3
-0.0038	-0.0053	-0.0945	-0.0046	-2.3
-0.006	0.0007	-0.09	0.0112	-2.3
-0.0046	0.0052	-0.0871	0.0247	-2.4
0	0.0097	-0.0871	0.0307	-2.5
0.0007	0.0142	-0.0878	0.0405	-2.5
0.0022	0.0135	-0.0893	0.0645	-2.6
0.0007	0.0187	-0.0893	0.0742	-2.7
0	0.0225	-0.084	0.0435	-2.7
-0.0008	0.0195	-0.0788	0.0045	-2.7
-0.0015	0.018	-0.0773	-0.0098	-2.8
-0.0023	0.0165	-0.0728	-0.0181	-2.9
-0.0038	0.0157	-0.066	-0.0195	-2.9
-0.0046	0.0172	-0.0615	-0.0165	-3
-0.003	0.0202	-0.057	-0.0165	-3.1
-0.0008	0.0217	-0.0525	-0.012	-3.1
-0.003	0.021	-0.0473	-0.0083	-3.2
-0.003	0.0187	-0.0398	-0.003	-3.2
0	0.018	-0.0323	0.0037	-3.2
0.0007	0.0165	-0.0263	0.0067	-3.3
0.0007	0.0165	-0.0195	0.0015	-3.4
-0.0008	0.0157	-0.0128	-0.0038	-3.4
-0.0008	0.015	-0.006	-0.0105	-3.5
0.0007	0.0172	-0.0015	-0.012	-3.6
0	0.0157	0.0007	-0.0083	-3.6
-0.0008	0.009	0.0052	0.003	-3.6
-0.0008	0.0052	0.0097	0.0202	-3.6
0.0015	0.0052	0.0135	0.0202	-3.6
0.0007	0.0067	0.0165	0.0135	-3.6
0.0007	0.0052	0.021	0.0015	-3.6
0.0015	-0.0015	0.0217	-0.0053	-3.6
-0.0008	-0.003	0.0232	-0.0075	-3.6
-0.0008	-0.0008	0.0232	-0.0105	-3.6
0	-0.0038	0.0232	-0.0135	-3.6
0.0022	-0.0053	0.0247	-0.0181	-3.6
0.0045	-0.0075	0.024	-0.0203	-3.6
0.003	-0.0105	0.0232	-0.0158	-3.6
0	-0.0075	0.0247	-0.0015	-3.6
0.0007	-0.006	0.0232	0.0052	-3.6
-0.0008	-0.0023	0.024	0.0082	-3.6
-0.003	-0.0008	0.0247	0.012	-3.6
-0.0023	-0.0008	0.0255	0.0127	-3.6
-0.003	-0.0015	0.0255	0.0142	-3.6
-0.0015	-0.0008	0.0255	0.012	-3.6
-0.0008	0.0007	0.0225	0.012	-3.6
-0.0008	0.003	0.0202	0.0097	-3.6
0.0022	0.0015	0.0225	0.009	-3.6
0.003	-0.0008	0.0217	0.0082	-3.6
0.0045	-0.0008	0.0202	0.0045	-3.6
0.0022	-0.003	0.0195	0.0037	-3.6
0.0015	-0.003	0.018	0.0082	-3.6
0.003	-0.0053	0.018	0.009	-3.6
0.0007	-0.0091	0.0157	0.0067	-3.6
0.0015	-0.0083	0.0142	0.0045	-3.6
0.0022	-0.012	0.0157	0.0015	-3.6
0	-0.0105	0.015	0.003	-3.6
-0.0008	-0.006	0.015	0.0037	-3.6
-0.0008	-0.0053	0.015	0.0015	-3.6
0	-0.0038	0.0142	-0.0015	-3.6
-0.0008	-0.006	0.0127	0.0022	-3.6
-0.003	-0.0046	0.012	0.0007	-3.6
-0.0046	-0.0053	0.0127	-0.003	-3.6
-0.003	-0.0053	0.0127	0.0007	-3.6
-0.0008	-0.0046	0.0142	-0.0008	-3.6
0	-0.0083	0.0142	-0.0038	-3.6
-0.0008	-0.0083	0.0142	-0.0008	-3.6
0.0007	-0.0098	0.0135	0.0052	-3.6
-0.0015	-0.0128	0.0105	0.0052	-3.6
-0.0015	-0.015	0.0105	-0.003	-3.6
0.0015	-0.0158	0.0082	-0.0083	-3.6
0.0007	-0.0165	0.009	-0.0075	-3.6
-0.0015	-0.0135	0.0082	-0.0068	-3.6
-0.0015	-0.0068	0.0067	-0.003	-3.6
-0.003	-0.0075	0.0075	0.0007	-3.6
-0.0046	-0.0038	0.006	0.0007	-3.6
-0.0046	0.015	0.0067	0.0022	-3.6
-0.0053	0.0255	0.006	0.003	-3.6
-0.0046	0.027	0.0067	0.0045	-3.6
-0.0038	0.0315	0.0067	0.0022	-3.6
-0.0038	0.0195	0.0045	-0.0015	-3.6
-0.0038	0.012	0.0052	-0.0008	-3.6
-0.003	0.0075	0.003	-0.0015	-3.7
-0.0015	-0.006	0.0007	-0.003	-3.7
0.0007	-0.0023	0.0015	-0.0015	-3.7
0	-0.0068	0.0037	-0.0008	-3.7
0	-0.0053	0.0045	-0.0008	-3.7
0	-0.0053	0.0045	0	-3.7
0	-0.0083	0.0045	0.0007	-3.7
-0.0015	-0.0053	0.0045	0.0007	-3.7
-0.0015	-0.0068	0.003	0.0022	-3.7
0	-0.003	0.0052	0.0015	-3.7
0.0022	-0.0068	0.006	0.0007	-3.7
0.0015	-0.0091	0.0045	-0.0015	-3.7
0.0007	-0.0158	0.0045	-0.0038	-3.7
0.0007	-0.0233	0.0045	-0.0038	-3.8
0	-0.0256	0.003	-0.0068	-3.8
0.0007	-0.0233	0.0037	-0.0038	-3.8
0.0007	-0.0158	0.003	0.0022	-3.8
0.0007	-0.0135	0.0052	0.0105	-3.8
0.0007	-0.0128	0.006	0.018	-3.8
0.0007	-0.0098	0.0045	0.012	-3.8
0.0007	-0.0038	0.006	-0.0068	-3.8
0.0007	0.0157	0.0037	-0.012	-3.8
-0.0008	0.0255	0.0007	-0.0105	-3.8
0	0.012	0.0007	-0.0046	-3.9
-0.0008	0.0082	0.0007	0.0082	-3.9
-0.0008	-0.0105	0	0.0127	-3.9
0.0007	-0.0293	-0.0008	0.0127	-3.9
-0.0008	-0.0285	-0.003	0.0142	-3.9
0.0007	-0.0361	-0.0015	0.0105	-3.9
-0.0008	-0.033	-0.0008	0	-3.9
-0.0008	-0.0346	0.0007	0.0007	-3.9
-0.0015	-0.0293	0.0007	0	-3.9
-0.003	-0.0293	-0.0008	-0.0038	-3.9
0.0007	-0.0323	0.0007	-0.0046	-3.9
-0.0015	-0.0218	-0.003	-0.0038	-3.9
-0.0038	-0.0173	-0.0008	-0.003	-3.9
-0.0015	-0.0128	0.0007	-0.0091	-3.9
-0.0008	-0.0091	0.0015	-0.0098	-3.9
0	-0.0075	0.0015	-0.0105	-3.9
-0.003	-0.0046	0.0007	-0.006	-3.9
-0.003	0.012	0.0037	-0.0015	-3.9
-0.003	0.0367	0.0067	-0.0053	-3.9
-0.0015	0.0315	0.0067	-0.015	-3.9
-0.0023	-0.0008	0.0052	-0.0218	-3.9
-0.0038	-0.0023	0.0052	-0.0218	-3.9
-0.0038	0.0127	0.003	-0.0165	-3.9
-0.003	0.0165	0.0015	-0.015	-3.9
-0.003	0.0082	0.0015	-0.0188	-3.9
-0.003	0.0255	0.003	-0.0256	-3.8
-0.0015	0.0517	0.0015	-0.0233	-3.8
-0.0046	0.033	-0.0023	0.0015	-3.8
-0.0053	0.0217	-0.003	0.0277	-3.8
-0.0046	0.0127	-0.0023	0.0412	-3.8
-0.003	0.0045	-0.0046	0.0277	-3.7
-0.0015	0.012	-0.0053	0.0007	-3.7
-0.0023	0.0195	-0.0046	-0.015	-3.7
-0.0008	0.012	-0.003	-0.0181	-3.7
0.0007	0.0007	-0.0038	-0.0083	-3.7
0.0015	0.0045	-0.0038	0.0015	-3.7
0.003	-0.0008	-0.0023	0.0097	-3.6
0.0015	-0.0008	-0.0015	0.0157	-3.6
0	-0.003	-0.0008	0.0285	-3.6
-0.0008	-0.0046	-0.0023	0.0382	-3.6
0.0015	-0.0038	-0.0015	0.0427	-3.6
0.0015	-0.0053	-0.0008	0.045	-3.6
0.0015	-0.0091	0.0007	0.042	-3.6
0.0022	-0.0158	-0.0008	0.0427	-3.6
-0.0015	-0.0158	-0.0015	0.042	-3.6
-0.0008	-0.0263	-0.0008	0.0412	-3.6
0.0015	-0.0308	-0.0008	0.0322	-3.6
0.0007	-0.0105	0	0.0037	-3.6
0.0007	0.0015	0	-0.0308	-3.6
0.0007	-0.0188	0.0015	-0.0413	-3.6
-0.0008	-0.033	0.0015	-0.054	-3.6
-0.0023	-0.0278	-0.0015	-0.0691	-3.6
-0.0046	-0.0128	-0.0015	-0.0518	-3.6
-0.0008	0.0015	-0.0008	-0.0053	-3.6
0.0015	0.0262	0	0.0577	-3.6
0.0007	0.0495	0	0.12	-3.6
0.0015	0.0255	-0.0015	0.1477	-3.6
0	-0.0015	-0.0008	0.1492	-3.6
0.0007	0.0157	-0.0008	0.1672	-3.6
0.003	0.0802	0	0.1507	-3.6
0.003	0.0825	0.0007	0.1162	-3.6
0.0052	0.0075	0	0.081	-3.6
0.0067	-0.0105	-0.0008	0.0052	-3.6
0.0052	-0.0225	-0.003	-0.0555	-3.6
0.003	-0.0361	-0.0015	-0.0638	-3.6
0.0015	-0.0285	-0.0023	-0.057	-3.5
-0.0023	-0.015	-0.0015	-0.048	-3.5
-0.0046	-0.003	-0.003	-0.0428	-3.5
-0.0053	-0.0128	-0.003	-0.0428	-3.5
-0.0046	-0.0046	-0.0008	-0.0398	-3.5
-0.003	-0.0075	0	-0.042	-3.5
-0.0015	-0.0105	0.0022	-0.0405	-3.5
-0.0015	-0.0083	0.0037	-0.0443	-3.5
-0.0015	-0.0098	0.0015	-0.0458	-3.5
-0.0008	-0.0068	0.0007	-0.0428	-3.5
0	-0.0105	0.003	-0.0413	-3.5
0.0007	-0.0053	0.0037	-0.0398	-3.5
0.003	-0.0075	0.0022	-0.0383	-3.5
0.0037	-0.0068	0.003	-0.0353	-3.5
0.0015	-0.0075	0.0022	-0.0346	-3.5
-0.003	-0.0075	0.003	-0.0293	-3.5
-0.006	-0.0105	0.0045	-0.0256	-3.5
-0.0068	-0.0203	0.0022	-0.0233	-3.5
-0.0053	-0.0218	0.0022	-0.0203	-3.5
-0.0038	-0.027	0.003	-0.0158	-3.5
-0.006	-0.03	0.0037	-0.0135	-3.5
-0.0046	-0.0353	0.0022	-0.0105	-3.5
-0.0046	-0.0338	0.0007	-0.0053	-3.5
-0.003	-0.027	0.0015	-0.0083	-3.5
-0.0023	-0.0203	0	-0.006	-3.5
-0.003	-0.0203	-0.0015	-0.0083	-3.5
-0.0015	-0.0293	-0.0015	-0.0098	-3.5
-0.0015	-0.0165	-0.0008	-0.0083	-3.5
-0.0023	0.009	-0.0008	-0.0053	-3.6
-0.003	0.0457	-0.0008	0.009	-3.6
-0.003	0.0547	-0.0008	0.0277	-3.6
-0.0015	0.0202	0	0.0292	-3.6
-0.0023	0.0075	0.0015	0.0142	-3.6
-0.0038	0.0007	0.0007	0.0015	-3.6
-0.0038	-0.0053	0.0007	0.0007	-3.6
-0.0015	0.003	0.0037	0.0007	-3.6
0.0007	0.0127	0.0037	0.0015	-3.6
0.0015	0.0217	0.003	0.0052	-3.6
0.0015	0.006	0.0052	0.003	-3.6
0.0015	0.0015	0.0045	-0.003	-3.6
0.0007	0.0007	0.003	-0.0046	-3.6
0.0015	-0.0046	0.003	-0.0008	-3.6
0.003	-0.003	0.0007	0.0037	-3.6
0.0015	-0.0091	0	0.0045	-3.6
0.0015	-0.0075	0.0007	0.0075	-3.6
0.0007	-0.0053	0.0015	0.0112	-3.6
0.0015	0.0082	0.0015	0.0022	-3.6
0.0015	0.0195	0.0022	-0.0105	-3.6
0.0007	0.0082	0.0022	-0.0173	-3.6
-0.0015	-0.0053	0.003	-0.0158	-3.6
-0.003	-0.0098	0.003	-0.0128	-3.6
-0.003	-0.0143	0.0007	-0.0053	-3.6
-0.0046	-0.0113	0.0015	0.009	-3.6
-0.0008	-0.0068	0.0015	0.0157	-3.6
0	-0.0068	0.0015	0.009	-3.6
-0.0008	-0.0068	0.0015	-0.0038	-3.6
0.0007	-0.0075	0.0015	-0.0128	-3.6
0.003	0.0007	0.0007	-0.0158	-3.6
0.003	0.0382	0.0015	-0.012	-3.6
-0.0015	0.0562	0.0015	-0.0098	-3.6
-0.0023	0.03	0.0007	-0.0008	-3.6
-0.0015	0.0442	0.0022	0.0195	-3.6
-0.0008	0.0427	0.0022	0.018	-3.6
-0.003	0.0052	0.0015	0.0082	-3.6
-0.0046	-0.0015	0.003	0.0127	-3.6
-0.0015	-0.0083	0.0037	0.024	-3.6
-0.0015	-0.0068	0.0022	0.0412	-3.6
0	-0.006	0.003	0.045	-3.6
0.0007	-0.0091	0.0052	0.0172	-3.5
-0.0008	-0.012	0.0045	-0.012	-3.5
-0.0008	-0.0203	0.0052	-0.0128	-3.5
0	-0.0158	0.0052	0.0022	-3.5
-0.0008	-0.0158	0.0022	0.006	-3.5
-0.0023	-0.0143	0.0007	0.0037	-3.5
-0.0023	-0.0128	-0.0008	0	-3.5
-0.0023	-0.012	0	-0.0015	-3.5
-0.0046	-0.0091	-0.0015	-0.0046	-3.5
-0.006	-0.0068	-0.0015	-0.0068	-3.5
-0.0053	0.0015	-0.0015	-0.0023	-3.5
-0.0046	0.0015	-0.0015	-0.0015	-3.4
-0.003	-0.0008	-0.0023	-0.0008	-3.4
-0.003	-0.0008	-0.003	-0.0015	-3.4
0.0007	-0.003	-0.003	-0.0023	-3.4
0.0015	-0.0046	-0.0023	-0.0023	-3.4
-0.0015	-0.003	-0.0023	-0.003	-3.4
-0.0008	-0.003	-0.0023	-0.0023	-3.4
0	-0.003	-0.0008	-0.0008	-3.4
0.0015	-0.003	-0.0008	0.0007	-3.4
0.0022	-0.0038	-0.0023	-0.0008	-3.4
0.0015	-0.0008	-0.003	0.0015	-3.4
0.0007	-0.0046	-0.0046	0.003	-3.4
0.0007	-0.0053	-0.003	0.003	-3.4
0.0007	-0.0046	-0.003	0.0022	-3.3
-0.0008	-0.006	-0.0046	0.003	-3.3
-0.0008	-0.0046	-0.0053	0.003	-3.3
0.0015	-0.0053	-0.0053	0.0045	-3.3
0	-0.0038	-0.003	0.0067	-3.3
-0.0008	-0.0015	-0.0046	0.009	-3.3
-0.0008	-0.003	-0.006	0.009	-3.3
-0.003	0.0007	-0.0046	0.009	-3.3
-0.0023	0.003	-0.003	0.0075	-3.3
-0.0008	0.003	-0.0015	0.0052	-3.2
-0.0008	0.0022	-0.0015	0.0052	-3.2
-0.0015	-0.0015	0	0.0045	-3.2
-0.0008	-0.0083	0.0015	0.0015	-3.2
-0.0015	-0.0158	0.0022	-0.0008	-3.2
-0.003	-0.0188	0.0037	-0.0023	-3.2
-0.0015	-0.0181	0.0045	-0.003	-3.2
-0.0015	-0.0203	0.0037	-0.0023	-3.2
-0.0015	-0.0181	0.003	-0.0008	-3.2
-0.0038	-0.015	0.0045	-0.0015	-3.2
-0.0038	-0.0128	0.003	-0.0008	-3.2
-0.0023	-0.0091	0.003	-0.0015	-3.2
-0.0008	-0.0068	0.0022	-0.003	-3.1
-0.0008	-0.0053	0.0015	-0.0038	-3.1
-0.0008	-0.003	0.0007	-0.0053	-3.1
0.0007	-0.0008	0.0007	-0.0046	-3.1
0.0007	-0.0008	0.0007	-0.0053	-3.1
-0.0008	-0.0015	-0.0015	-0.0046	-3.1
-0.003	-0.0015	0	-0.003	-3.1
-0.003	0	0.0007	-0.0038	-3.1
-0.003	0.0007	-0.0008	-0.0015	-3.1
-0.003	-0.0008	0.0007	-0.0015	-3.1
0	0.0007	0	0.0007	-3.1
0.0007	0.0007	-0.0015	0.0015	-3.1
0	0.0015	-0.0015	0.0015	-3
0.0015	0.003	-0.0015	0.0015	-3
0.0007	0.0045	-0.0015	0.0022	-3
0.0007	0.0052	-0.0023	0.0007	-3
0.0007	0.0045	-0.0015	0.0007	-3
0.0007	0.0037	0	0.0007	-3
-0.0008	0.0022	0.0015	-0.0008	-3
0	0	0.0015	0	-3
0.0015	-0.003	0.0045	-0.0008	-3
0.0007	-0.0053	0.0075	0	-3
0.0015	-0.0068	0.0082	0.0015	-3
0.0007	-0.0075	0.0082	0.003	-3
0.0007	0.0075	0.009	0.0045	-2.9
0.0007	0.0217	0.0105	0.0052	-2.9
-0.0008	0.0052	0.0075	0.0037	-2.9
0	-0.006	0.0045	0.003	-2.9
-0.0008	-0.003	0.0022	0.0022	-2.9
-0.0008	-0.0083	0.0007	0.0022	-2.9
-0.0008	-0.0068	0.0007	0.0045	-2.9
-0.0023	-0.0046	0.0007	0.0037	-2.8
-0.0023	0.0007	0.0007	0.0037	-2.8
-0.0038	0.0045	0.0045	0.0037	-2.8
-0.0038	0.003	0.0037	0.0045	-2.8
-0.003	0.0015	0.0037	0.003	-2.8
-0.0008	-0.0008	0.003	0.003	-2.8
0	-0.0046	0.0045	0.0045	-2.7
-0.0015	-0.0068	0.0045	0.0045	-2.7
-0.0023	-0.0075	0.0015	0.0045	-2.7
-0.0023	-0.0105	0.0022	0.0022	-2.7
-0.0015	-0.0068	0.0007	0.003	-2.7
-0.0008	-0.0008	-0.0008	0.0037	-2.7
0.0007	0	-0.0008	0.0007	-2.7
0.0015	-0.003	-0.0008	-0.0008	-2.7
0.0007	-0.006	0.0015	-0.0015	-2.7
0	-0.0053	0.0007	-0.003	-2.7
-0.0008	-0.006	0.0022	-0.0053	-2.6
-0.0015	-0.0023	0.0022	-0.0053	-2.6
-0.003	-0.0008	0.003	-0.0046	-2.6
-0.006	-0.0008	0.003	-0.0046	-2.6
-0.0068	0.0052	0.0007	-0.003	-2.6
-0.0038	0.0217	0.0015	0.0037	-2.6
-0.0008	0.033	0.0007	0.0067	-2.6
-0.0008	0.015	0.0015	0.0007	-2.5
0.0007	0.0022	0.0022	-0.0038	-2.5
0.0007	0.0022	0.0007	-0.0083	-2.5
-0.0008	0.0015	-0.0008	-0.0091	-2.5
-0.0015	0.0082	0.0007	-0.003	-2.5
-0.003	0.003	0.0045	0	-2.5
-0.0008	-0.0008	0.0045	0.006	-2.5
-0.0015	0.006	0.0022	0.0195	-2.4
-0.0038	0.006	0.0007	0.0255	-2.4
-0.003	-0.0015	-0.0023	0.012	-2.4
-0.0008	-0.0023	-0.0053	0.0022	-2.4
0.0007	0.0007	-0.003	0.0015	-2.4
-0.0008	-0.0008	-0.0046	-0.0008	-2.4
-0.0023	-0.0008	-0.0068	-0.0008	-2.4
0	-0.0008	-0.0053	-0.0023	-2.3
-0.0008	-0.0008	-0.0053	-0.0008	-2.3
0	-0.0008	-0.0068	-0.0008	-2.3
-0.0008	-0.0008	-0.0053	-0.0008	-2.3
0	0	-0.0046	-0.0015	-2.3
0.0007	-0.0015	-0.0053	-0.003	-2.3
0	-0.003	-0.0038	0	-2.3
0.0037	-0.0068	-0.0038	-0.0015	-2.3
0.0045	-0.0091	-0.0053	-0.003	-2.3
0.0045	-0.0091	-0.0046	-0.0015	-2.3
0.0067	-0.0068	-0.003	-0.0015	-2.3
0.0075	-0.0053	-0.003	-0.0015	-2.3
0.0067	-0.0068	-0.003	-0.003	-2.2
0.0052	-0.0091	-0.0023	-0.0008	-2.2
0.003	-0.0181	-0.0015	-0.0015	-2.2
0.0022	-0.0218	-0.0008	0	-2.2
0	-0.0218	0.0007	0.0015	-2.2
0	-0.024	0.0015	0.003	-2.2
0.0007	-0.0203	0.0007	0.003	-2.2
0	-0.0188	-0.0015	0.003	-2.1
-0.0008	-0.0165	0	0.0015	-2.1
-0.0023	-0.0158	0.0007	0.003	-2.1
-0.0053	-0.0165	0.003	0.0045	-2.1
-0.006	-0.0173	0.0045	0.0045	-2.1
-0.003	-0.0158	0.0015	0.0082	-2.1
-0.0008	-0.0128	0.0022	0.012	-2.1
-0.0008	-0.012	0.003	0.009	-2
0	-0.0113	0.003	0.003	-2
0	-0.0128	0.003	0.003	-2
0	-0.0135	0.0022	0.0022	-2
-0.0015	-0.012	0.0015	0.0007	-2
-0.003	-0.0053	0.0007	0.003	-2
-0.0015	0.0015	0.0022	0.0067	-2
-0.0008	0.003	0.0022	0.0045	-1.9
0.0007	0.012	0.0015	0.0067	-1.9
-0.0015	0.0292	0.0037	0.024	-1.9
-0.0015	0.036	0.0067	0.042	-1.9
-0.0038	0.012	0.0052	0.033	-1.9
-0.0046	0.0015	0.0045	0.0165	-1.9
-0.003	0.0045	0.003	0.0097	-1.8
-0.003	0.0022	0.003	0.0015	-1.8
-0.0046	0.0067	0.0052	-0.0015	-1.8
-0.0068	0.0045	0.0052	-0.0143	-1.8
-0.0046	0.0022	0.006	-0.0203	-1.8
-0.003	-0.0038	0.0045	-0.012	-1.8
-0.0046	-0.0046	0.0045	-0.0046	-1.8
-0.003	-0.003	0.003	0.0007	-1.8
-0.0015	-0.0038	-0.0008	0.0007	-1.7
-0.0015	-0.0008	0.0007	0.0052	-1.7
-0.0015	-0.0053	-0.0008	0.0105	-1.7
-0.003	-0.0068	-0.0008	0.0097	-1.7
-0.003	0.0007	0	0.0075	-1.7
-0.003	0.0052	0	0.003	-1.7
-0.003	0.0045	0.0015	0.0022	-1.6
-0.0023	0.0195	-0.0008	0.003	-1.6
-0.0015	0.0277	0.0007	0.0015	-1.6
-0.0015	0.0082	0.0007	-0.0023	-1.6
0.0007	0.006	-0.0008	-0.0068	-1.6
0.0022	0.0015	-0.0015	-0.0038	-1.6
-0.0023	-0.0038	-0.003	0.0052	-1.5
-0.003	-0.0008	-0.0038	0.0142	-1.5
-0.0008	-0.0075	-0.0046	0.0142	-1.5
-0.003	-0.0015	-0.0046	0.0067	-1.5
-0.0038	0.003	-0.0015	-0.0068	-1.5
-0.0015	0.003	0.003	-0.0143	-1.5
-0.0008	0.003	0.003	-0.012	-1.5
0	0.0097	0.0015	-0.0105	-1.4
-0.0008	0.0157	0.0015	-0.0098	-1.4
0.0007	0.0037	0	-0.0008	-1.4
0.003	0.0052	0.0007	0.0172	-1.4
0.0037	0.0112	0.0015	0.0277	-1.4
0.0045	0.0075	0.0015	0.0165	-1.4
0.0015	-0.003	0.0052	-0.0015	-1.4
0.003	-0.012	0.0037	-0.0083	-1.4
0.0015	-0.0091	0.0037	-0.0046	-1.4
0.0022	-0.0075	0.0045	-0.0015	-1.4
0.0045	-0.0068	0.003	0.0015	-1.3
0.003	-0.0075	0.0045	0.0067	-1.3
0.0037	-0.0053	0.003	0.012	-1.3
0.0015	0.0052	0.0037	0.0217	-1.3
0.003	0.0195	0.0045	0.0292	-1.3
0.0045	0.0157	0.0015	0.0202	-1.3
0.003	-0.0083	0.0022	0.0067	-1.2
0.003	-0.012	0.003	-0.0008	-1.2
0.0007	-0.012	0.0015	-0.0046	-1.2
-0.0008	-0.012	0	-0.0083	-1.2
-0.003	-0.0091	-0.0008	-0.0143	-1.2
-0.0053	-0.0113	0.0007	-0.0158	-1.1
-0.0046	-0.0091	0.0015	-0.0165	-1.1
-0.003	-0.0091	0.0037	-0.0203	-1.1
-0.0015	-0.006	0.003	-0.021	-1.1
-0.0008	-0.0075	0.0015	-0.0195	-1.1
0.0007	-0.0105	0.0015	-0.015	-1.1
-0.0008	-0.0113	0.0015	-0.0113	-1
-0.0015	-0.0135	0	-0.0203	-1
-0.0023	-0.0158	-0.003	-0.0548	-1
-0.0023	-0.0181	-0.0008	-0.0608	-1
-0.0008	-0.0203	0.0015	-0.039	-1
-0.0015	-0.0128	0.0007	-0.0181	-0.9
-0.0023	0.003	-0.0008	0.0165	-0.9
-0.003	0.012	-0.0023	0.0405	-0.9
-0.0046	0.0015	-0.0038	0.0555	-0.9
-0.0046	-0.012	-0.0038	0.0727	-0.9
-0.0023	0.0067	-0.0023	0.1027	-0.9
-0.0015	0.036	0	0.1275	-0.9
-0.0023	0.027	0.0015	0.0892	-0.9
-0.0015	-0.0015	0.0037	0.021	-0.8
-0.0008	0.027	0.0052	-0.0188	-0.8
-0.0015	0.066	0.006	-0.0248	-0.8
-0.0046	0.0465	0.0052	-0.0428	-0.8
-0.0053	0.0082	0.0045	-0.0728	-0.8
-0.0105	-0.0053	0.003	-0.075	-0.7
-0.0158	-0.0091	0.003	-0.0668	-0.7
-0.012	-0.0158	0.0007	-0.048	-0.7
-0.0046	-0.0188	0.0022	-0.0233	-0.7
0.0007	-0.0233	0.0022	0	-0.6
0.0037	-0.0203	0.0015	0.0195	-0.6
0.0067	-0.0195	0.0022	0.0427	-0.6
0.0105	-0.0181	0.0015	0.0667	-0.6
0.0105	-0.0128	0.0015	0.0795	-0.5
0.0127	-0.0143	0.0015	0.0727	-0.5
0.009	-0.0143	0	0.0345	-0.5
0.0052	-0.0105	-0.0008	0.003	-0.5
0	-0.0053	-0.0008	0.012	-0.5
-0.0053	-0.0046	0.0007	0.0015	-0.4
-0.0068	-0.006	0.0015	-0.0135	-0.4
-0.0113	-0.0075	0.0022	-0.0218	-0.4
-0.0091	-0.0046	0.0015	-0.0346	-0.4
-0.0053	0	0.0045	-0.0375	-0.3
-0.003	0.0045	0.0045	-0.0578	-0.3
-0.0008	0.0052	0.0045	-0.0825	-0.3
-0.0008	0.0007	0.003	-0.0915	-0.3
0.003	-0.0046	0.0015	-0.0788	-0.2
0.0045	-0.0023	0.0007	-0.048	-0.2
0.003	-0.0046	-0.0008	-0.0068	-0.2
0.003	-0.0165	-0.0015	0.0337	-0.1
0.0022	-0.0248	-0.0008	0.0727	-0.1
0.0015	-0.0203	0.0007	0.1027	-0.1
0.0015	-0.0046	0.0007	0.105	-0.1
0	0.006	0.0015	0.0922	0
-0.0015	0.0022	0.0045	0.0802	0
0.0022	-0.0105	0.0052	0.0427	0
0.0052	-0.003	0.0052	-0.0218	0
0.0045	0.027	0.006	-0.0361	0
0.0037	0.033	0.003	-0.0203	0
-0.0015	0.003	0.0007	-0.0181	0.1
-0.0098	-0.0203	-0.0008	-0.0143	0.1
-0.0233	-0.0256	-0.0008	-0.0165	0.1
-0.0218	-0.0293	-0.003	-0.0128	0.1
-0.0083	-0.0158	-0.0023	-0.0128	0.2
-0.0015	-0.0098	0.0007	-0.0128	0.2
0.003	-0.0135	0	-0.0105	0.2
0.006	-0.0173	0	-0.0105	0.2
0.0142	-0.0128	0.0007	-0.006	0.2
0.0217	0.0007	-0.0008	-0.0053	0.3
0.0232	0.0015	0.0015	-0.003	0.3
0.0255	0.003	-0.0008	-0.003	0.3
0.0255	-0.0046	-0.0053	-0.0023	0.4
0.018	-0.0188	-0.0068	-0.0008	0.4
0.006	-0.0218	-0.0053	0	0.4
-0.0053	-0.0143	-0.0046	-0.0008	0.4
-0.0128	-0.0091	-0.0015	-0.0008	0.5
-0.0143	-0.0038	0.0007	-0.0015	0.5
-0.0143	-0.003	0.0007	-0.0023	0.5
-0.0181	-0.0015	0.0007	-0.0023	0.6
-0.0203	0.0022	-0.0008	-0.0023	0.6
-0.0173	-0.0008	-0.0015	-0.0023	0.6
-0.015	0	-0.003	-0.003	0.6
-0.012	0.0015	-0.0038	-0.003	0.7
-0.0075	0.0067	-0.0008	-0.0023	0.7
-0.0068	0.0157	-0.0008	-0.0023	0.7
-0.0053	0.0172	-0.0008	-0.0015	0.8
-0.003	0.012	0.0015	0	0.8
-0.0008	-0.0023	0.0007	0.0045	0.8
0.0015	-0.015	0	0.0045	0.9
0.0015	-0.0173	0.0007	0.003	0.9
0.0015	-0.0091	0.0007	0.0037	0.9
0	0.006	0.0015	0.0037	0.9
0	0.0142	0	0.003	1
0.0015	0.0082	0.0007	0.003	1
0.0022	0.0037	0.0015	0.0045	1.1
0.0007	0	-0.0008	0.0045	1.1
0.0007	-0.0046	0	0.006	1.1
0.0015	-0.0053	0.0015	0.009	1.2
0.003	-0.0083	0.0007	0.009	1.2
0.003	-0.0038	-0.0008	0.0082	1.2
0.0022	0.0007	-0.0015	0.0052	1.3
0.0015	0.0067	-0.0008	0.0045	1.3
0.0007	0.021	0.0007	0.0105	1.3
0.0022	0.0307	0.0037	0.0127	1.3
0.0015	0.0165	0.0052	0.003	1.4
-0.0015	-0.0023	0.0052	-0.0015	1.4
-0.0015	-0.0046	0.0067	-0.006	1.5
0.0015	-0.0143	0.0075	-0.0128	1.5
-0.0008	-0.0218	0.0082	-0.015	1.5
-0.0008	-0.0263	0.0052	-0.0195	1.6
0.0007	-0.024	0.0045	-0.0203	1.6
0.0015	-0.0135	0.0037	-0.0218	1.7
0.003	-0.0165	0.003	-0.0308	1.7
0.0007	-0.0008	0.0037	-0.0346	1.8
0.0015	0.039	0.0007	-0.0068	1.8
0.0022	0.069	0.0007	0.027	1.8
0.0007	0.0637	0.0015	0.0427	1.9
0.0015	0.0555	0	0.054	1.9
-0.003	0.0555	-0.0008	0.051	2
-0.0143	0.0202	-0.0008	0.0502	2.1
-0.0353	-0.0105	0	0.0405	2.1
-0.0353	-0.0315	0.0007	0.0247	2.2
-0.0083	-0.0398	-0.0008	0.0157	2.2
0.0037	-0.033	-0.0008	-0.0105	2.2
0.0187	-0.0315	0.0007	-0.021	2.3
0.0375	-0.0308	-0.0015	-0.0135	2.3
0.0405	-0.03	-0.0015	-0.0091	2.4
0.0405	-0.0053	0.0007	-0.0083	2.4
0.033	0.003	0	-0.0083	2.5
0.0202	0.0022	-0.0008	-0.006	2.5
0.0082	0.0052	-0.0015	-0.0046	2.6
-0.0083	0	-0.0015	-0.0023	2.6
-0.0233	0.003	-0.0023	-0.0038	2.7
-0.0323	0.0007	-0.003	-0.006	2.7
-0.033	0.0015	-0.0015	-0.0068	2.8
-0.0256	-0.0008	-0.0015	-0.0083	2.9
-0.0195	-0.0023	-0.0008	-0.0083	2.9
-0.0128	-0.0038	-0.0008	-0.0083	3
-0.0068	-0.0053	0.0007	-0.0083	3.1
-0.0053	-0.0053	0	-0.0135	3.1
-0.0046	-0.0075	-0.0008	-0.0181	3.1
-0.0023	-0.0023	0.0007	-0.012	3.2
-0.0015	-0.0008	0.0015	-0.006	3.2
-0.0008	-0.0023	0.0037	-0.003	3.3
0.0007	-0.0046	0.0015	-0.003	3.4
0.0015	-0.0083	0.0022	0.0037	3.4
0.0007	-0.003	0.003	0.0142	3.5
-0.0008	0.0037	0.003	0.0322	3.6
0.0007	-0.0008	0.0052	0.0442	3.6
0.0007	-0.0143	0.0015	0.0307	3.7
-0.0015	-0.0338	0.0022	0.009	3.7
-0.0015	-0.045	0.003	0.0022	3.8
-0.0023	-0.03	0.0007	0.0082	3.9
-0.0046	-0.0158	0.003	0.0007	4
-0.003	-0.027	0.003	-0.006	4
-0.003	-0.0308	0.003	-0.0083	4.1
-0.0008	-0.0158	0.003	-0.0083	4.1
0	-0.003	0.003	0	4.2
0.0007	0.0067	0.0015	0.0157	4.3
0.0022	0.009	0.0022	0.0315	4.4
0.0015	-0.0128	0.0045	0.0217	4.5
0.0007	-0.0293	0.0037	-0.0128	4.5
-0.0008	-0.0225	0.0015	-0.0361	4.6
-0.0008	-0.0256	0.003	-0.0323	4.6
-0.0015	-0.027	0.0045	-0.0308	4.7
-0.0038	-0.024	0.0045	-0.0188	4.8
-0.0015	-0.0023	0.0037	0	4.9
0.0022	0.063	0.0052	0.015	4.9
0.006	0.1072	0.006	0.0187	5
0.0067	0.0532	0.0052	0.027	5.1
0.0037	-0.0218	0.0045	0.0322	5.2
0.003	-0.0308	0.0022	-0.0278	5.3
0.0015	-0.0473	-0.0015	-0.0975	5.3
0	-0.057	-0.0053	-0.1013	5.4
-0.0015	-0.0473	-0.0075	-0.0788	5.5
-0.0008	-0.015	-0.0053	-0.0608	5.6
0.0022	0.0802	-0.003	-0.024	5.7
0.006	0.1477	-0.0015	0.0052	5.8
0.0067	0.1425	-0.0008	0.0015	5.9
-0.0008	0.069	-0.0015	0.048	6
-0.0053	-0.0068	-0.0023	0.0877	6.1
-0.006	-0.039	-0.0015	0.0802	6.2
-0.006	-0.09	-0.0008	0.0885	6.3
-0.0053	-0.1103	0.0022	0.084	6.3
-0.0046	-0.0856	0.0015	0.072	6.4
-0.0015	-0.0315	0.0007	0.06	6.5
0	0.0345	-0.0008	0.1275	6.6
0	0.0007	-0.0008	0.1575	6.7
-0.0008	-0.066	-0.003	0.0195	6.8
-0.0053	-0.0098	-0.0038	-0.0765	6.9
-0.0046	0.1305	-0.003	-0.0181	7
0.0007	0.1807	-0.0023	0.027	7.1
-0.0008	0.1012	-0.003	0.03	7.2
-0.003	0.0307	-0.0046	0.0157	7.3
-0.0046	-0.0203	-0.003	-0.0315	7.5
-0.006	-0.0263	-0.0038	-0.0563	7.6
-0.0038	0.0022	-0.003	-0.0653	7.7
0.0007	-0.027	-0.0008	-0.0863	7.8
0.0015	-0.0698	-0.003	-0.1605	7.9
0.0022	-0.0668	-0.0015	-0.2041	8
0.0037	-0.033	-0.0008	-0.1673	8.1
0.0007	0.0052	-0.0008	-0.0465	8.2
-0.0023	0.0615	0	0.1155	8.3
0.0007	0.0555	0.0015	0.2302	8.5
0.0022	0.0045	0.0015	0.2482	8.5
-0.0008	0.0045	0	0.1372	8.7
-0.0053	0.0015	-0.0015	0.0427	8.8
-0.0068	-0.0473	0	0.0142	8.9
-0.0083	-0.0856	0.003	-0.039	9
-0.0075	-0.084	0.0015	-0.1215	9.1
