File Name: 8Npie.log
Channel 1: 'RF', 18340 values, engineering units: mV, no filters.
Channel 2: 'BF', 18340 values, engineering units: mV, no filters.
Channel 3: 'VM', 18340 values, engineering units: mV, no filters.
Channel 4: 'ST', 18340 values, engineering units: mV, no filters.
Channel 5: 'FX', 917 values, engineering units: deg, no filters, extrapolated from 50 to 1000 samples per second.

-0.0015	-0.0023	0.0067	0.0052	2.2
-0.003	0.003	0.012	0.0082	2.2
-0.0083	0.0007	0.003	0.009	2.2
-0.0068	0	-0.0075	0.0045	2.2
-0.0091	-0.0105	-0.015	0.0037	2.2
-0.0195	-0.0135	-0.0181	0.0007	2.2
-0.006	-0.0046	-0.0158	-0.0015	2.2
0.0052	-0.0113	-0.0158	-0.0038	2.2
-0.024	-0.0256	-0.0225	-0.0053	2.2
-0.039	-0.0143	-0.0195	-0.0046	2.2
-0.0218	-0.0046	-0.0046	-0.0046	2.1
-0.006	-0.0098	0.003	-0.0046	2.1
0.009	-0.0083	0.0007	-0.0023	2.1
0.0105	-0.0053	0.0052	-0.0023	2.1
-0.0015	-0.0015	0.0082	0.0007	2.1
0.0052	-0.003	0.0067	0.0015	2.1
0.0345	-0.0083	0.0082	0.0015	2.1
0.0502	-0.003	0.009	0.0022	2.1
0.027	-0.003	0.009	-0.0008	2
0.0045	-0.0083	0.0067	0	2
0.0037	-0.0083	0.003	0.003	2
-0.0038	-0.0053	0	0.0037	2
-0.0046	-0.0053	-0.0008	0.0045	2
-0.0015	-0.0038	-0.0008	0.0067	2
-0.0053	-0.0015	0.0015	0.0082	2
-0.0083	0.0067	0.003	0.0082	1.9
-0.012	0.0127	0.003	0.003	1.9
-0.012	0.0015	0.0022	-0.0015	1.9
-0.003	-0.0105	0.0007	-0.003	1.9
0.0015	-0.0135	-0.0008	-0.003	1.9
0.0007	-0.0075	-0.0038	-0.0046	1.9
0.0022	0.003	-0.0046	-0.0046	1.9
0.003	0.0172	-0.006	-0.0023	1.8
-0.003	0.03	-0.0068	0.0007	1.8
-0.0098	0.0277	-0.003	0.003	1.8
-0.0091	0.024	0.006	0.0015	1.8
0.0007	0.018	0.0127	0.006	1.8
0	0.0105	0.0127	0.0082	1.8
-0.012	-0.0068	0.0097	0.0052	1.8
-0.0158	-0.0315	0.009	0.003	1.8
0.0015	-0.0368	0.0052	0.0007	1.7
0.0232	-0.0203	-0.0038	0.0015	1.7
0.018	-0.0015	-0.006	0.0022	1.7
0.0067	-0.0015	-0.0083	0.0015	1.7
0.0127	0	-0.0083	0.0007	1.7
0.0165	-0.0053	-0.0053	0	1.7
0.0052	-0.0098	-0.0046	-0.0008	1.7
-0.0053	-0.0053	0.0007	-0.0015	1.7
-0.003	-0.003	0.003	0.0015	1.7
0.0075	-0.0038	0.009	0.0067	1.6
0.0022	-0.0023	0.012	0.0075	1.6
-0.0046	0.0127	0.0015	0.006	1.6
-0.003	0.0142	-0.003	0.0052	1.6
-0.0015	-0.0068	-0.0008	0.0052	1.6
0.003	-0.0091	-0.0008	0.0045	1.6
-0.0015	-0.0038	0.0007	0.0037	1.5
-0.0083	-0.0046	0	0.0045	1.5
-0.0046	-0.0008	0.0015	0.003	1.5
0.0015	-0.003	0.0067	0.003	1.5
0.0022	-0.0053	0.0067	0.0022	1.5
-0.0008	-0.0053	0.0075	0.0015	1.4
0.0045	-0.012	0.006	-0.0008	1.4
0	-0.0113	0.0045	0.0007	1.4
-0.0068	-0.003	0.0052	0.003	1.4
-0.0075	0	0.0037	0.0022	1.4
-0.0105	0.0022	0.0022	0.003	1.4
-0.0075	0.0052	0.0007	0.003	1.4
-0.006	0	0.0007	0.0045	1.4
-0.0053	-0.003	0.0015	0.003	1.3
-0.003	-0.0015	0.0045	0.003	1.3
-0.0068	0.0015	0.003	0.003	1.3
-0.0046	0.0015	-0.0008	0.0007	1.3
-0.003	0.003	-0.0015	-0.0008	1.3
0.0007	0.006	0.0015	-0.0046	1.3
0.012	-0.006	0.0015	-0.0068	1.3
0.018	-0.0053	0.003	-0.0053	1.3
0.0232	0.0075	0.0007	-0.0053	1.2
0.0202	0.0022	-0.0008	-0.0053	1.2
0.0067	0.0007	0.0007	-0.0038	1.2
-0.0068	-0.003	0.0007	-0.0053	1.2
-0.0135	-0.0135	0	-0.006	1.1
-0.012	-0.012	-0.0038	-0.0015	1.1
-0.015	-0.0046	-0.003	-0.0015	1.1
-0.0195	-0.003	-0.0008	-0.0008	1.1
-0.0158	-0.003	-0.0046	-0.0008	1.1
-0.0075	-0.003	-0.0023	-0.003	1.1
0.0097	-0.006	-0.0015	-0.003	1.1
0.0165	-0.0038	-0.003	-0.0038	1.1
0.009	-0.0015	-0.003	-0.003	1.1
0.0052	0.0022	-0.003	0	1.1
0.0015	0.0022	-0.0046	-0.0015	1.1
-0.003	-0.0023	-0.0046	-0.0015	1.1
-0.0075	-0.0023	-0.0015	0	1.1
-0.0091	-0.006	0.0015	0.0015	1
-0.0053	-0.0008	0.0037	0.0037	1
0.006	0.0015	0.0037	0.003	1
0.0052	-0.0015	0.0052	0.0052	1
-0.0053	0.0007	0.0045	0.0067	1
-0.0091	-0.0015	0.006	0.0082	1
-0.0105	-0.0015	0.0082	0.0067	1
-0.0075	-0.0046	0.006	0.0082	0.9
-0.006	-0.0015	0.0052	0.009	0.9
-0.0068	0.0007	0.0022	0.009	0.9
-0.006	-0.0023	-0.0008	0.009	0.9
-0.003	-0.0053	-0.0008	0.0067	0.9
-0.0008	-0.0046	0.0015	0.0075	0.9
-0.006	-0.0015	0	0.0067	0.9
-0.0075	-0.0046	-0.0008	0.0067	0.9
0.0015	-0.0038	-0.0015	0.0082	0.9
0.0022	0.0075	-0.0046	0.0075	0.9
-0.0046	0.0157	-0.0046	0.006	0.9
-0.0083	0.0007	-0.003	0.0045	0.9
-0.0105	-0.0046	0.0007	0.0045	0.8
-0.0091	0.0052	0.0052	0.003	0.8
-0.0038	0.0015	0.0075	0.0015	0.8
0.0015	0	0.0082	0.0022	0.8
0.009	0.0007	0.0075	0.0045	0.8
0.0157	0.0015	0.0037	0.0037	0.8
0.015	0.0007	0.0037	0.003	0.8
0.0142	-0.0083	0.003	0.0037	0.7
0.0135	-0.0068	0.0022	0.0022	0.7
0.0127	-0.0038	0.0015	0.0015	0.7
0.003	-0.006	0.003	0	0.7
-0.003	-0.0046	0.0022	0	0.7
-0.0053	0.003	-0.0015	-0.0015	0.7
-0.0083	0.0045	-0.0008	-0.0046	0.7
-0.0091	-0.0008	0.0007	-0.0046	0.7
-0.0075	-0.0053	0.0015	-0.0046	0.7
-0.0091	-0.003	-0.0015	-0.0015	0.6
-0.0143	-0.0015	-0.0015	-0.003	0.6
-0.012	-0.0195	0.0007	-0.0053	0.6
-0.003	-0.027	0.0015	-0.0053	0.6
0.0007	-0.0046	0.0015	-0.003	0.6
0.0015	0.018	-0.0008	-0.0015	0.6
0.0022	0.012	-0.0008	-0.0008	0.6
-0.0015	-0.003	-0.0008	-0.0008	0.6
-0.0015	-0.0008	-0.0023	-0.0008	0.6
0.0007	-0.0023	-0.003	0.0007	0.6
-0.0023	-0.0023	-0.0068	0.0015	0.5
-0.0105	-0.003	-0.0075	0.0045	0.5
-0.0181	0.0007	-0.0023	0.0067	0.5
-0.0023	0.0037	0.0052	0.0082	0.5
0.0202	-0.0008	0.012	0.0075	0.5
0.018	-0.003	0.0097	0.006	0.5
0.0052	-0.0015	0.0022	0.006	0.5
0.0015	-0.003	0.0015	0.0037	0.5
-0.0053	-0.0105	0.0007	0.0045	0.5
-0.0053	-0.0143	-0.0015	0.0037	0.4
-0.003	-0.0158	-0.0015	0.0037	0.4
-0.0038	-0.0113	0	0.0015	0.4
-0.0008	-0.0015	0	0.0007	0.4
0.0075	-0.0008	0.0015	0.0007	0.4
0.012	0.0015	-0.0015	-0.0008	0.4
0.0105	-0.0023	-0.003	-0.0015	0.4
0.0172	-0.0083	0.0007	-0.003	0.4
0.0202	-0.0008	0.0007	-0.003	0.4
0.0097	0.0007	0.0007	-0.0053	0.4
-0.0008	0.0007	0	-0.0053	0.4
-0.0038	-0.0015	-0.0008	-0.003	0.3
-0.0046	-0.0068	-0.0008	-0.003	0.3
-0.0091	-0.0068	0.0015	-0.0023	0.3
-0.0068	-0.0068	0.0045	-0.0046	0.3
-0.0068	-0.0091	0.003	-0.0053	0.3
-0.003	-0.015	0.0015	-0.003	0.3
-0.0023	-0.0105	0.0007	0.003	0.3
-0.0046	-0.0083	0	0.0045	0.3
-0.0008	-0.0068	0.0015	0.0075	0.3
-0.003	-0.0015	0.0022	0.0105	0.3
-0.0046	-0.0008	0.0015	0.006	0.2
-0.0053	0.0007	0.0015	0.0052	0.2
-0.0068	0.0015	-0.0015	0.0052	0.2
-0.006	0.0037	-0.0015	0.0052	0.2
-0.0038	0.0045	-0.0008	0.0067	0.2
-0.003	0.0037	-0.0015	0.0067	0.2
-0.0015	0.0022	0.003	0.0082	0.2
0.0037	0.0015	0.0052	0.0067	0.2
-0.003	-0.0023	0.0007	0.0045	0.2
-0.0143	-0.003	-0.0008	0.0045	0.2
-0.0135	0.0045	-0.003	0.0007	0.1
-0.0075	0	-0.0046	-0.0008	0.1
-0.0046	-0.0023	-0.0075	-0.0015	0.1
-0.0083	0.0052	-0.0046	0	0.1
-0.0128	0.0187	0.0045	0.0037	0.1
0.0045	0.0165	0.0067	0.0037	0.1
0.0322	0.0015	0.003	0.0015	0.1
0.0367	-0.0015	-0.003	-0.003	0
0.0255	-0.0053	-0.0046	-0.003	0
0.0127	0.0007	0.0015	-0.0015	0
0.003	0.0022	0.0007	0	0
-0.0053	-0.0008	0.0007	0.0007	0
-0.0091	0.0045	0.0022	0.0007	0
-0.0113	0.0007	-0.0015	0	0
-0.0143	0.0007	0.0007	-0.0008	0
-0.0068	0.0007	0.003	-0.0008	0
0.0045	-0.0015	-0.0023	-0.0015	0
0.003	-0.0015	-0.0068	-0.003	-0.1
-0.0046	-0.0015	-0.0053	-0.0023	-0.1
-0.0053	-0.0053	-0.0038	0.0007	-0.1
-0.0053	-0.0053	-0.0046	0.003	-0.1
-0.0053	-0.0046	-0.0038	0.0045	-0.1
-0.0046	-0.0105	-0.0053	0.0067	-0.2
-0.003	-0.012	-0.006	0.0082	-0.2
-0.0023	-0.0128	-0.0053	0.0052	-0.2
-0.003	-0.0143	-0.0038	0.0045	-0.2
0.0007	-0.0158	-0.0008	0.0052	-0.2
0.0007	-0.0128	0.0007	0.0052	-0.2
-0.0046	-0.0105	0.0015	0.0045	-0.2
-0.006	-0.006	0.0022	0.0045	-0.2
-0.0091	0.0105	0.003	0.0015	-0.2
-0.0091	0.0195	0.0015	-0.0015	-0.3
-0.0038	0.006	0.0007	-0.0008	-0.3
-0.003	-0.0105	-0.0008	0.0022	-0.3
-0.003	-0.0195	-0.003	0.0052	-0.3
-0.0053	-0.0233	-0.0015	0.003	-0.3
-0.0083	-0.0203	0	-0.0158	-0.3
-0.0023	-0.0195	0.0037	-0.0398	-0.4
0.0037	-0.0083	0.0067	-0.0383	-0.4
0.0067	0.03	0.0075	-0.0195	-0.4
0.0067	0.069	0.0075	0.0045	-0.4
0.0052	0.0765	0.009	0.0277	-0.4
0.009	0.0457	0.0075	0.0382	-0.5
0.0105	0.0112	0.0067	0.0427	-0.5
0.0097	-0.006	0.009	0.0412	-0.5
0.0075	-0.0091	0.0052	0.0345	-0.5
0.0045	-0.0113	0.0052	0.0232	-0.5
-0.0015	-0.0218	0.0052	0.0015	-0.5
-0.003	-0.0203	0.0045	-0.0135	-0.5
-0.003	-0.0091	0.0052	-0.0091	-0.5
-0.0038	0.0052	0.0052	-0.0008	-0.5
-0.0015	0.0127	0.0045	-0.0098	-0.5
-0.0015	-0.0038	0.0037	-0.015	-0.5
-0.003	-0.0165	0.0037	-0.0128	-0.5
-0.0038	-0.0203	0.0045	-0.0105	-0.5
-0.0083	-0.0165	0.0037	-0.0068	-0.5
-0.0135	-0.0105	0	-0.0038	-0.5
-0.0203	0.0007	0.0007	-0.003	-0.5
-0.0181	0.0045	0.0022	-0.0015	-0.5
-0.0158	-0.0113	0.0007	-0.003	-0.5
-0.0143	-0.0098	0.0022	-0.0023	-0.5
0	-0.003	0.0045	-0.0008	-0.5
0.0135	-0.0068	0.0052	0.0007	-0.6
0.0195	-0.0068	0.0045	0.0015	-0.6
0.0217	-0.0046	0.003	0.0015	-0.6
0.0202	-0.0046	0.0007	0.0007	-0.6
0.018	-0.003	0.0015	0.0022	-0.6
0.0105	-0.0046	0.0045	0.003	-0.6
-0.0008	-0.0053	0.003	0.0045	-0.6
-0.0053	-0.0038	0.0037	0.0037	-0.6
-0.0053	-0.0015	0.0015	0.0052	-0.6
-0.0068	-0.003	0	0.0045	-0.6
-0.0083	-0.0046	0.003	0.0045	-0.7
-0.0075	-0.0046	0.003	0.0045	-0.7
-0.0046	-0.0053	0.0007	0.0045	-0.7
0	-0.0068	-0.003	0.0015	-0.7
-0.0008	-0.0083	-0.0053	-0.0008	-0.7
-0.0008	-0.0083	-0.0083	-0.0015	-0.7
-0.0008	-0.0068	-0.0098	-0.0015	-0.7
-0.0008	-0.006	-0.0091	-0.0015	-0.7
-0.0008	-0.0083	-0.0105	-0.003	-0.8
-0.0046	-0.0105	-0.0105	-0.0023	-0.8
-0.0053	-0.0075	-0.0053	-0.0023	-0.8
-0.0083	-0.0015	0.0007	-0.0008	-0.8
-0.006	-0.0038	0.0015	0.0007	-0.8
0.0045	-0.0046	-0.003	0.0015	-0.8
0.0082	0.0015	-0.0015	0.003	-0.8
0.009	-0.0015	-0.003	0.003	-0.8
0.0015	-0.0008	-0.0038	0.003	-0.9
-0.0053	-0.0023	0	0.003	-0.9
-0.0105	-0.0053	0.0037	0.0007	-0.9
-0.0068	-0.0075	0.0127	-0.003	-0.9
0.0052	-0.0105	0.0127	-0.0038	-0.9
0.006	-0.0083	0.0052	-0.0046	-0.9
0.0082	-0.0091	0.0007	-0.0203	-0.9
0.006	-0.003	0	-0.033	-0.9
0.0007	-0.0008	0.0022	-0.03	-0.9
0.0007	0.0015	0.0015	-0.0353	-0.9
-0.0046	0.003	0.0015	-0.027	-0.9
-0.003	0.0075	0.0007	-0.0128	-0.9
-0.003	0.0307	0.0015	-0.012	-1
-0.003	0.0345	0.0015	-0.0233	-1
0.0007	0.0112	0.0015	-0.0188	-1
0.0007	-0.0098	0.0052	0.0217	-1
-0.0015	-0.0256	0.006	0.072	-1
-0.0023	-0.0256	0.0082	0.084	-1
-0.0015	-0.024	0.0052	0.0382	-1
-0.003	-0.0181	0.0022	0.0217	-1
-0.003	0.027	0.003	0.0427	-1.1
-0.003	0.0495	0.0022	0.0547	-1.1
-0.0008	0.0202	0.0015	0.0765	-1.1
0.003	0.027	0.0015	0.0915	-1.1
-0.0053	0.0517	0.0015	0.078	-1.1
-0.0158	0.0345	0.0007	0.0202	-1.1
-0.0046	0.0247	-0.0008	-0.0165	-1.1
0.0127	0.0082	-0.0038	-0.0278	-1.1
0.0105	-0.024	-0.0015	-0.0293	-1.1
0.0097	-0.03	0.003	-0.0233	-1.2
0.0075	-0.0278	0.0022	-0.0278	-1.2
0.003	-0.027	0.0007	-0.0225	-1.2
0.003	-0.0195	0	-0.0256	-1.2
-0.003	-0.0113	0	-0.0218	-1.2
-0.0015	0.003	-0.0023	-0.0195	-1.3
0	0.0097	-0.0038	-0.021	-1.3
-0.0023	0.0007	-0.0053	-0.0173	-1.3
-0.0023	-0.0128	-0.0046	-0.0165	-1.3
-0.0046	-0.0173	-0.0015	-0.0135	-1.3
-0.0053	-0.0143	-0.0023	-0.0135	-1.3
-0.0038	-0.0128	-0.0008	-0.012	-1.3
-0.0023	-0.0083	0.0015	-0.012	-1.3
-0.0046	-0.0068	0.003	-0.0083	-1.3
-0.003	-0.0053	0.0015	-0.0091	-1.3
0.0015	0	0.003	-0.0075	-1.4
0.0037	-0.0015	0.0045	-0.0046	-1.4
0.0015	-0.0053	0.0037	-0.0038	-1.4
0.0007	-0.0053	0.0037	-0.0023	-1.4
-0.0008	-0.0053	0.0015	-0.0023	-1.4
-0.0008	-0.0053	0.0015	-0.0008	-1.4
0.0007	-0.0046	0.0015	0.0015	-1.4
0.0015	-0.0038	0.0015	0.0007	-1.4
0.0022	-0.0046	0	0.0015	-1.4
0.0015	-0.0046	-0.0023	0.0022	-1.4
0	-0.003	-0.0015	0.0037	-1.5
-0.0023	-0.0068	-0.0008	0.0075	-1.5
-0.0046	-0.0075	0.0007	0.009	-1.5
-0.0053	-0.0083	0	0.009	-1.5
-0.0143	-0.0113	0.0007	0.0045	-1.5
-0.0218	-0.0128	0.003	-0.0008	-1.5
-0.0203	-0.0105	0.0007	-0.0015	-1.5
-0.0165	-0.0098	-0.0008	-0.0038	-1.5
-0.0091	-0.0105	-0.0015	-0.0068	-1.5
0.003	-0.0128	-0.0038	-0.0113	-1.5
0.012	-0.003	-0.0053	-0.0083	-1.5
0.018	0.0195	-0.0053	-0.0023	-1.5
0.024	0.0165	-0.0008	0.003	-1.5
0.0255	0.012	0.0007	0.0157	-1.6
0.0217	0.0007	0.0007	0.0277	-1.6
0.012	-0.0128	0.003	0.0307	-1.6
0.0015	0.0045	0.0045	0.0255	-1.6
-0.003	0.0172	0.0045	0.0225	-1.6
-0.0053	0.0172	0.0015	0.0135	-1.6
-0.0083	0.0075	0.0007	0.0082	-1.6
-0.0105	0.0015	0.0007	0.0082	-1.7
-0.0105	-0.0008	-0.0008	0.0075	-1.7
-0.0113	-0.0046	0.0007	0.0067	-1.7
-0.0105	-0.0015	0.0037	0.009	-1.7
-0.0068	-0.0083	0.006	0.009	-1.7
-0.0053	-0.012	0.0082	-0.0015	-1.7
-0.0038	-0.0135	0.0112	-0.0165	-1.7
0.0045	-0.0143	0.0097	-0.0346	-1.7
0.0052	-0.0143	0.009	-0.0353	-1.7
-0.0023	-0.0083	0.0052	-0.0323	-1.8
-0.0105	0.0037	0	-0.0383	-1.8
-0.0113	-0.0008	0.0007	-0.033	-1.8
-0.0038	-0.0143	-0.003	-0.0128	-1.8
-0.0008	-0.0158	-0.003	0.0157	-1.8
0	-0.0023	-0.003	0.0375	-1.8
0	0.018	-0.0038	0.0577	-1.8
0.0022	0.015	-0.0008	0.0645	-1.8
0	-0.0015	0.0015	0.0487	-1.8
-0.0053	-0.0083	0.006	0.0247	-1.8
-0.0083	-0.0233	0.0082	0.0292	-1.9
-0.003	-0.0128	0.0067	0.042	-1.9
0.0082	0.012	0.0045	0.0232	-1.9
0.0105	0.048	0.0015	0.0135	-1.9
0.0015	0.0615	-0.0008	0.0142	-1.9
-0.0075	0.024	-0.0008	-0.0008	-1.9
-0.0083	0.0052	-0.0015	-0.0083	-1.9
0.0015	-0.0143	-0.003	-0.015	-1.9
0.0007	-0.0143	-0.003	-0.0233	-1.9
0.0007	-0.0053	-0.0015	-0.0278	-2
0.0082	-0.0165	-0.0008	-0.03	-2
0.0067	-0.0128	0.0015	-0.027	-2
0.0052	-0.0165	0.0007	-0.027	-2
0.003	-0.0173	-0.003	-0.015	-2
-0.0038	-0.0128	-0.0015	0.0045	-2
-0.0015	-0.012	0	0.0142	-2
-0.0008	-0.0075	-0.0008	0.0082	-2
-0.003	-0.0053	-0.0015	-0.0023	-2
-0.0053	-0.003	-0.0015	-0.0023	-2
-0.006	0.0015	0	-0.003	-2.1
-0.003	0.0022	0	-0.003	-2.1
-0.0046	0.0007	0.0015	0.0007	-2.1
-0.0046	-0.0008	0.003	-0.0008	-2.1
-0.003	-0.0038	0.0015	0.0007	-2.1
-0.0023	-0.0053	0.0015	0.0007	-2.1
0	-0.006	0.0015	0.0015	-2.1
0.0007	-0.0068	0.0007	0.0007	-2.1
-0.0015	-0.0068	-0.003	-0.003	-2.1
-0.003	-0.012	-0.0023	-0.0053	-2.1
-0.0015	-0.0173	-0.003	-0.0068	-2.1
-0.0008	-0.0256	-0.0068	0.0015	-2.1
0.0007	-0.03	-0.0068	0.018	-2.1
0.0007	-0.0233	-0.0068	0.0232	-2.1
0.0007	-0.0083	-0.0038	0.0127	-2.1
0.0007	-0.012	-0.0015	0.0015	-2.1
0.0007	-0.0278	0.0007	-0.0105	-2.1
-0.0015	-0.0218	0.003	-0.0233	-2.1
-0.0068	-0.003	0.0067	-0.0285	-2.1
-0.0105	0.0255	0.0112	-0.0233	-2.1
-0.003	0.0352	0.009	-0.0413	-2.1
0.006	0.0142	0.0075	-0.0743	-2.1
0.0015	0.0142	0.006	-0.0706	-2.2
-0.0008	0.0225	0.0045	-0.0368	-2.2
0	0.0202	0.0045	-0.0046	-2.2
-0.0008	0.018	0.0037	0.0285	-2.2
0.0037	0.0202	0.0045	0.0652	-2.1
0.006	0.0292	0.003	0.0975	-2.1
0.0105	0.0075	0.0015	0.0967	-2.1
0.0135	-0.0173	0	0.0255	-2.1
0.009	-0.0195	-0.0008	-0.0105	-2.1
-0.0015	-0.0218	0	0.003	-2.1
-0.012	-0.0083	-0.0015	-0.0023	-2.1
-0.0128	0.0007	-0.0023	0.0007	-2.1
-0.0143	-0.0203	-0.0015	-0.003	-2.1
-0.0075	-0.042	-0.0023	-0.003	-2.1
0.0052	-0.03	-0.0015	0.0097	-2.1
0.009	0.0142	0.0007	0.0442	-2.1
0.0127	0.027	0.0015	0.0667	-2.1
0.0195	0.009	0.0015	0.0442	-2
0.0202	0.0292	0.003	0.0045	-2
0.0142	0.0255	0.003	-0.0038	-2
0.0037	0.0052	0.0037	0.0157	-2
-0.006	0.018	0.003	0.0277	-2
-0.0105	0.0315	0.003	0.0202	-2
-0.0091	0.0307	0.0037	-0.0128	-2
-0.0091	0.0022	0.0052	-0.03	-2
-0.0075	-0.012	0.0075	-0.0346	-2
-0.0068	-0.0128	0.006	-0.0375	-2
-0.0091	-0.0203	0.0022	-0.033	-2
-0.0083	-0.021	0	-0.0256	-2
-0.0046	-0.0181	-0.0008	-0.021	-2
-0.0015	-0.0143	-0.0015	-0.0181	-2
-0.003	-0.0128	-0.0008	-0.0128	-2
-0.0046	-0.0083	-0.003	-0.0105	-2
-0.0046	-0.0091	-0.0053	-0.0068	-2
-0.0046	-0.0098	-0.0053	-0.0068	-2
-0.0046	-0.0091	-0.003	-0.0053	-1.9
-0.0053	-0.0053	-0.0008	-0.0098	-1.9
-0.006	-0.003	-0.003	-0.021	-1.9
-0.003	-0.0046	-0.0015	-0.024	-1.9
0.0015	-0.003	-0.0008	-0.0181	-1.9
0.003	-0.0091	0	-0.0158	-1.9
0.0015	-0.0143	-0.0008	-0.0091	-1.9
0.0007	-0.0158	0	0.0015	-1.9
-0.0015	-0.0143	0.0007	0.0127	-1.9
-0.0015	-0.0068	0.0015	0.027	-1.9
0.003	0.0045	0.003	0.0435	-1.9
0.006	0.0217	0.0007	0.0607	-1.9
0.0045	0.018	-0.0008	0.0442	-1.9
0.003	0.0045	-0.003	0.0105	-1.9
0.0007	-0.006	-0.003	0.012	-1.9
-0.0015	-0.0105	-0.003	0.0195	-1.9
-0.0008	-0.0046	-0.003	0.0127	-1.9
-0.0053	-0.0068	-0.0015	0.0082	-1.9
-0.0083	-0.0091	0.003	0.0045	-1.9
-0.0046	-0.0075	0.0022	0.0127	-1.9
-0.0075	-0.0008	0.0015	0.0105	-1.8
-0.006	0.0082	0.006	0.0022	-1.8
-0.0008	0.0307	0.0067	-0.0091	-1.8
0.0045	0.0315	0.0067	-0.0353	-1.8
0.0045	0.0082	0.0067	-0.045	-1.8
0.0037	0.0045	0.0067	-0.0308	-1.8
0.003	-0.015	0.009	-0.0165	-1.8
0.0052	-0.027	0.0075	-0.0008	-1.8
0.0082	-0.0195	0.003	0.0142	-1.8
0.006	-0.0181	-0.0008	0.0322	-1.8
0.0022	-0.012	-0.003	0.0465	-1.8
-0.0008	-0.0083	-0.0015	0.0442	-1.8
-0.003	-0.0038	0	0.0277	-1.8
-0.003	-0.0015	-0.0008	0.0037	-1.8
-0.0023	-0.0083	-0.0015	-0.0173	-1.8
-0.0046	-0.015	-0.0008	-0.0218	-1.8
-0.0091	-0.0195	0	-0.0195	-1.8
-0.0165	-0.0256	0	-0.0233	-1.8
-0.0158	-0.021	-0.0015	-0.0225	-1.7
-0.012	-0.0053	-0.0015	-0.0135	-1.7
-0.0091	0.006	-0.0038	0	-1.7
-0.0015	0.018	-0.0023	0.0045	-1.7
0.0052	0.0232	-0.0008	0.0015	-1.7
0.0157	0.0217	0.0015	0.003	-1.7
0.0232	0.0217	0.0015	-0.003	-1.7
0.024	0.0015	0.0022	-0.0053	-1.7
0.0195	-0.0128	0.0045	-0.0038	-1.7
0.0045	-0.012	0.0015	-0.0038	-1.7
-0.0068	-0.0075	-0.0015	-0.0038	-1.7
-0.0075	-0.0015	0	-0.006	-1.6
-0.0053	-0.0158	-0.0008	-0.0113	-1.6
-0.0105	-0.0203	-0.0015	-0.0158	-1.6
-0.012	0.0015	0.0015	-0.0158	-1.6
-0.0053	0.0232	0.0045	-0.0091	-1.6
-0.0015	0.0195	0.0052	0.0105	-1.6
-0.0008	0.0202	0.0075	0.0457	-1.6
0.0007	0.0367	0.0075	0.063	-1.6
0.0015	0.021	0.0037	0.039	-1.6
-0.0008	0.003	0.0007	0.0052	-1.6
-0.0023	-0.0015	-0.0023	-0.0023	-1.6
-0.0008	-0.0128	-0.0038	0.0007	-1.6
0.0007	-0.0113	-0.0015	-0.0015	-1.6
0.0007	-0.0068	-0.0008	0.0007	-1.5
-0.0023	0.0037	0.0015	0.0007	-1.5
-0.0023	-0.0015	0.0067	0.0007	-1.5
0.0037	-0.0135	0.0075	0.0007	-1.5
0.0045	-0.0105	0.0052	-0.0008	-1.5
-0.0015	-0.0135	0.0007	0.0007	-1.5
-0.0008	-0.0105	0	0.0007	-1.5
-0.0015	-0.0105	0.0015	0.0015	-1.5
-0.0046	-0.0091	0.0007	0.0037	-1.5
-0.006	-0.0053	0.0022	0.0052	-1.5
-0.003	-0.003	0.0015	0.006	-1.5
0.0007	-0.0015	0	0.006	-1.4
-0.0015	-0.0023	0.0007	0.0075	-1.4
-0.0015	0	0.0007	0.0082	-1.4
-0.0008	-0.003	-0.0008	0.0052	-1.4
0.0007	-0.012	-0.0008	0.0022	-1.4
0.0007	-0.015	-0.0008	-0.0008	-1.4
-0.003	-0.0083	-0.0008	-0.0015	-1.4
-0.0053	-0.0068	-0.0015	0	-1.4
-0.006	-0.0091	-0.0046	0.0112	-1.4
-0.0053	-0.0068	-0.0046	0.0217	-1.4
-0.0038	-0.0083	-0.003	0.009	-1.4
-0.003	-0.0091	-0.0015	-0.0098	-1.4
-0.0008	0.0052	-0.0015	-0.027	-1.4
-0.0008	0.0195	0.0015	-0.0405	-1.4
0.0007	0.0007	0.0015	-0.054	-1.4
-0.0008	-0.0105	0.0022	-0.0795	-1.4
-0.0008	0	0.0022	-0.0825	-1.4
0.0015	-0.0128	0.003	-0.066	-1.3
0	-0.0165	0.0045	-0.0285	-1.3
-0.0015	-0.003	0.0007	0.0345	-1.3
-0.0015	0.0217	0.0037	0.099	-1.3
-0.003	0.045	0.003	0.1222	-1.3
-0.0008	0.0225	0.0015	0.105	-1.3
0.0007	0.015	0.0022	0.066	-1.3
0.0015	0.0127	0.0015	0.027	-1.3
0.003	-0.0128	0.003	0.0052	-1.3
0.003	0.0007	0.0045	-0.0181	-1.3
0.0015	0.0142	0.003	-0.0091	-1.3
-0.0008	0.0075	0.0007	-0.0023	-1.3
-0.003	-0.0083	0.0015	0.0007	-1.3
-0.0083	-0.0046	0.0007	0.036	-1.3
-0.0091	0.0007	-0.0015	0.0607	-1.3
-0.0068	-0.012	-0.0023	0.0607	-1.3
-0.0053	-0.0091	-0.0053	0.0127	-1.3
-0.0008	-0.0165	-0.0053	-0.0225	-1.3
0.0045	-0.0181	-0.003	-0.0308	-1.2
0.006	-0.0158	-0.003	-0.0346	-1.2
-0.0046	-0.0143	-0.0023	-0.0308	-1.2
-0.0143	-0.0135	-0.0008	-0.03	-1.2
-0.0143	-0.0128	-0.0008	-0.0173	-1.2
-0.0128	0.0045	-0.0015	-0.0015	-1.2
-0.0091	0.009	-0.0023	0.0112	-1.2
-0.0015	-0.0143	-0.0046	0.0022	-1.2
0.0052	-0.027	-0.0046	-0.0113	-1.2
0.012	-0.0233	0.0007	-0.0053	-1.2
0.0172	-0.015	0.0037	-0.0075	-1.1
0.0172	-0.0173	0.003	-0.0225	-1.1
0.009	-0.0248	0.0022	-0.0413	-1.1
-0.0015	-0.0113	0.0045	-0.0555	-1.1
-0.0091	-0.0105	0.006	-0.0458	-1.1
-0.0053	-0.0128	0.0037	-0.0195	-1.1
0.0015	0.012	-0.0008	0.0157	-1.1
0.0007	0.0502	-0.003	0.0397	-1.1
0.0015	0.0382	-0.0015	0.0217	-1.1
0.0052	0.0165	0.003	0.0202	-1.1
0.009	0.042	0.003	0.0217	-1.1
0.009	0.0367	-0.0008	0.0277	-1.1
0.0052	0.0457	-0.003	0.033	-1.1
0.0022	0.0277	-0.0008	-0.0083	-1.1
-0.0046	-0.0181	0.0015	-0.0165	-1.1
-0.0135	-0.0143	-0.0046	0.0045	-1.1
-0.015	-0.0173	-0.0068	0.0037	-1.1
-0.0091	-0.0165	-0.006	0.0075	-1
-0.003	-0.0165	-0.0015	0.015	-1
0.0067	-0.0173	-0.0015	0.018	-1
0.0067	-0.0083	-0.0008	0.0097	-1
0.0015	-0.0083	0.0015	-0.0038	-1
0.0007	-0.0195	0.0022	-0.0195	-1
-0.0023	-0.0256	0.0052	-0.0353	-1
-0.0008	-0.0195	0.0045	-0.0263	-1
0.0007	-0.0046	0.0015	-0.012	-1
0.0007	0.0217	0.003	-0.012	-1
0.0015	0.0082	0.0015	-0.0143	-1
0.0022	0	0.0015	-0.0075	-1
-0.0015	-0.0015	0.0037	-0.0008	-1
-0.006	-0.0113	0.0007	0.0007	-1
-0.0053	-0.0113	-0.0015	0.0007	-1
-0.0015	-0.0181	-0.0023	-0.006	-1
0	-0.0158	-0.003	-0.0165	-1
0.0007	-0.0143	-0.0008	-0.0188	-1
0.003	-0.0128	0.0022	-0.0105	-1
0.0015	-0.0098	0.0015	-0.0008	-1
0.0015	-0.0083	0.0022	0.012	-0.9
0.0022	0.0045	0.0045	0.0232	-0.9
0.003	0.0157	0.003	0.0337	-0.9
0.0015	0.0082	0.006	0.0367	-0.9
-0.0008	0	0.0067	0.03	-0.9
-0.0008	0.0022	0.0052	0.0202	-0.9
-0.0008	-0.0008	0.006	0.0052	-0.9
-0.0015	0.0022	0.006	-0.0023	-0.9
-0.0008	0.0007	0.0067	-0.0008	-0.9
-0.003	0.0022	0.006	0.0015	-0.9
-0.0068	0.0037	0.0045	0.0022	-0.9
-0.0046	0	0.003	0.0052	-0.9
-0.0038	0	0.0045	0.0052	-0.9
-0.0038	-0.0046	0.0067	0.009	-0.9
-0.0008	-0.0053	0.003	0.0075	-0.9
-0.0053	-0.0075	0.0015	0.0067	-0.9
-0.0143	-0.0038	0.0015	0.0067	-0.9
-0.0173	-0.0023	-0.0008	0.0067	-0.9
-0.0143	-0.0038	-0.0015	0.0052	-0.9
-0.0098	-0.0008	-0.0015	0.0052	-0.9
-0.0015	-0.0008	0	0.003	-0.8
0.0112	-0.003	0.0015	0.0007	-0.8
0.0195	-0.0023	0	0.0015	-0.8
0.018	0.0022	-0.003	0.0015	-0.8
0.0187	0.0052	-0.0046	-0.0015	-0.8
0.0157	-0.0023	-0.0023	-0.0165	-0.8
0.0067	-0.0195	-0.0008	-0.0225	-0.8
-0.003	-0.0278	0.0022	-0.015	-0.8
-0.0068	-0.0398	0.0007	-0.0113	-0.8
-0.0046	-0.0623	-0.0015	-0.0053	-0.8
-0.0053	-0.0863	0	-0.0023	-0.8
-0.0038	-0.1058	-0.0015	-0.003	-0.8
-0.0046	-0.1133	-0.0015	0.003	-0.8
-0.006	-0.1208	-0.0023	0.0165	-0.7
-0.0068	-0.1148	-0.0023	0.0405	-0.7
-0.0046	-0.1103	0.0007	0.0465	-0.7
-0.003	-0.1118	-0.0008	0.0352	-0.7
-0.0053	-0.1028	-0.0008	0.0472	-0.7
-0.0053	-0.1133	0.0015	0.0412	-0.7
-0.0068	-0.1238	0.003	0.0037	-0.7
-0.0053	-0.1103	0.0022	-0.0195	-0.7
-0.0046	-0.0938	0.0045	-0.024	-0.7
-0.0068	-0.0743	0.0067	-0.015	-0.7
-0.0075	-0.063	0.003	-0.0091	-0.6
-0.0091	-0.0458	0.0015	-0.0143	-0.6
-0.012	-0.0256	0.0052	-0.0278	-0.6
-0.0135	-0.0105	0.0082	-0.0181	-0.6
0.0015	0.0202	0.009	-0.0015	-0.6
0.0127	0.0285	0.0075	-0.0015	-0.6
0.0135	0.0165	0.009	0.0037	-0.6
0.0165	0.0195	0.012	0.0037	-0.6
0.009	0.0232	0.006	0.0015	-0.6
0.0067	0.0322	0.0037	-0.0008	-0.6
0.0052	0.0322	0.0052	-0.0008	-0.6
-0.0023	0.0127	0.0052	0.003	-0.5
0.0022	0.012	0.0022	0.0015	-0.5
0.0037	0.0442	-0.0023	0.0015	-0.5
-0.0015	0.066	0.0007	0	-0.5
0.0007	0.0607	0.0015	-0.0015	-0.5
0.0007	0.069	0	0	-0.5
-0.003	0.0825	-0.0046	0.0022	-0.5
-0.003	0.0907	-0.006	-0.0068	-0.5
0.0045	0.0772	-0.003	-0.0263	-0.5
0.0097	0.0615	-0.0068	-0.0233	-0.5
0.009	0.069	-0.0091	-0.0128	-0.5
0.0067	0.0705	-0.0105	-0.0158	-0.5
-0.0015	0.0727	-0.0098	-0.0165	-0.5
-0.0068	0.0757	-0.0068	-0.0098	-0.5
-0.0053	0.0735	-0.0075	-0.0053	-0.5
-0.0068	0.069	-0.0083	-0.0008	-0.5
-0.0083	0.0622	-0.0053	0.018	-0.5
-0.0068	0.0607	-0.0038	0.048	-0.5
-0.0015	0.0577	-0.0008	0.0765	-0.4
0.0037	0.0495	0.0037	0.069	-0.4
0.0045	0.042	0.0052	0.0165	-0.4
0.0022	0.042	0.0067	-0.015	-0.4
-0.003	0.0637	0.006	-0.0353	-0.4
-0.0068	0.0862	0.003	-0.0465	-0.4
-0.012	0.0765	0.003	-0.0375	-0.4
-0.0203	0.0532	0.0037	-0.0346	-0.3
-0.0195	0.0382	0.0022	-0.0203	-0.3
-0.0128	0.0307	0.0015	-0.0091	-0.3
-0.0083	0.0345	0.0007	0.0015	-0.3
0.003	0.0555	0.0007	0.0307	-0.3
0.0105	0.0615	0.0045	0.072	-0.3
0.0112	0.0292	0.0075	0.1035	-0.2
0.0157	0.0157	0.0045	0.0742	-0.2
0.0202	0.0127	-0.0015	0.018	-0.2
0.0142	0.0052	-0.003	-0.0075	-0.2
0.003	-0.0015	-0.0023	-0.015	-0.2
-0.0068	-0.0113	0.0007	-0.0165	-0.2
-0.0128	0.015	0.0045	-0.0165	-0.2
-0.0098	0.042	0.0022	-0.0225	-0.1
-0.0008	0.054	0.0015	-0.024	-0.1
0.0015	0.0532	-0.003	-0.0203	-0.1
-0.0015	0.0457	-0.006	-0.0113	-0.1
-0.003	0.021	-0.003	-0.0068	-0.1
-0.0053	-0.0015	-0.0008	-0.0098	-0.1
-0.0046	0.0045	-0.0008	-0.015	-0.1
-0.0053	-0.0105	-0.003	-0.0128	0
-0.0075	-0.012	0.0007	-0.0083	0
-0.0046	-0.015	0.0007	-0.0075	0
0.003	-0.0195	0.0007	-0.0046	0
0.0142	-0.0143	0.0052	-0.0015	0
0.0165	-0.033	0.0067	-0.0008	0
0.0127	-0.039	0.0082	0	0
0.006	-0.0315	0.0045	-0.0068	0
-0.0023	-0.027	0.0022	-0.0135	0
-0.0008	-0.0256	0.0015	-0.0165	0
-0.003	-0.0165	0.0015	-0.0158	0.1
-0.0091	0.0052	0.003	-0.0015	0.1
-0.0105	0.0255	-0.0008	0.0255	0.1
-0.0053	0.0315	-0.0023	0.057	0.1
0.0015	0.0307	-0.0023	0.0637	0.1
0.0015	0.0157	0.0007	0.0405	0.1
-0.003	-0.0053	0.0015	0.024	0.1
-0.0068	-0.0098	-0.0008	0.0127	0.1
-0.0046	-0.0173	-0.0008	-0.003	0.2
0.0007	-0.021	-0.003	-0.003	0.2
-0.0008	-0.0293	-0.0015	-0.0015	0.2
-0.0015	-0.033	-0.0015	-0.0038	0.2
-0.0015	-0.027	0.0007	-0.003	0.2
-0.0053	-0.0248	0.0045	-0.0023	0.2
-0.0053	-0.0181	0.0045	-0.003	0.2
-0.0015	-0.0091	0.0045	-0.003	0.3
0.0007	0	0.0045	-0.006	0.3
0.0045	-0.003	0.0045	-0.0068	0.3
0.0052	-0.0158	0.0045	-0.0053	0.3
0.0037	-0.0203	0.003	-0.0053	0.3
0.003	-0.0195	0.0015	-0.0046	0.3
-0.0053	-0.0165	0.003	-0.003	0.3
-0.0091	-0.0143	0.0045	-0.0038	0.3
-0.006	-0.0128	0.0022	-0.003	0.3
-0.0023	-0.0075	0.0015	-0.0053	0.3
0.0015	-0.0038	-0.0015	-0.0165	0.4
0.0015	-0.0053	-0.003	-0.0203	0.4
-0.0015	-0.012	-0.0015	-0.0143	0.4
-0.0023	-0.0195	0.0007	-0.0128	0.4
-0.0008	-0.0181	0.0007	-0.0053	0.4
-0.0046	-0.0225	0.0015	0.003	0.4
-0.0128	-0.0428	-0.0008	0.0082	0.4
-0.0173	-0.0428	-0.0038	0.0202	0.4
-0.012	-0.0158	-0.0038	0.0352	0.4
-0.0091	-0.0105	-0.0008	0.051	0.4
-0.0046	-0.0068	0.0015	0.0382	0.4
0.003	-0.003	0.0007	0.0007	0.4
0.0067	-0.003	0.0037	-0.0091	0.4
0.012	0.0075	0.0052	-0.012	0.4
0.0172	0.0105	0.003	-0.0188	0.4
0.0217	0.0075	0.0082	-0.0158	0.4
0.018	0.0045	0.009	-0.0105	0.4
0.009	0.0202	0.0082	0.0105	0.4
-0.0008	0.0225	0.0067	0.0307	0.5
-0.006	0.0045	0.003	0.027	0.5
-0.0091	-0.0023	0.0022	-0.0008	0.5
-0.0105	-0.0038	0.0007	-0.0278	0.5
-0.0083	-0.0158	0.0007	-0.0308	0.5
-0.006	-0.0218	0.0007	-0.021	0.5
-0.0068	-0.0143	-0.0008	-0.0091	0.5
-0.0068	-0.0158	0.0015	0.0097	0.5
-0.0068	-0.0128	0.0007	0.027	0.6
-0.0046	-0.0135	-0.0015	0.0345	0.6
-0.0015	-0.0158	-0.0023	0.033	0.6
0.0015	-0.0143	-0.003	0.0315	0.6
-0.0008	-0.0068	-0.0046	0.0165	0.6
0	0.0165	-0.003	-0.0083	0.6
0.0007	0.0142	-0.003	-0.0256	0.6
-0.0023	0.0015	-0.0023	-0.0338	0.6
-0.0046	0.0015	-0.003	-0.0293	0.6
-0.0023	-0.0075	-0.0023	-0.012	0.7
0.0022	-0.0098	0.003	-0.0008	0.7
0.0015	-0.0158	0.003	-0.0015	0.7
-0.0008	-0.0218	0.003	-0.0075	0.7
0.0015	-0.0165	0.0037	-0.012	0.7
0.0015	-0.012	0.0022	-0.0105	0.7
0.003	-0.0008	0.0007	-0.0143	0.7
0	-0.0038	0.0015	-0.0256	0.7
0.0015	-0.006	0.0045	-0.0285	0.7
0.003	0.0037	0.003	-0.0128	0.8
0.0007	0.0277	0.0022	0.0135	0.8
0.0007	0.042	0.0022	0.0532	0.8
-0.0008	0.0045	0.0007	0.0742	0.8
-0.003	-0.0173	-0.0008	0.0622	0.8
-0.003	-0.024	-0.0015	0.024	0.8
-0.003	-0.0338	0.0007	0.0052	0.8
-0.0023	-0.027	0.0007	0.0045	0.8
-0.0015	-0.0278	-0.0008	-0.0105	0.8
-0.0008	-0.0188	-0.0038	-0.0046	0.8
-0.0008	-0.0015	-0.0038	-0.0015	0.9
0.0015	0.0255	-0.003	-0.0046	0.9
-0.0038	0.0255	-0.0046	-0.0098	0.9
-0.0068	0.0045	-0.0023	-0.0046	0.9
-0.0046	0.0067	0.0007	-0.0046	0.9
-0.006	-0.0008	0.003	-0.0098	0.9
-0.0068	-0.0015	0.0015	-0.0053	0.9
-0.0008	0	0	-0.0008	0.9
0.0082	0.0045	-0.003	0.0075	0.9
0.012	0.0007	-0.0053	0.0112	0.9
0.0075	-0.0256	-0.0053	0.0082	0.9
0.0015	-0.0293	-0.006	-0.0091	0.9
-0.0015	-0.0293	-0.0046	-0.024	0.9
-0.0046	-0.0308	-0.0015	-0.0278	0.9
-0.0083	-0.0278	0.0015	-0.0308	0.9
-0.012	-0.0285	0.0037	-0.03	1
-0.015	-0.0256	0.0052	-0.0278	1
-0.0105	0.0157	0.0067	-0.0256	1
-0.0046	0.0907	0.0067	-0.0075	1
0.0007	0.0757	0.0052	0.0202	1
0.0082	-0.0098	0.0007	0.051	1
0.0105	-0.0203	-0.003	0.0817	1
0.0142	-0.0098	-0.0046	0.0622	1
0.021	-0.003	-0.0038	0.0135	1
0.024	0.0052	-0.0015	0.0015	1.1
0.018	-0.0075	-0.003	0.0007	1.1
0.0045	-0.0068	-0.003	-0.0015	1.1
-0.0068	-0.003	-0.003	0.0007	1.1
-0.0083	-0.006	-0.0023	-0.0015	1.1
-0.0075	-0.0278	-0.0023	-0.003	1.1
-0.006	-0.0368	-0.0046	-0.0053	1.1
0.0037	-0.0195	-0.003	-0.0083	1.1
0.0045	-0.0165	-0.0008	-0.006	1.2
-0.0015	-0.0135	0.0015	-0.003	1.2
0.0015	-0.012	0.0052	-0.0015	1.2
0.003	-0.0091	0.0045	-0.0023	1.2
0.0037	-0.006	0.0067	-0.0008	1.2
0	-0.0075	0.009	-0.0015	1.2
-0.0053	-0.003	0.0082	-0.0015	1.2
-0.0046	-0.0015	0.0097	-0.0023	1.2
-0.003	0.0015	0.009	-0.0015	1.2
-0.0046	0.0022	0.0067	-0.0008	1.3
-0.0053	0.003	0.0067	-0.0015	1.3
-0.0046	0.0007	0.0082	-0.0091	1.3
-0.0038	-0.0008	0.009	-0.015	1.3
-0.0053	0.0007	0.0067	-0.012	1.3
-0.0068	0.0015	0.003	-0.0105	1.3
-0.0068	0.009	0.0022	-0.0068	1.3
-0.0053	0.0285	0.0045	-0.0008	1.3
-0.0053	0.033	0.0052	0.0075	1.3
-0.0046	0.0135	0.003	0.0157	1.3
-0.003	0.012	0.003	0.033	1.3
-0.003	0.0142	0.0015	0.0547	1.3
-0.0015	0.0067	0.0015	0.0495	1.3
-0.003	-0.0015	0.0022	0.0082	1.3
-0.0075	-0.0083	0.0007	-0.0083	1.4
-0.0068	-0.0113	0	-0.0046	1.4
-0.006	-0.0158	0	-0.0091	1.4
-0.0053	-0.015	-0.0008	-0.0068	1.4
-0.0015	-0.0143	-0.0023	-0.0083	1.4
-0.0008	-0.012	-0.0008	-0.0046	1.4
-0.0023	-0.0158	-0.0015	-0.0015	1.4
-0.0053	-0.0135	-0.0008	0.0045	1.4
-0.0075	-0.0046	0.0007	0.0067	1.4
-0.0105	-0.0083	0.0022	0.0015	1.4
-0.015	-0.0158	0.0037	0.003	1.5
-0.0105	-0.0158	0.0037	-0.0008	1.5
-0.0023	-0.0113	0.0015	-0.003	1.5
0.0007	-0.0068	0.0007	0.0015	1.5
0.0045	0.0037	0.0015	0.0022	1.5
0.0067	0.012	0.0007	0.0022	1.5
0.0007	0.012	0.0015	-0.0015	1.5
0.0052	0.0187	0.0045	-0.0083	1.5
0.0112	0.0202	0.003	-0.012	1.5
0.0022	0.0127	0.0007	-0.0105	1.5
-0.0015	0.003	0.0015	-0.0046	1.6
0	-0.0015	-0.0023	-0.003	1.6
0.0097	-0.0091	-0.0053	-0.0053	1.6
0.0277	-0.015	-0.0023	-0.0023	1.6
0.0397	-0.0008	-0.0015	0.0007	1.6
0.0412	-0.0023	-0.0008	0.0052	1.6
0.0367	0.0022	-0.0015	0.012	1.6
0.027	0.0082	-0.0053	0.0195	1.6
-0.0015	-0.0091	-0.003	0.0157	1.6
-0.0256	-0.0165	0.0037	0.003	1.7
-0.0195	-0.0188	0.0082	0.0015	1.7
-0.0165	-0.0165	0.0052	0.0037	1.7
-0.0128	-0.0143	0.003	-0.0008	1.7
-0.0068	-0.0203	0.003	-0.0053	1.7
-0.0083	-0.0248	0	-0.006	1.7
-0.003	-0.0203	0.0015	-0.0046	1.7
-0.0046	-0.0105	-0.0015	-0.0068	1.7
-0.0053	0.0037	-0.006	-0.0046	1.8
-0.0046	0.0105	-0.0053	-0.003	1.8
-0.0053	0.0097	-0.006	-0.0023	1.8
-0.003	0.0007	-0.0068	0.0007	1.8
-0.003	-0.006	-0.003	0.0022	1.8
-0.0015	-0.003	-0.0015	0.0067	1.8
-0.0091	-0.0165	-0.0008	0.0037	1.8
-0.0091	-0.0488	0.0015	-0.0008	1.8
-0.0046	-0.06	-0.0015	-0.003	1.8
-0.0046	-0.0346	-0.006	-0.0053	1.8
-0.0023	-0.0091	-0.0038	-0.006	1.8
-0.0053	0.0037	-0.0008	-0.0075	1.8
-0.0075	0.0052	0.0007	-0.0083	1.8
0	-0.0091	0.0037	-0.003	1.8
0.0037	-0.0008	0.003	-0.0008	1.9
0.003	0.0105	0.0007	0.0082	1.9
-0.0008	0.012	-0.0015	0.024	1.9
-0.0046	0.0232	-0.003	0.0255	1.9
-0.0053	0.0202	-0.0008	0.0135	1.9
0.0007	0.0345	-0.0008	0.0067	1.9
0.0015	0.0345	0	0.0127	1.9
-0.0008	0.006	-0.0008	0.0127	1.9
0.0007	-0.0046	-0.0008	0.0067	1.9
-0.003	-0.0165	-0.0015	0.0052	1.9
-0.0038	-0.0233	-0.0023	0.0007	1.9
-0.0038	-0.0091	0	-0.003	1.9
-0.0015	0.0172	0.0015	-0.003	1.9
0.0007	0.0255	0.0007	0.0015	2
-0.003	0.0082	-0.0015	-0.012	2
-0.0008	0.018	-0.0008	-0.024	2
0	0.021	0.0007	-0.0181	2
-0.0015	0.0165	0.0015	-0.0105	2
-0.0068	0.0277	0.0015	-0.012	2
-0.0068	0.0157	0.0007	-0.0181	2
-0.003	0.009	0.0052	-0.0165	2
-0.0008	-0.012	0.0075	-0.0181	2
0.0045	-0.0181	0.0052	-0.0165	2
0.0067	0.003	0.0037	-0.0233	2
0.0105	-0.003	0.003	-0.033	2.1
0.012	-0.0105	0.003	-0.0278	2.1
0.0067	-0.0158	0.0052	-0.03	2.1
0.0045	-0.0158	0.0105	-0.0278	2.1
0.006	-0.0181	0.009	-0.0105	2.1
0.0045	-0.0218	0.0052	0	2.1
-0.0053	-0.0165	0.0052	0.018	2.1
-0.0053	-0.0143	0.006	0.0592	2.1
-0.0091	-0.0083	0.0045	0.1177	2.1
-0.0098	0.0105	0.0045	0.1327	2.1
-0.0046	0.0135	0.0015	0.072	2.2
-0.0046	0.012	0.0045	0.048	2.2
-0.0008	0.0292	0.006	0.0727	2.2
0.0007	0.0172	0.0045	0.0675	2.2
-0.0008	-0.003	0.003	0.036	2.2
-0.003	-0.003	-0.0008	0.0015	2.2
-0.0075	-0.0053	-0.0046	-0.0046	2.2
-0.0105	-0.0091	-0.0038	-0.0128	2.2
-0.0068	-0.0181	-0.0023	-0.0158	2.2
-0.0015	-0.0225	-0.0046	-0.0173	2.2
-0.0008	-0.0165	-0.0053	-0.024	2.2
-0.0008	-0.0158	-0.0038	-0.0256	2.2
0	-0.0181	-0.0038	-0.0375	2.2
0.0007	-0.0165	-0.0023	-0.0405	2.2
0.0007	-0.0203	-0.003	-0.03	2.2
-0.0023	-0.0203	-0.0008	-0.021	2.3
-0.0068	-0.0195	0	-0.0218	2.3
-0.0075	-0.0135	-0.0008	-0.0195	2.3
-0.0046	-0.0053	-0.0015	-0.0218	2.3
-0.0008	0.0015	-0.0046	-0.0158	2.3
0.0067	0.018	-0.0023	-0.012	2.3
0.003	0.003	-0.003	-0.0091	2.3
-0.0023	-0.0165	-0.0046	0.003	2.3
0.0007	-0.0068	-0.0008	0.0067	2.3
0.0045	-0.0075	-0.0008	0.0045	2.3
0.003	0.0007	0.0007	0.003	2.3
-0.003	0.003	0.0015	0.0007	2.4
-0.0038	-0.0075	0.003	-0.0008	2.4
-0.0008	0.0105	0.0082	0.0045	2.4
0.0022	0.0307	0.0097	0.0045	2.4
0.0045	0.0405	0.0082	0.006	2.4
0.0022	0.0322	0.0045	0.0157	2.4
-0.006	0.0052	0.0015	0.0127	2.4
-0.0165	-0.0075	0.003	0.0045	2.4
-0.0158	-0.024	0.0052	0.003	2.4
-0.0083	-0.027	0.0052	-0.0023	2.4
0.003	-0.0091	0.003	-0.0068	2.4
0.0075	-0.0023	0	-0.0046	2.4
0.0037	0	0.0015	-0.003	2.4
0.0105	-0.006	0.0037	-0.0015	2.5
0.015	-0.0068	0.0082	-0.0008	2.5
0.0202	0	0.012	-0.0015	2.5
0.0202	-0.0053	0.0052	-0.003	2.5
-0.003	-0.003	0.0015	-0.0015	2.5
-0.0263	0.0015	0.0037	-0.0015	2.5
-0.0278	-0.0008	0.0007	-0.0015	2.5
-0.024	0.0015	-0.006	-0.0023	2.5
-0.024	0.006	-0.0083	-0.0023	2.5
-0.012	0.0097	-0.006	-0.0015	2.5
0.003	0.012	-0.0068	-0.0015	2.5
0.012	0.0067	-0.0053	-0.0008	2.6
0.0292	-0.0053	-0.003	0.0007	2.6
0.0382	-0.003	-0.0038	0.0015	2.6
0.0285	-0.0046	-0.003	0.0045	2.6
0.0195	-0.0091	-0.0053	0.0022	2.6
0.0082	-0.0075	-0.0046	0	2.6
-0.0105	-0.0135	-0.0046	0.0015	2.6
-0.0158	-0.012	-0.0053	0.0045	2.6
-0.0165	-0.0046	-0.0023	0.0082	2.6
-0.0128	-0.0008	0	0.0075	2.6
-0.0046	-0.0068	0.0007	0.003	2.6
-0.003	-0.0075	0	-0.0015	2.6
0.003	-0.0023	-0.0038	0.0007	2.6
0.003	-0.006	-0.003	0.0052	2.6
0.0097	0	-0.003	0.006	2.6
0.0112	-0.0053	-0.003	0.0067	2.6
-0.0008	-0.012	-0.0015	0.0082	2.6
-0.0046	0	0.0007	0.0067	2.6
-0.0068	0.003	0.0007	0.0082	2.6
-0.006	-0.012	0.0045	0.0105	2.6
-0.0008	-0.0218	0.0082	0.0045	2.6
0.003	-0.0188	0.0045	-0.0091	2.6
0.0007	-0.0128	0.003	-0.0113	2.7
-0.0015	0.0022	0.003	-0.0083	2.7
-0.0023	0.0067	0.003	-0.012	2.7
-0.0023	0.0037	0.003	-0.012	2.7
-0.0038	-0.0015	0.003	-0.0105	2.7
-0.0068	-0.0083	0.0007	-0.0075	2.7
-0.0083	0.0007	0	0.003	2.7
-0.0098	-0.0015	0.0045	0.0157	2.7
-0.0046	0.0082	0.0067	0.0352	2.7
0.003	0.0187	0.0075	0.048	2.7
0.0045	0.0045	0.0097	0.0345	2.7
0.0067	0.018	0.0105	0.0127	2.7
0.0052	0.042	0.009	0.0075	2.7
-0.0008	0.0562	0.0082	0.0075	2.7
-0.0008	0.0367	0.0052	0.0037	2.7
0.0015	0.0127	0.003	0.0015	2.7
-0.0023	0.0135	0.003	-0.0008	2.7
-0.0105	0	0.0045	-0.0046	2.7
-0.0143	-0.024	0.0052	-0.0075	2.7
-0.015	-0.0645	0.0045	-0.0068	2.7
-0.0083	-0.0683	0.003	-0.003	2.7
0.0007	-0.027	0.0022	-0.003	2.7
0.0052	-0.0113	0	-0.0038	2.7
0.0097	0.0007	-0.0008	-0.0046	2.7
0.0135	0.015	0	-0.0046	2.7
0.0112	0.0105	-0.0015	-0.0008	2.7
0.0052	0.0045	-0.0015	0.0045	2.7
0.0015	-0.003	0.0007	0.0127	2.7
0	0.0007	-0.0008	0.009	2.7
-0.0015	-0.0098	-0.003	-0.006	2.7
-0.0015	-0.027	-0.003	-0.0105	2.7
-0.0008	-0.015	-0.0015	-0.012	2.7
0.0037	-0.0083	-0.0008	-0.0068	2.7
0.0045	-0.0233	-0.0008	-0.0008	2.7
0.003	-0.027	0	-0.0068	2.7
-0.0015	-0.0158	0.0007	-0.0143	2.7
-0.0083	-0.0195	0.0015	-0.0158	2.7
-0.0128	-0.006	0.0015	-0.0143	2.7
-0.0143	0.0277	0.003	-0.0105	2.7
-0.012	0.0592	-0.0015	0.006	2.7
-0.0083	0.0712	-0.0091	0.0277	2.7
-0.0068	0.039	-0.0075	0.0345	2.7
-0.0143	0.0165	-0.0083	0.0172	2.7
-0.0181	-0.0083	-0.0091	-0.003	2.7
-0.0105	-0.0555	-0.0083	-0.0113	2.7
0.0022	-0.063	-0.012	-0.024	2.7
0.0097	-0.0548	-0.0098	-0.048	2.7
0.0045	-0.0323	-0.003	-0.0668	2.7
0.0022	-0.0181	0.003	-0.0578	2.7
0.0015	-0.0075	0.0082	-0.0428	2.7
-0.003	0.0022	0.009	-0.0308	2.7
0.0015	-0.0158	0.012	0	2.7
0.006	-0.006	0.0157	0.0405	2.7
0.0105	0.0157	0.0195	0.0682	2.8
0.015	0.042	0.0135	0.0847	2.8
0.0105	0.0412	0.0082	0.1072	2.8
0.009	0.0142	0.0075	0.1162	2.8
0.0067	0.0037	0.0007	0.0825	2.8
0.0015	-0.0203	-0.0008	0.0277	2.8
0	-0.0181	0.0007	0.0045	2.8
-0.0008	-0.003	0.003	0.0052	2.8
-0.0038	-0.0248	0.0015	0.003	2.8
-0.0046	-0.0143	0.0007	0.0105	2.8
-0.0053	-0.0015	0.0022	0.0202	2.9
-0.0046	0.0007	0.0007	0.0322	2.9
-0.0023	0.0142	-0.0008	0.0067	2.9
0	0.0225	-0.0015	-0.033	2.9
0.0015	0.006	-0.0008	-0.0511	2.9
-0.003	-0.0128	-0.0015	-0.0593	2.9
-0.0038	-0.0008	-0.0023	-0.039	2.9
-0.0046	-0.0015	-0.0023	-0.0278	2.9
-0.0083	0.0045	-0.0023	-0.0233	2.9
-0.0105	0.006	-0.0008	-0.0181	2.9
-0.0091	0.0112	0.006	-0.0143	2.9
-0.0015	0.0157	0.0105	-0.0098	3
-0.0008	0.003	0.0082	-0.0091	3
-0.0068	-0.0008	0.0052	-0.003	3
-0.0143	-0.0068	0.0052	-0.003	3
-0.0143	-0.012	0.003	0.0007	3
-0.0105	-0.0203	0.0022	0	3
-0.0053	-0.0308	0.0045	-0.006	3
0.0052	-0.0428	0.0037	-0.0083	3
0.0127	-0.0473	-0.0008	-0.012	3
0.0135	-0.0436	-0.0023	-0.0188	3
0.0187	-0.0293	-0.0038	-0.0218	3
0.0187	0	-0.003	-0.027	3
0.012	0.0217	0.0007	-0.024	3
0.0105	0.0375	0.003	0.0037	3.1
0.0082	0.063	0.0052	0.0292	3.1
0.0022	0.069	0.0045	0.03	3.1
-0.0053	0.0427	0	0.0345	3.1
-0.0135	0.0105	-0.0015	0.0375	3.1
-0.012	-0.0015	0	0.027	3.1
-0.0098	-0.012	0.003	0.009	3.1
-0.0083	-0.0135	0.003	0.006	3.1
-0.0038	-0.0075	0.0007	0.0097	3.1
-0.0015	-0.015	-0.0015	0.0045	3.1
0.0007	-0.0053	-0.003	0.003	3.1
0.0037	-0.0015	-0.003	0.0007	3.1
0.0045	-0.0015	-0.003	-0.0015	3.1
0	-0.0098	-0.0015	-0.0023	3.2
0.0007	-0.0203	-0.0015	-0.0015	3.2
0.003	-0.0038	-0.0046	-0.0015	3.2
-0.0015	-0.0053	-0.0046	-0.003	3.2
-0.0091	-0.0015	-0.0046	-0.006	3.2
-0.0218	0.009	-0.0023	-0.0083	3.2
-0.0225	0.0105	0	-0.006	3.2
-0.0135	0.0105	-0.0038	-0.0046	3.2
-0.012	0.0075	-0.0053	0.0052	3.2
-0.0023	0.0157	-0.0068	0.018	3.3
0.0097	0.0075	-0.0046	0.024	3.3
0.0232	-0.0233	-0.0008	0.0172	3.3
0.0375	-0.0383	-0.0015	0.0067	3.3
0.0405	-0.0038	0.0007	0.0052	3.3
0.0405	0.0082	0.0045	0.0037	3.3
0.027	-0.0046	0.003	0.0015	3.3
-0.0008	0.003	0.0037	0.0015	3.3
-0.0143	0.003	0.0022	-0.0008	3.4
-0.0128	0.0112	0.0007	-0.0008	3.4
-0.012	0.0052	-0.0008	-0.0046	3.4
-0.0105	-0.012	-0.0038	-0.0083	3.4
-0.0105	-0.0128	-0.0046	-0.0091	3.4
-0.0158	-0.0135	-0.0053	-0.012	3.4
-0.0143	-0.0105	-0.0038	-0.012	3.4
-0.0143	-0.0023	-0.003	-0.0083	3.5
-0.0091	0.0015	-0.0008	-0.0046	3.5
-0.003	-0.0023	0.003	-0.0053	3.5
-0.0015	-0.0046	0.0022	-0.0105	3.5
0.0007	-0.0195	0.003	-0.0158	3.5
0	-0.0308	0	-0.0233	3.5
-0.0053	-0.0285	-0.0015	-0.024	3.5
-0.0083	-0.0233	-0.0008	-0.0173	3.6
-0.0038	-0.0091	0	-0.015	3.6
-0.0023	-0.0105	0.0007	-0.0075	3.6
-0.003	-0.0105	0.0015	0.0045	3.6
0	0.0142	0.0022	0.027	3.6
0	0.0525	0.003	0.0607	3.7
0.0007	0.0532	0.003	0.0652	3.7
-0.0015	0.0345	0.0007	0.0442	3.7
-0.003	0.0337	0.0015	-0.0188	3.8
-0.0015	-0.0165	0.003	-0.093	3.8
-0.003	-0.0428	0.0067	-0.1095	3.8
-0.003	-0.0368	0.009	-0.0983	3.9
-0.003	-0.0225	0.0067	-0.0675	3.9
-0.0015	0.009	0.0052	-0.0278	3.9
-0.0046	-0.0023	0.0045	0.018	4
-0.0083	0.0307	0.0045	0.0862	4
-0.0143	0.0765	0.0007	0.1477	4
-0.0143	0.0615	0.0015	0.21	4
-0.0113	0.03	0.0015	0.2325	4
-0.0075	0.0022	0.0022	0.159	4.1
0.0015	-0.0083	0.0007	0.033	4.1
0.0052	-0.0203	-0.0015	-0.0383	4.2
0.0112	-0.0195	0.0007	-0.0323	4.2
0.0195	-0.0218	0	-0.042	4.3
0.018	-0.0278	0.0007	-0.0398	4.3
0.0157	-0.033	-0.0023	-0.0353	4.3
0.0052	-0.0338	-0.0038	-0.0338	4.4
-0.0046	-0.03	0	-0.027	4.4
-0.0046	-0.0203	0.0015	-0.0293	4.5
-0.006	-0.0046	0.0015	-0.0278	4.5
-0.0083	-0.0015	0.0022	-0.0338	4.5
-0.0083	0.0045	0.0067	-0.0361	4.6
-0.0008	-0.0015	0.0082	-0.0578	4.6
0.0015	-0.012	0.0097	-0.0721	4.7
-0.003	-0.0083	0.0082	-0.0593	4.7
-0.0008	-0.006	0.0067	-0.0375	4.7
0.0037	-0.003	0.0105	-0.0098	4.8
0.0052	-0.0053	0.009	0.0127	4.8
0.003	-0.0083	0.0052	0.0262	4.9
0.0015	-0.0046	0.0015	0.0307	4.9
-0.0008	-0.0053	0	0.0315	4.9
-0.0023	-0.0105	0	0.039	5
-0.003	-0.0083	-0.0015	0.0427	5
-0.0015	-0.0075	-0.0038	0.0202	5.1
0	-0.0091	-0.0046	-0.006	5.2
-0.0008	-0.0053	-0.0046	-0.0158	5.2
-0.0023	-0.003	-0.0038	-0.024	5.3
-0.0008	0.0045	-0.003	-0.0195	5.3
0.0015	0.0082	-0.0015	-0.012	5.3
-0.0008	0.0127	-0.0015	-0.003	5.4
0.0007	0.012	-0.003	0.0105	5.4
-0.0015	0.0015	-0.003	0.0247	5.5
-0.0046	-0.0046	-0.003	0.0457	5.5
-0.0023	-0.0181	-0.0038	0.0375	5.6
-0.003	-0.021	-0.006	0.012	5.7
-0.0015	-0.0068	-0.0068	-0.003	5.7
0.0015	-0.0083	-0.006	-0.0053	5.8
0.003	-0.0165	-0.006	-0.0046	5.8
0.0022	0.0075	-0.0015	-0.0038	5.8
0.0022	0.0607	0.0022	-0.003	5.9
0.0015	0.0652	0.0015	-0.0218	5.9
0.0015	0.015	0.003	-0.0405	6
0.0015	-0.0053	0.003	-0.0383	6.1
-0.0008	-0.0203	0.0015	-0.0346	6.1
0	-0.0128	0.003	-0.027	6.2
0.0007	0.0135	0.0052	-0.0113	6.2
0.0015	-0.0053	0.006	-0.0128	6.3
-0.0008	-0.027	0.006	-0.0188	6.3
-0.0038	-0.0015	0.0045	0.0007	6.4
-0.0023	0.0615	0.0067	0.0532	6.5
-0.0008	0.0742	0.009	0.1042	6.5
0.0007	0.0307	0.009	0.0862	6.6
0	0.0255	0.009	0.0292	6.6
0	0.0262	0.0052	-0.0068	6.7
-0.0008	-0.0023	0.003	-0.0203	6.7
-0.003	-0.003	0.0015	-0.0046	6.8
-0.0015	-0.0015	0.0007	-0.0053	6.8
-0.0015	-0.0293	-0.0015	-0.0181	6.9
-0.0046	-0.0361	-0.0023	0.0022	7
-0.0015	-0.039	-0.0015	0.021	7
-0.0015	-0.045	-0.0008	0.0195	7.1
-0.0046	-0.0405	-0.0015	0.009	7.2
-0.0046	-0.045	0	0.0097	7.2
-0.0015	-0.0346	0.003	0.0037	7.2
-0.0015	-0.0158	0.0007	-0.0181	7.3
-0.0038	0.0067	0.0007	-0.033	7.4
-0.0046	0.0082	0.0007	-0.0375	7.4
-0.0015	-0.006	0.0007	-0.0458	7.5
-0.0015	-0.0143	-0.0008	-0.039	7.6
-0.0015	-0.0225	-0.0053	-0.0218	7.6
-0.0015	-0.0188	-0.003	-0.0195	7.7
-0.0015	-0.0195	-0.0038	-0.0158	7.7
-0.0015	-0.0158	-0.003	-0.0015	7.8
-0.003	-0.0158	-0.0015	0.0277	7.9
-0.003	-0.0158	-0.0023	0.0315	7.9
-0.0015	-0.0158	-0.0008	-0.0015	8
-0.003	-0.0023	-0.0015	-0.0308	8.1
-0.0046	0.012	0.0007	-0.0495	8.1
-0.003	0.009	0.0015	-0.0495	8.2
0.0015	0.0307	0	-0.0256	8.2
0.003	0.0547	0.0007	-0.0143	8.3
0.003	0.0405	0	-0.0353	8.4
0.0015	0.0172	0	-0.0398	8.4
-0.0015	-0.003	-0.0008	-0.0173	8.5
-0.0038	-0.0278	-0.003	0.0322	8.5
-0.0046	-0.027	-0.003	0.042	8.6
-0.0053	-0.039	-0.003	0.0165	8.7
-0.003	-0.0465	-0.0015	0.0345	8.8
-0.0023	-0.0203	0	0.084	8.8
0.0007	0.0382	0.0022	0.1717	8.9
0.0045	0.0825	0.0015	0.2482	9
0.0037	0.0525	-0.0008	0.156	9
0.0007	0.018	-0.003	0.0255	9.1
-0.0008	-0.0008	-0.003	0.057	9.1
0.0007	-0.0038	-0.0015	0.0532	9.2
0.0007	-0.003	0	0.0067	9.3
0.0007	-0.0158	0.0007	-0.012	9.4
0.0022	-0.0188	0.0007	-0.0293	9.4
0.0015	-0.021	0	-0.03	9.5
0.0007	-0.0195	0.0007	-0.0495	9.5
0.0015	-0.0195	0.003	-0.0503	9.6
0.0007	-0.0181	0.0045	-0.054	9.7
0.0007	-0.0248	0.0045	-0.0525	9.8
0.0007	-0.0308	0.003	-0.0465	9.9
-0.0008	-0.0308	0.003	-0.0413	9.9
0	-0.0308	0.0022	-0.039	10
0.0007	-0.0278	0.0015	-0.0405	10.1
-0.0008	-0.027	0.003	-0.0383	10.1
-0.0023	-0.0218	0.003	-0.0353	10.2
-0.003	-0.003	0.0037	-0.0165	10.3
-0.0015	0.045	0.0045	0.0195	10.3
0.0007	0.0855	0.0045	0.0457	10.4
0.0007	0.0592	0.0052	0.0172	10.5
0.0015	0.0217	0.0052	-0.0158	10.6
0.0045	0.033	0.006	-0.0165	10.7
0.003	0.021	0.0082	-0.0233	10.7
0.0007	-0.0091	0.0075	-0.0323	10.8
0.0015	-0.0165	0.0075	-0.0383	10.9
0.0007	-0.0278	0.0067	-0.045	10.9
-0.003	-0.0218	0.006	-0.0413	11
-0.0046	-0.012	0.0052	-0.021	11.1
-0.0008	-0.0015	0.0045	0.0052	11.2
0.0007	0.0157	0.0045	0.0105	11.2
-0.0008	0.0112	0.0015	0.003	11.3
-0.0015	0.0007	0.0015	0.0105	11.4
-0.003	0.0142	0	0.0352	11.5
-0.0046	0.0405	-0.0008	0.0652	11.6
-0.003	0.0165	0.0007	0.0967	11.7
-0.003	-0.0105	0.0015	0.0765	11.7
-0.0046	-0.0128	0.0007	0.0067	11.8
-0.0038	-0.021	0.0015	-0.0143	11.9
0.0007	-0.0135	0.003	-0.0158	12
0.0015	-0.0053	0.0015	-0.0225	12.1
0.0015	0.0037	0.0007	-0.0233	12.1
-0.0023	-0.003	-0.0008	-0.0225	12.2
-0.0023	-0.0046	-0.003	-0.0113	12.3
0.0022	0.0037	-0.003	-0.0083	12.4
0.0045	0.0075	-0.0038	-0.0091	12.4
0.003	0.0142	-0.0023	-0.0113	12.5
0.0015	0.0067	-0.0046	-0.003	12.6
0.0007	0.003	-0.006	0.024	12.7
0	-0.0128	-0.0046	0.054	12.7
-0.0008	-0.0225	-0.0053	0.0405	12.8
-0.0015	-0.0308	-0.0053	0.0075	12.9
-0.0038	-0.0368	-0.0046	-0.0046	13
-0.0023	-0.0315	-0.0053	-0.0181	13
-0.0008	-0.0368	-0.003	-0.0203	13.1
0.0007	-0.0368	-0.0008	-0.015	13.2
-0.0008	-0.0285	0	-0.0091	13.3
-0.003	-0.0181	-0.0008	-0.0015	13.4
-0.0038	-0.0113	-0.003	0.0022	13.5
-0.0068	-0.0173	-0.006	-0.0015	13.5
-0.0068	-0.024	-0.0053	-0.0083	13.6
-0.0053	-0.012	-0.003	0.0067	13.7
-0.0046	-0.0083	-0.0023	0.0232	13.8
-0.0038	-0.0188	-0.0023	0.024	13.8
-0.003	-0.0165	0.0007	0.0082	13.9
-0.0015	-0.015	0.0007	-0.0046	14
-0.003	-0.0075	0	0.0007	14
-0.0038	-0.0046	0.0015	0.0045	14.1
-0.0046	-0.0158	0.0015	0.0007	14.2
-0.0046	-0.0143	0.0015	-0.0105	14.3
-0.003	-0.0113	0.0037	-0.0225	14.4
-0.0008	-0.0015	0.0052	-0.0218	14.4
0.0007	0.0052	0.0045	-0.0075	14.5
-0.0008	0.0127	0.0045	0.012	14.6
0.0007	0.021	0.0015	0.0277	14.7
0.0007	0.0165	0.0022	0.036	14.8
0.0037	0.0157	0.0052	0.021	14.9
0.0052	0.0127	0.006	0.0007	15
0.0045	0.0075	0.0045	-0.0091	15
0.0067	0.0067	0.0022	-0.0233	15.1
0.0045	0.009	0.003	-0.0361	15.2
0.003	0.0105	0.003	-0.0368	15.3
0.003	0.0082	0.0015	-0.024	15.4
0.0015	0.006	0.0007	-0.0113	15.5
0.003	0.0195	0.0022	-0.0053	15.5
0.003	0.0397	0.0045	0.0217	15.6
0.0037	0.0382	0.0052	0.0705	15.7
0.0022	0.0165	0.0045	0.0577	15.8
0.0007	0.0015	0.0052	-0.003	15.9
0.0015	0.006	0.0052	-0.024	16
0.0007	0.021	0.003	-0.0368	16.1
0.0015	0.009	0.0022	-0.0488	16.2
0.0007	-0.0308	0.0007	-0.0368	16.2
0.0007	-0.042	0	-0.0233	16.3
0.0007	-0.0308	0.0015	-0.0361	16.4
0.0015	0.0045	0	-0.048	16.5
0.0022	0.0427	0	-0.0293	16.6
0.0007	0.0315	-0.0008	-0.0068	16.6
-0.0008	0.06	-0.0023	0.0247	16.7
0	0.1275	-0.0008	0.0585	16.8
0.0007	0.1065	0.003	0.0907	16.9
0.0015	0.0652	0.003	0.0915	17
0.003	0.0225	0.0007	0.0585	17.1
-0.0008	-0.033	0.0007	0.0817	17.1
-0.0038	-0.0293	-0.0008	0.1335	17.2
-0.0046	-0.045	-0.0015	0.108	17.3
-0.0068	-0.0398	-0.0008	0.0412	17.4
-0.003	-0.033	0	0.009	17.5
-0.0015	-0.06	-0.0008	0.0142	17.6
-0.003	-0.0548	-0.0023	0.0292	17.7
-0.0046	-0.0593	-0.0015	0.0052	17.8
-0.0068	-0.0623	-0.0015	-0.0158	17.8
-0.0091	-0.063	-0.003	-0.0308	17.9
-0.012	-0.0615	-0.0015	-0.0458	18
-0.0105	-0.0511	-0.0008	-0.0436	18.1
-0.0128	-0.0383	-0.0023	-0.0533	18.2
-0.0158	-0.0278	-0.003	-0.0503	18.3
-0.0135	-0.0165	-0.0015	-0.0465	18.4
-0.0105	-0.0075	-0.0008	-0.039	18.4
-0.0068	0.0007	0	-0.027	18.5
-0.006	0.0022	-0.0023	-0.0233	18.6
-0.0038	-0.0008	-0.0008	-0.0278	18.7
-0.0008	0.0037	0.0022	-0.0315	18.8
0.0007	0.003	0.0015	-0.0285	18.9
0.0007	0.0082	0.003	-0.024	18.9
0.0015	0.0127	0.003	-0.0143	19
0.003	0.0142	0.0015	-0.0181	19.1
0.0037	0.0165	0.003	-0.0195	19.2
0.0052	0.0127	0.0052	-0.0181	19.3
0.0052	0.0105	0.0045	-0.0195	19.3
0.0075	0.0112	0.0045	-0.0256	19.4
0.0052	0.0165	0.0045	-0.027	19.5
0.0052	0.0142	0.0045	-0.0091	19.6
0.0067	0.0105	0.0067	0.012	19.7
0.0045	0.0052	0.0045	0.0352	19.8
0.0037	0.0045	0.0045	0.0465	19.8
0.0045	0.0015	0.003	0.0412	19.9
0.0045	-0.0023	-0.0008	0.027	20
0.0052	-0.0046	-0.0015	0.021	20.1
0.0045	-0.0128	-0.0008	0.0345	20.2
0.0045	-0.0113	0.0007	0.0427	20.2
0.0022	-0.0135	0.0007	0.0292	20.3
0.0015	-0.012	0.0022	0.027	20.4
-0.0008	0	0.0052	0.024	20.5
-0.0015	-0.0046	0.0045	0.009	20.6
-0.0008	-0.0046	0.003	-0.0046	20.7
-0.0023	0.0015	0.0015	-0.0181	20.7
-0.003	0.0045	0.0037	-0.0038	20.8
-0.0015	0.0135	0.0052	0.0127	20.9
0	0.024	0.003	0.0255	21
0.0015	0.0315	0.0045	0.0172	21.1
0.0007	0.0255	0.003	-0.0008	21.1
-0.0015	0.0225	0.0015	0	21.2
-0.0015	0.0285	0.0045	-0.012	21.3
-0.0015	0.036	0.0075	-0.0143	21.4
0.0015	0.0397	0.0067	-0.006	21.5
0.0045	0.0337	0.006	0.0007	21.5
0.0067	0.024	0.0052	-0.0083	21.6
0.0052	0.0105	0.003	-0.0361	21.7
0	0.0082	0	-0.0638	21.7
-0.0008	0.012	-0.0015	-0.0645	21.8
0	0	-0.0023	-0.033	21.9
0.0007	-0.0075	-0.0015	-0.0091	22
0.0015	-0.0128	-0.0015	-0.0053	22
0.0015	-0.027	-0.0023	-0.0128	22.1
0.0007	-0.042	-0.0038	-0.0083	22.2
-0.0015	-0.0458	-0.003	0.0105	22.3
-0.0023	-0.0443	0	0.003	22.4
-0.003	-0.0511	-0.0008	-0.0308	22.5
-0.0046	-0.0473	-0.0015	-0.027	22.5
-0.0068	-0.0181	-0.0008	0.033	22.6
-0.003	-0.0128	-0.0008	0.0285	22.7
-0.0015	-0.0053	-0.0008	-0.0645	22.8
-0.0038	-0.0046	-0.0053	-0.0488	22.8
-0.0068	-0.0458	-0.0068	0.036	22.9
-0.0083	-0.0248	-0.0068	0.0607	23
-0.0046	0.027	-0.0105	0.1192	23
-0.0053	0.0375	-0.012	0.1777	23.1
-0.0053	0.0052	-0.0128	0.1065	23.2
-0.0083	-0.0225	-0.0105	0.0727	23.3
-0.0091	-0.0195	-0.0091	0.1012	23.4
-0.0046	-0.0173	-0.0053	0.042	23.4
-0.0008	-0.006	-0.0008	-0.003	23.5
-0.0008	-0.006	-0.0015	-0.0488	23.6
-0.006	-0.0075	-0.0023	-0.09	23.7
-0.0105	-0.0053	-0.0008	-0.0593	23.8
-0.0091	-0.003	0.0015	-0.0195	23.8
-0.0098	-0.0023	0.006	0.0015	23.9
-0.0083	-0.0046	0.0067	0.0075	24
-0.0053	-0.0008	0.0067	0.012	24
-0.0046	0.015	0.0052	0.0082	24.1
-0.0015	0.0172	0.0045	-0.0195	24.2
-0.0008	-0.0008	0.0067	-0.0555	24.3
0.0015	-0.0158	0.0075	-0.042	24.3
0.0052	-0.024	0.0082	-0.027	24.4
0.0052	-0.027	0.0075	-0.0458	24.5
0.0052	0.006	0.0052	-0.048	24.6
0.0045	0.06	0.0052	-0.0346	24.7
0.0045	0.0532	0.0052	-0.0113	24.7
0.0007	0.0127	0.0037	-0.0113	24.8
-0.0008	0.0165	0.0015	-0.0263	24.8
0	0.0202	-0.0008	-0.0195	24.9
-0.0015	0.0007	-0.003	0.0022	25
0.0007	-0.0181	-0.003	0.0225	25.1
0.0052	-0.0143	0.0007	0.0382	25.2
0.0052	-0.0143	0.0007	0.0277	25.2
0.0045	-0.0181	0.0007	0.0015	25.3
0.006	-0.0083	0.003	-0.0053	25.4
0.0052	-0.0015	-0.0015	-0.0053	25.5
0.0022	0.0052	-0.0015	0.0112	25.5
0.003	0.009	-0.0023	0.0427	25.6
0.0022	0.009	-0.0038	0.0825	25.7
0.0015	-0.0008	-0.0008	0.1065	25.8
0.0037	-0.0098	0.0007	0.0472	25.8
0.0022	-0.0248	0.0022	-0.0181	25.9
0.0015	-0.033	0	-0.0128	26
0.0022	-0.0285	-0.0015	-0.0128	26.1
0.0022	-0.012	-0.0008	0.0067	26.1
-0.0008	-0.003	-0.0015	0.0127	26.2
-0.0046	-0.0158	-0.0008	-0.0068	26.3
-0.0053	-0.0128	-0.0023	-0.0075	26.4
-0.0053	-0.0015	-0.0015	-0.027	26.5
-0.0046	0.009	0.0015	-0.06	26.5
-0.0053	0.0142	0	-0.0728	26.6
-0.006	0.0165	0.0022	-0.063	26.7
-0.0046	0.0127	0.003	-0.0608	26.8
-0.0023	0.0135	0.0037	-0.0278	26.8
0	0.0157	0.0045	0.0015	26.9
-0.0008	0.006	0.0022	0.0157	27
-0.0015	0.0007	0.0022	0.0217	27
-0.003	-0.0098	0.003	0.024	27.1
-0.0023	-0.0203	0.0022	0.0375	27.2
-0.0008	-0.0248	0.0015	0.048	27.3
-0.0015	-0.0218	0	0.0577	27.4
-0.003	-0.0188	-0.003	0.0547	27.4
-0.0053	-0.0195	-0.0046	0.048	27.5
-0.0068	-0.0165	-0.0046	0.0345	27.6
-0.0068	-0.0203	-0.0046	0.0277	27.7
-0.0083	-0.024	-0.0053	0.0165	27.8
-0.006	-0.0263	-0.0053	0	27.8
-0.0038	-0.0263	-0.0023	-0.0195	27.9
-0.003	-0.0256	0	-0.039	28
-0.0038	-0.027	0.003	-0.0511	28.1
-0.003	-0.0181	0.0022	-0.0788	28.1
0.0007	0.0217	0.003	-0.0721	28.2
0.0052	0.057	0.009	-0.0436	28.3
0.0052	0.0592	0.0082	-0.045	28.3
0.0037	0.0855	0.0067	-0.0533	28.4
0.0015	0.1035	0.0052	-0.0721	28.5
-0.0008	0.0765	0.003	-0.0743	28.6
-0.0008	0.0555	0.0052	-0.0713	28.7
-0.0015	0.0172	0.006	-0.078	28.8
0.0022	0.009	0.0052	0.0015	28.8
0.0052	0.0202	0.0082	0.09	28.9
0.0075	0.006	0.0097	0.1447	29
0.0075	0.0045	0.0082	0.1402	29.1
0.0045	-0.0165	0.0067	0.0187	29.2
0.0037	-0.033	0.0052	-0.0413	29.2
0.003	-0.0383	0.003	0.003	29.3
0.0015	-0.0511	0.0045	0.0592	29.4
0.0007	-0.0675	0.0022	0.0637	29.5
-0.0046	-0.0773	-0.0038	0.063	29.6
-0.0091	-0.0533	-0.0053	0.1342	29.6
-0.0068	-0.021	-0.0023	0.2077	29.7
-0.0046	-0.003	-0.0023	0.186	29.8
-0.0075	-0.0008	-0.0046	0.084	29.9
-0.0083	-0.0083	-0.003	0.0307	29.9
-0.006	-0.0278	-0.0015	-0.0091	30
-0.003	-0.021	0	-0.0518	30.1
-0.0008	-0.0068	0.0007	-0.057	30.1
0.0007	-0.0098	0.0007	-0.0653	30.2
0	-0.0015	0	-0.0615	30.3
-0.0008	-0.003	0	-0.0563	30.4
0	0.0007	0.0007	-0.0443	30.5
0.0007	-0.0015	0	-0.0346	30.6
0	0.003	0.0007	-0.0315	30.6
0	0.0232	0.0022	-0.0308	30.7
-0.0008	0.018	0.0015	-0.0338	30.8
-0.0015	0.0022	0.0015	-0.0256	30.8
-0.0015	-0.0091	0.0022	-0.024	30.9
-0.0015	-0.0075	0.003	-0.0368	31
-0.0015	-0.006	0.0015	-0.0405	31
-0.0015	-0.0083	0.003	-0.0256	31.1
0.0007	-0.0091	0.0052	-0.012	31.2
0.0022	-0.0091	0.0067	-0.0158	31.3
0.0007	-0.0091	0.0082	-0.0143	31.4
-0.0008	-0.0075	0.0052	-0.0105	31.4
-0.0023	-0.003	0.006	-0.0053	31.5
-0.0038	-0.0053	0.0015	0.0067	31.6
-0.0008	-0.0053	0.0022	0.0007	31.6
0.0045	-0.0068	0.0045	-0.0158	31.7
0.0022	-0.0053	0.0022	-0.042	31.8
-0.0015	0.0045	0.0052	-0.048	31.9
-0.0023	0.0105	0.0052	-0.0368	31.9
-0.0023	0.0195	0.0052	-0.0308	32
0.0007	0.0217	0.003	-0.0308	32.1
0.0007	0.0165	0.0037	-0.0428	32.2
0.0015	0.015	0.003	-0.0578	32.3
0.0045	0.021	0.0015	-0.099	32.4
0.0052	0.03	0.0045	-0.1006	32.4
0.0067	0.033	0.0037	-0.057	32.5
0.0075	0.0217	0.0007	-0.003	32.6
0.003	0.0172	0	0.066	32.7
0.0022	0.027	0.0015	0.1312	32.7
0.0082	0.039	0.0015	0.1725	32.8
0.0082	0.0487	0.0007	0.111	32.9
0.003	0.033	-0.0023	0.0697	32.9
-0.0015	-0.006	-0.0053	0.0937	33
-0.0053	-0.0368	-0.0083	0.0892	33.1
-0.0068	-0.0555	-0.006	0.1215	33.2
-0.0053	-0.057	-0.006	0.1785	33.3
-0.0053	-0.027	-0.0038	0.108	33.3
-0.0038	-0.0091	-0.003	-0.0218	33.4
-0.0015	-0.027	-0.0046	-0.0285	33.5
-0.0015	-0.0413	-0.003	-0.0346	33.6
-0.0015	-0.0368	-0.003	-0.033	33.7
-0.0023	-0.0398	-0.0015	-0.0158	33.7
-0.0083	-0.045	-0.0008	-0.0046	33.8
-0.0091	-0.0375	0.0007	0.015	33.9
-0.0105	-0.0188	0.0007	-0.0181	34
-0.0098	0.003	0.0007	-0.0383	34.1
-0.0075	0.012	0.0015	-0.0383	34.1
-0.0038	0.0195	0.0007	-0.0361	34.2
-0.0015	0.0307	0.003	-0.0181	34.3
0.0007	0.024	0	0.0495	34.4
-0.0008	0.0067	-0.0046	0.0742	34.5
-0.0053	-0.0091	-0.0053	-0.0046	34.6
-0.0053	-0.0158	-0.0046	-0.0256	34.6
-0.0038	-0.0091	-0.006	-0.0218	34.7
-0.0008	-0.0075	-0.003	-0.0405	34.8
0.0052	-0.0083	0.0022	-0.0308	34.9
0.0082	-0.0195	0.0037	-0.0473	35
0.0067	-0.0465	0.003	-0.075	35.1
0.0045	-0.0518	0	-0.126	35.1
0.0015	-0.0293	-0.0015	-0.1163	35.2
-0.0015	-0.0173	-0.0015	-0.0675	35.3
-0.0008	-0.03	-0.0008	-0.0518	35.4
-0.0015	-0.0315	0.0007	-0.0181	35.5
0.0007	0.0382	0.003	0.018	35.5
0.006	0.1552	0.0037	0.0277	35.6
0.0045	0.1897	-0.0015	0.0202	35.7
0	0.0907	-0.003	0.054	35.8
-0.0015	0.0052	-0.0046	0.0547	35.8
-0.0038	-0.003	-0.0053	0.0315	35.9
-0.0038	-0.0165	-0.003	0.0322	36
0	-0.0225	-0.0038	0.0367	36.1
0.0015	-0.0383	-0.0046	0.0427	36.1
-0.0015	-0.0436	-0.0038	0.0277	36.2
-0.0008	-0.0248	-0.0008	0.0255	36.3
0.0007	-0.0173	-0.0015	0.0457	36.4
0.0015	-0.003	0	0.0705	36.5
0.0022	-0.0053	0.0037	0.0615	36.5
0	0.003	0.0037	0.027	36.6
-0.0015	0.0105	0.006	-0.0068	36.7
-0.0008	-0.0158	0.0067	-0.0105	36.8
-0.003	-0.0308	0.0052	0.021	36.9
-0.0023	-0.0278	0.0045	0.0667	37
0.0007	-0.0218	0.0045	0.1402	37.1
0.0007	-0.0181	0.0045	0.102	37.1
0.0007	-0.0195	0.0045	-0.0181	37.2
-0.0008	-0.0248	0.006	-0.0615	37.3
-0.0038	-0.024	0.0045	-0.0968	37.4
-0.0053	-0.0173	0.0037	-0.099	37.5
-0.0046	-0.0083	0.0022	-0.0825	37.6
-0.0046	0	0.0037	-0.0765	37.6
-0.0008	0.0082	0.0067	-0.0458	37.7
-0.0008	0.0127	0.0067	-0.0308	37.8
-0.0015	0.0157	0.0082	-0.03	37.9
-0.0015	0.0232	0.0052	-0.0218	38
-0.0023	0.0165	0	0.0082	38.1
-0.0053	0.0082	-0.0046	0.0052	38.1
-0.0068	0.0007	-0.0046	-0.0023	38.2
-0.0053	-0.0053	-0.0046	0.0112	38.3
-0.0023	-0.0053	-0.0008	0.0345	38.4
0	-0.0113	-0.0015	0.0577	38.5
-0.0023	-0.0165	-0.006	0.0547	38.5
-0.0038	-0.0091	-0.003	0.084	38.6
0.0015	0.0067	0	0.1005	38.7
0.0052	-0.0046	0.0022	0.0255	38.8
0.003	-0.0181	0.0037	-0.0503	38.9
0.0037	-0.0128	0.0007	-0.0623	38.9
0.0022	-0.006	0.0022	-0.0608	39
-0.0015	0.015	0.0045	-0.0398	39.1
-0.003	0.015	0.003	-0.027	39.2
-0.003	-0.003	0.0045	-0.0353	39.3
0.0007	0.0195	0.0022	-0.0578	39.3
0.003	0.0457	0.0015	-0.0593	39.4
0.0045	0.0435	0.0007	-0.0525	39.5
0.003	0.0255	0	-0.0563	39.6
0.003	0.009	-0.0008	-0.0075	39.7
0.0052	0.0022	-0.0015	0.0217	39.8
0.0015	-0.0023	-0.0023	0.0277	39.8
0.003	0.0007	-0.0038	0.042	39.9
0.003	0.0067	-0.0023	0.0735	40
0	0.0015	-0.003	0.0652	40.1
0	-0.0256	-0.003	0.033	40.2
-0.0046	-0.0473	-0.0015	0.0517	40.3
-0.0046	-0.0465	0.0015	0.0322	40.4
-0.003	-0.039	0.003	-0.0173	40.4
-0.0046	-0.0308	0.0037	-0.042	40.5
0.0007	-0.015	0.0082	-0.0278	40.6
0.0022	-0.006	0.0082	-0.0008	40.7
0.0007	-0.0091	0.0075	0.0075	40.8
0.0015	-0.0113	0.0067	0.0067	40.9
-0.0008	0.0007	0.0045	-0.0105	40.9
-0.0053	0.0127	0.0007	-0.0338	41
-0.0068	0	-0.0008	-0.0195	41.1
-0.0068	-0.0008	0.0007	-0.006	41.2
-0.006	0.0015	0.003	0.0127	41.3
-0.0075	-0.0015	0.003	0.0637	41.4
-0.0053	-0.0046	0.003	0.078	41.4
-0.0046	-0.0143	0.003	0.039	41.5
-0.003	0.0015	0.0022	0.012	41.6
0	0.0232	0.0022	0.0285	41.7
0.0015	0.0067	0.0015	0.0075	41.8
0.0015	-0.0173	0.0015	-0.0158	41.8
0	-0.0263	0.0022	-0.0248	41.9
0	-0.0248	0.0052	-0.075	42
0.0015	-0.0023	0.0052	-0.1088	42.1
0.0022	0.0075	0.0045	-0.0893	42.2
0.003	0.0067	0.0067	-0.0428	42.2
0.0052	0.0195	0.0045	-0.003	42.3
0.0067	0.0382	0.0052	0.0577	42.4
0.0082	0.0585	0.0022	0.0967	42.5
0.003	0.03	-0.0046	0.114	42.6
-0.003	-0.0128	-0.006	0.1155	42.6
-0.006	-0.03	-0.0098	0.0855	42.7
-0.012	-0.0555	-0.0113	0.069	42.8
-0.0113	-0.057	-0.0068	0.0405	42.9
-0.006	-0.0555	-0.0053	0.0202	42.9
-0.0038	-0.0413	-0.0046	0.0172	43
0.0015	-0.0083	-0.0023	-0.0083	43.1
0.003	0.0067	-0.0015	-0.039	43.2
0.0007	0.0022	-0.0015	-0.0555	43.2
-0.0015	-0.0068	-0.0038	-0.0706	43.3
-0.0008	0.0097	-0.0015	-0.105	43.4
-0.0008	0.0157	-0.003	-0.1275	43.5
-0.0015	0.0217	-0.0023	-0.129	43.6
-0.0008	0.0277	-0.0008	-0.1073	43.6
-0.0038	0.027	-0.0008	-0.0645	43.7
-0.0015	0.045	0.0022	0.0007	43.8
-0.0008	0.0322	-0.0015	0.0232	43.9
-0.0038	0.0052	-0.0008	-0.015	44
-0.003	0.0292	0.0015	0.057	44
0.0022	0.0847	0.0037	0.0817	44.1
0.0052	0.0847	0.006	-0.0413	44.2
0.003	0.0382	0.006	-0.1006	44.2
0.0037	0.03	0.0045	-0.0675	44.3
0.0022	0.0105	0.0022	-0.0278	44.4
0.0007	-0.0113	0.0045	-0.003	44.5
0.0015	-0.0105	0.0067	0.039	44.6
0.0015	-0.012	0.0067	0.1267	44.6
-0.0015	-0.0068	0.0045	0.156	44.7
-0.0068	-0.0353	0.003	0.0922	44.8
-0.0046	-0.0428	0.006	0.1237	44.9
0.0022	0.009	0.0067	0.144	45
0.003	0.0127	0.0052	0.0765	45.1
0.0015	-0.0443	0.0037	0.0405	45.2
-0.0015	-0.0443	0.0037	0.018	45.2
-0.0046	-0.0248	0.0022	0.0195	45.3
-0.0046	-0.0368	0.003	0.0277	45.4
-0.003	-0.0233	0.0052	0.0457	45.5
0.0015	-0.015	0.0022	0.0375	45.6
0	-0.0233	-0.0008	0.0277	45.7
-0.003	-0.027	-0.0008	0.0262	45.7
-0.0023	-0.0165	-0.0023	0.0127	45.8
-0.0015	0.0022	-0.0015	0.0045	45.9
0.003	0.024	-0.0008	-0.0256	46
0.003	0.0292	-0.0008	-0.0638	46.1
0.003	-0.012	0.003	-0.0788	46.1
0.0022	-0.0375	0.0015	-0.0578	46.2
0	-0.0405	-0.0008	-0.0428	46.3
0.0015	-0.0458	-0.0008	-0.0465	46.3
0	-0.0443	-0.0008	-0.0503	46.4
-0.0008	-0.0436	0.0007	-0.0503	46.5
-0.0008	-0.03	0.0007	-0.0683	46.6
-0.0053	-0.027	0.0007	-0.0975	46.6
-0.003	-0.0128	0.0015	-0.129	46.7
0.0015	0.0165	0.006	-0.1553	46.8
0.003	0.033	0.0045	-0.1283	46.8
0.0045	0.0345	0.006	-0.1035	46.9
0.0052	0.033	0.003	-0.078	47
0.0022	0.0412	-0.0015	-0.021	47.1
-0.0023	0.0405	-0.003	0.0142	47.2
-0.0046	0.0382	-0.003	0.0525	47.2
-0.003	0.0262	0.0015	0.105	47.3
-0.0008	0.015	0.0037	0.162	47.3
0	-0.0015	0.0022	0.165	47.4
-0.003	-0.0233	0.0007	0.1327	47.5
-0.0053	-0.0278	-0.0008	0.1297	47.6
-0.006	-0.033	0.0007	0.093	47.6
-0.0046	-0.0383	0	0.0442	47.7
-0.0015	-0.0398	-0.0015	0.0202	47.8
-0.0015	-0.0398	-0.0008	0.0045	47.9
-0.0023	-0.0436	0.0007	-0.0158	48
-0.003	-0.0428	0.0007	-0.0533	48.1
-0.0038	-0.0353	0	-0.0728	48.1
-0.0046	-0.0091	0.0007	-0.063	48.2
-0.003	0.0172	-0.0008	-0.0256	48.3
-0.0023	0.0142	0	0.0127	48.3
-0.0023	0.0255	-0.0015	0.0067	48.4
-0.0046	0.0285	-0.0046	-0.0053	48.5
-0.0046	0.0202	-0.0046	0.0247	48.6
-0.003	0.0165	-0.0038	0.0532	48.6
-0.0008	0.0067	-0.0015	0.0495	48.7
0.0045	0.0067	0.0022	0.0082	48.8
0.0075	0.0105	0.0045	-0.0503	48.9
0.0067	0.0195	0.0045	-0.0593	49
0.0052	0.0187	0.0045	-0.0398	49
0.0037	0.0135	0.0045	-0.0068	49.1
0.0022	0.0165	0.0022	0.015	49.2
0.0007	0.0045	0.0007	-0.0533	49.3
-0.0015	-0.0083	-0.0038	-0.1095	49.4
-0.006	-0.0091	-0.0046	-0.0405	49.5
-0.006	-0.0075	-0.0053	0.039	49.5
-0.0053	-0.0083	-0.0046	0.0727	49.6
-0.0068	-0.0143	-0.0053	0.0502	49.7
-0.0075	-0.0128	-0.0068	-0.0143	49.8
-0.0053	-0.0038	-0.0068	-0.0256	49.9
-0.0053	0.0105	-0.006	0.012	49.9
-0.0053	0.0202	-0.0015	0.0832	50
-0.0023	0.0127	0.0007	0.1087	50.1
0.0015	0.0037	0.0037	0.0562	50.2
0.0015	-0.0128	0.0037	0.0547	50.3
-0.0015	-0.0181	0.003	0.0787	50.4
-0.003	-0.0188	0.0045	0.054	50.4
-0.003	-0.0181	0.0052	0.0472	50.5
-0.0008	-0.0046	0.0067	0.0382	50.6
-0.0008	-0.0008	0.0067	0.0015	50.7
0.0015	0	0.0052	-0.0285	50.8
0.0007	0.0052	0.0045	-0.0548	50.8
-0.0008	0.0045	0.003	-0.0706	50.9
0.0022	0.0037	0.0007	-0.0713	51
0.0015	0.003	0.0015	-0.0533	51.1
0.0045	0.0082	0.0015	-0.0405	51.2
0.0045	0.018	-0.0015	-0.024	51.3
0.0007	0.0262	-0.0015	-0.012	51.3
0.0007	0.0262	-0.0015	-0.0075	51.4
0.0015	0.0165	-0.0008	-0.0053	51.5
0.0045	0.0082	0.0015	-0.0091	51.6
0.003	-0.0008	0.0007	-0.0091	51.7
0.0015	-0.0015	0.0007	-0.0256	51.7
0.0015	0	0.0015	-0.03	51.8
0.0007	-0.0038	0.0037	-0.0548	51.9
0.0045	-0.012	0.0052	-0.0953	52
0.0067	-0.0128	0.0067	-0.1118	52.1
0.0015	0.0045	0.0052	-0.1275	52.2
0.0007	0.0105	0.0037	-0.111	52.2
-0.0015	0.0097	0.0015	-0.0578	52.3
-0.0023	0.0292	0.0022	0.0007	52.4
0.003	0.0682	0.0067	0.0652	52.5
0.0045	0.0772	0.0052	0.1087	52.6
0.0007	0.0457	0.0007	0.1215	52.6
-0.0046	0.0075	-0.0046	0.186	52.7
-0.0053	-0.0443	-0.006	0.2632	52.8
-0.0038	-0.0728	-0.0023	0.225	52.9
-0.003	-0.09	-0.0023	0.129	53
-0.003	-0.0871	-0.003	0.0592	53.1
-0.0046	-0.0728	0.0015	-0.0488	53.1
-0.0068	-0.0691	0	-0.132	53.2
-0.0083	-0.0361	-0.0008	-0.1418	53.3
-0.0053	0.009	0.003	-0.0945	53.4
-0.0015	0.0225	0.0022	0.0457	53.5
-0.0046	-0.0015	0.0007	0.0397	53.6
-0.0046	0.0037	0.0007	-0.0578	53.6
-0.003	0.0015	0.0007	-0.0091	53.7
-0.006	-0.006	-0.0046	0.0045	53.8
-0.0075	-0.0098	-0.0046	0.024	53.9
-0.0046	-0.0143	-0.003	0.0622	54
0.0007	-0.0046	-0.0015	0.0495	54.1
0.0007	-0.012	0.0007	0.0532	54.2
0.0015	-0.0083	0.0007	0.033	54.3
0.0015	-0.0053	0.0007	-0.0383	54.4
-0.0015	0	0.0007	-0.129	54.4
0.0007	0.0127	0.0007	-0.18	54.5
0.0015	0.0217	-0.0008	-0.1726	54.6
-0.0008	0.0217	-0.0046	-0.1253	54.7
0	0.0232	-0.003	-0.108	54.8
0.0007	0.0427	-0.0038	-0.093	54.9
0	0.0457	-0.0053	-0.0293	54.9
0.0022	0.036	-0.003	0.096	55
0.0015	0.0067	-0.003	0.204	55.1
0.0015	-0.0256	0.0007	0.234	55.2
0.003	-0.0346	0.0037	0.1777	55.3
0.0015	-0.0181	0.0015	0.0847	55.3
0	-0.015	0.0015	0.066	55.4
-0.0015	-0.0443	0.0015	0.0442	55.5
-0.003	-0.0503	0.0007	0.0315	55.6
-0.0046	-0.0443	0	0.0142	55.7
-0.0068	-0.0315	0	-0.012	55.8
-0.0068	-0.0165	0.0015	-0.0278	55.9
-0.0046	-0.0038	0.0045	-0.0706	56
-0.0053	0.0045	0.0045	-0.0758	56.1
-0.0053	-0.0008	0.006	-0.0773	56.1
-0.003	-0.0008	0.0082	-0.0615	56.2
0	0.0052	0.0097	-0.027	56.3
0.0052	0.0127	0.012	-0.024	56.4
0.0045	0.0045	0.0105	-0.0181	56.5
-0.0008	0.0007	0.0082	0.0232	56.6
-0.0015	0.0157	0.0082	0.0622	56.7
0.0007	0.0285	0.0105	0.075	56.7
0.0045	0.0202	0.0105	0.0292	56.8
0.003	0.015	0.0082	-0.0383	56.9
0	0.0165	0.0067	-0.0578	57
-0.0015	-0.0075	0.006	-0.0653	57.1
-0.0023	-0.012	0.003	-0.0405	57.1
-0.0008	0.0097	0.0015	0.033	57.2
0.0007	0.0127	-0.0015	0.0435	57.3
-0.0008	0.009	-0.0023	-0.0293	57.4
0	0.0097	0	-0.0256	57.5
0.0007	0.0105	0.0007	-0.0315	57.6
-0.0008	0.012	0.0007	-0.0885	57.7
-0.0008	0.0232	0.0015	-0.1178	57.8
-0.0015	0.0382	-0.0008	-0.1253	57.9
-0.0015	0.0465	-0.0023	-0.0938	58
0.0007	0.0457	-0.0008	-0.0398	58
0.0045	0.027	-0.0008	0.042	58.1
0.0022	0.0007	-0.0038	0.1102	58.2
-0.006	-0.0293	-0.0091	0.174	58.3
-0.0113	-0.048	-0.0105	0.2385	58.4
-0.0068	-0.0458	-0.0075	0.2287	58.5
0	-0.0353	-0.0046	0.1387	58.5
0.0007	-0.0308	-0.0046	0.099	58.6
-0.0015	-0.0323	-0.0046	0.0562	58.7
-0.0053	-0.0548	-0.0053	-0.0046	58.8
-0.0075	-0.075	-0.0046	-0.0315	58.9
-0.0038	-0.0465	-0.0046	-0.0473	59
-0.0015	-0.0278	-0.0023	-0.0436	59.1
-0.0008	-0.039	0.0007	-0.084	59.2
-0.0008	-0.0368	0	-0.1193	59.3
0	-0.012	-0.0015	-0.1253	59.4
0.0015	0.018	-0.0008	-0.0975	59.4
0.0007	0.057	-0.0008	-0.042	59.5
-0.0023	0.063	-0.0023	-0.0128	59.6
-0.0046	0.0157	-0.003	0.0067	59.7
-0.0046	0.0142	-0.0023	0.0067	59.8
-0.0015	0.0165	-0.0015	0.009	59.9
0.0015	0.0142	-0.0015	0.027	60
0.0045	0.0142	0	-0.0046	60
0.0075	0.0127	0.0037	-0.0608	60.1
0.009	0.0375	0.006	-0.1065	60.2
0.0082	0.0457	0.0075	-0.1313	60.3
0.0082	0.0457	0.006	-0.0825	60.4
0.003	0.024	0.0045	-0.0413	60.5
0.0007	0.0052	0.0022	-0.0113	60.6
-0.0023	-0.0053	-0.0008	0.0262	60.7
-0.0083	-0.0128	-0.0015	0.0555	60.7
-0.0038	-0.0046	0.0007	0.1275	60.8
0.0007	-0.0053	0.0045	0.1462	60.9
0.0052	-0.0143	0.0052	0.075	61
0.009	-0.0218	0.0045	-0.0173	61.1
0.0052	-0.0091	-0.0008	-0.042	61.2
-0.0008	-0.0015	-0.0023	0.0157	61.3
-0.0053	-0.0173	-0.003	0.105	61.3
-0.0083	-0.0405	-0.0075	0.1672	61.4
-0.0091	-0.0615	-0.0083	0.1935	61.5
-0.0113	-0.0713	-0.0046	0.1312	61.6
-0.0083	-0.06	-0.003	0.0405	61.7
-0.0046	-0.0263	0.0022	0.0337	61.8
0	-0.0105	0.0037	-0.0091	61.9
-0.0015	-0.0068	0.003	-0.0398	62
-0.003	-0.0008	0.0015	-0.042	62.1
-0.0046	0.0015	0.0022	-0.0525	62.1
-0.003	0.018	0.0045	-0.09	62.2
0	0.0352	0.0037	-0.1275	62.3
0.0015	0.039	0.0052	-0.1155	62.4
0.0082	0.0375	0.0075	-0.0885	62.5
0.0097	0.0307	0.006	-0.027	62.5
0.0015	0.0262	0.003	0.0067	62.6
-0.0023	0.015	0.0007	0.0022	62.7
-0.0046	-0.0135	0.0022	0	62.8
-0.0038	-0.0256	0.0045	-0.0128	62.9
-0.0008	-0.0195	0.0067	-0.0645	63
0.0015	-0.012	0.009	-0.1103	63
0.0045	-0.0038	0.0075	-0.0833	63.1
0.0007	-0.0015	0.0045	-0.0533	63.2
-0.003	-0.0023	0.0037	-0.027	63.3
-0.0046	-0.0008	0	0.0787	63.4
-0.0091	-0.012	-0.0046	0.1665	63.4
-0.012	-0.0256	-0.0008	0.1672	63.5
-0.0083	-0.0293	0.0037	0.1417	63.6
-0.0023	-0.0128	0.0052	0.0877	63.7
0.0007	-0.0068	0.003	0.06	63.7
-0.0008	-0.0181	0.0015	0.0532	63.8
0.0015	-0.012	0.003	0.0412	63.9
0.0052	-0.003	0.0037	0.0067	64
0.0067	0.0075	0.0052	-0.0578	64
0.0067	0.012	0.0037	-0.117	64.1
0.0067	0.009	0.0052	-0.1403	64.2
0.0067	0.0195	0.0067	-0.1275	64.3
0.0052	0.0315	0.0067	-0.0975	64.3
-0.0008	0.0345	0.0045	-0.0188	64.4
-0.0046	0.0262	0	0.0645	64.5
-0.0046	0.0105	-0.0015	0.1042	64.6
-0.0046	-0.0105	-0.0023	0.1035	64.7
-0.0008	-0.0225	-0.003	0.0772	64.8
-0.0008	-0.015	0.0007	-0.0173	64.8
0.0015	-0.0083	0.003	-0.1163	64.9
0.0022	0	0.0067	-0.1275	65
0.0067	0.0232	0.009	-0.1095	65.1
0.006	0.0345	0.0045	-0.0608	65.2
-0.0015	0.0307	0.0015	-0.0218	65.2
-0.0015	0.0127	-0.0008	0.045	65.3
-0.0083	-0.024	-0.0091	0.1897	65.4
-0.0165	-0.0548	-0.0098	0.1965	65.5
-0.0128	-0.039	-0.0053	0.1065	65.6
-0.0053	0.0007	-0.0023	0.042	65.6
0.0007	0.0165	-0.0015	-0.0503	65.7
-0.0008	0.0075	-0.0023	-0.1155	65.8
-0.0008	0.0045	0.0007	-0.1538	65.8
0.0015	0.0082	0.0015	-0.1441	65.9
-0.0008	-0.0083	-0.0023	-0.1193	66
-0.003	-0.027	-0.0038	-0.108	66.1
-0.0046	-0.033	-0.0046	-0.1058	66.1
-0.003	-0.0368	-0.0008	-0.0765	66.2
-0.0008	-0.0548	0.0007	0.0382	66.3
-0.0015	-0.0638	0.0015	0.1365	66.4
-0.003	-0.042	-0.0015	0.1957	66.5
-0.0105	-0.0135	-0.0098	0.279	66.5
-0.0181	0.0195	-0.0135	0.3495	66.6
-0.0181	0.03	-0.0091	0.3337	66.6
-0.0068	0.0292	0.0007	0.2347	66.7
0.0015	0.054	0.0045	0.102	66.8
0.006	0.0405	0.0082	-0.0308	66.9
0.012	0.018	0.0097	-0.057	67
0.009	0	0.0067	-0.0338	67
0.006	-0.0098	0.0067	-0.0825	67.1
0.0045	-0.0173	0.0067	-0.0983	67.2
0.003	-0.0495	0.0067	-0.0825	67.3
0.0045	-0.039	0.0045	-0.0953	67.3
0.0007	-0.033	0.003	-0.114	67.4
-0.0023	-0.024	0.0067	-0.1043	67.5
0	-0.0091	0.0082	-0.063	67.5
-0.0008	-0.006	0.003	-0.0428	67.6
-0.0023	0.0037	-0.0008	0.0165	67.7
-0.003	0.0015	0.0007	0.0697	67.8
-0.0008	0.009	0.0007	0.0165	67.8
0	0.0015	-0.0015	-0.0533	67.9
-0.0008	-0.0023	-0.0023	-0.0856	68
-0.0015	0.0045	-0.0038	-0.0968	68
-0.0023	0.0097	-0.003	-0.084	68.1
-0.0008	0.0225	-0.0015	-0.0398	68.2
0.0022	0.0232	-0.0008	-0.0181	68.3
0.003	0.0247	-0.0008	-0.0256	68.3
0.0045	0.0202	0.0015	-0.0038	68.4
0.0067	0.0255	0.003	0.0007	68.5
0.0075	0.0315	0.0015	0.0075	68.5
0.0052	0.0315	-0.0008	0.0157	68.6
0.0052	0.0315	0.0007	-0.0248	68.7
0.0082	0.0292	0.0007	-0.0465	68.8
0.0082	0.0225	-0.0008	-0.0195	68.8
0.0075	0.0142	-0.0008	-0.0008	68.9
0.0075	0.009	-0.0015	-0.0143	69
0.0052	-0.0008	-0.0008	-0.0645	69.1
0.0022	-0.003	0.0007	-0.1021	69.2
0.0045	0.0082	0.003	-0.0878	69.3
0.0067	0.0225	0.0045	-0.0953	69.3
0.0037	0.024	0.0045	-0.0885	69.4
-0.0053	0.009	-0.003	-0.024	69.5
-0.0181	-0.0105	-0.0128	0.0405	69.6
-0.0188	-0.012	-0.0053	0.0622	69.7
-0.0083	0.009	0.003	0.0397	69.7
0	0.0382	0.0082	0.0457	69.8
0.006	0.0495	0.0097	0.0682	69.9
0.0045	0.0232	0.0067	0.102	70
-0.0015	-0.0135	0.0015	0.1552	70.1
-0.0105	-0.021	-0.0038	0.1687	70.1
-0.0135	-0.033	-0.0008	0.1807	70.2
-0.0083	-0.0856	0.0015	0.1837	70.3
-0.0098	-0.1253	0	0.1395	70.3
-0.0128	-0.1441	-0.0008	0.0975	70.4
-0.0173	-0.1538	-0.0046	0.1365	70.5
-0.0203	-0.129	-0.0046	0.1455	70.6
-0.0135	-0.0975	-0.003	0.0307	70.6
-0.0083	-0.0593	-0.0023	-0.09	70.7
-0.0046	-0.006	-0.0015	-0.237	70.8
0.0015	0.0667	0.0007	-0.3353	70.9
0.0067	0.1222	0.0015	-0.3511	71
0.0082	0.1215	0.0015	-0.2813	71.1
0.0082	0.1042	0.0015	-0.129	71.1
0.006	0.0727	0.0007	-0.0308	71.2
0.003	0.0562	-0.0015	0.0555	71.3
0.0022	0.0322	-0.003	0.1425	71.4
0.0007	-0.0173	-0.0008	0.1807	71.5
0.0037	-0.0383	0.0037	0.1755	71.5
0.0037	-0.0533	0.0045	0.093	71.6
-0.003	-0.0458	0.0022	0.0667	71.7
-0.0046	-0.027	0.003	0.075	71.8
-0.0075	-0.0285	0.0015	0.0142	71.9
-0.0091	-0.0256	0.0007	0.0277	71.9
-0.0008	-0.0405	0.0045	0.0465	72
0.0067	-0.0458	0.009	-0.0615	72.1
0.0097	-0.0368	0.0052	-0.1643	72.2
0.0067	-0.0195	0.0045	-0.1793	72.2
0.0075	0.0277	0.006	-0.1711	72.3
0.0082	0.057	0.0037	-0.0015	72.4
0.0052	0.078	0.0007	0.171	72.5
-0.0015	0.1042	-0.0046	0.219	72.6
-0.0091	0.0712	-0.0046	0.2685	72.6
-0.0091	-0.006	0.0007	0.3037	72.7
-0.0068	-0.0465	0.0015	0.321	72.8
-0.0038	-0.0593	0.0045	0.1882	72.9
0.0007	-0.0533	0.0052	0.0555	72.9
0.003	-0.0285	0.0052	-0.0458	73
0.0015	-0.0188	0.0022	-0.1275	73.1
-0.0023	-0.0038	-0.0008	-0.129	73.2
-0.0008	0.0105	0.0007	-0.1455	73.3
0	0.0172	-0.0008	-0.1388	73.3
-0.0023	0.0165	-0.003	-0.1403	73.4
-0.003	0.0202	-0.003	-0.1583	73.5
-0.0023	0.0292	-0.0015	-0.1928	73.6
0.0007	0.0375	0.0015	-0.1815	73.7
0.003	0.045	0.0022	-0.1553	73.8
-0.0008	0.0375	-0.0038	-0.1253	73.8
-0.0105	0.0165	-0.0075	-0.0495	73.9
-0.0143	-0.0053	-0.0068	0.003	74
-0.0128	-0.0143	-0.003	0.0277	74.1
-0.0083	-0.0165	0.0037	0.066	74.2
-0.003	-0.012	0.0075	0.0855	74.3
-0.0015	0.0015	0.009	0.0705	74.4
0	0.0045	0.0075	0.105	74.5
-0.0008	-0.0083	0.0052	0.1102	74.6
-0.003	-0.0233	0.0045	0.0525	74.7
-0.0046	-0.0203	0.0015	-0.0098	74.7
-0.0015	-0.012	0.0037	-0.0645	74.8
0.0067	-0.0083	0.0052	-0.1118	74.9
0.0105	0.0007	0.0037	-0.1313	75
0.0052	-0.0038	-0.0023	-0.096	75.1
-0.0038	-0.0173	-0.006	-0.0585	75.1
-0.0046	-0.0098	-0.0075	0.0345	75.2
-0.0023	0.0082	-0.006	0.1072	75.3
-0.0008	0.0255	-0.0023	0.0555	75.4
0.006	0.0345	-0.0023	0.0217	75.6
0.0067	0.0165	0	0.03	75.6
0.0067	0.0067	0.003	0.0195	75.7
0.0082	-0.0038	-0.0008	0.021	75.8
-0.0008	-0.0233	-0.0053	0.0705	75.9
-0.0046	-0.0353	-0.003	0.033	76
-0.0046	-0.0413	0	0.0195	76.1
-0.0046	-0.0285	0	0.084	76.2
-0.0015	-0.0278	0.003	0.063	76.3
-0.0008	-0.0158	0.0052	0.0277	76.4
-0.0008	-0.0075	0.0045	0.0007	76.5
0.0007	-0.0165	0.0052	-0.024	76.6
-0.0008	-0.012	0.006	-0.0615	76.7
0	-0.0083	0.0052	-0.0795	76.8
0.0015	-0.0015	0.0052	-0.0856	76.9
0.003	0.0075	0	-0.0803	76.9
-0.0015	0.0157	-0.0053	-0.0458	77
-0.0038	0.015	-0.0053	0.0127	77.1
-0.0008	0.009	-0.0023	0.0592	77.3
0.0015	-0.003	-0.0038	0.072	77.3
-0.0023	-0.0135	-0.0083	0.0525	77.4
-0.0053	-0.0165	-0.0083	0.0382	77.5
-0.003	-0.0256	-0.0046	0.0465	77.6
-0.0015	-0.0143	-0.0023	0.0015	77.8
0.0022	0.0075	0	-0.0218	77.8
0.0052	0.0255	0.0007	-0.0683	77.9
0.0052	0.03	0.0022	-0.0833	78
0.003	0.0195	0.0052	-0.0338	78.1
0.003	0.0142	0.009	-0.021	78.3
0.0052	-0.003	0.0105	0.081	78.3
0.0007	-0.0323	0.0075	0.144	78.4
-0.003	-0.0518	0.0052	0.093	78.5
-0.003	-0.0488	0.0075	0.1035	78.6
0	-0.0218	0.009	0.1087	78.7
0.0052	0.0045	0.0127	0.0765	78.8
0.0052	0.0232	0.0082	0.0157	78.9
0.0015	0.0307	0.003	-0.0713	79
0.0007	0.027	0.003	-0.0615	79.1
-0.0008	0.015	0.003	-0.003	79.2
-0.0053	-0.0143	0.003	0.003	79.3
-0.0015	-0.0188	0.0067	-0.0053	79.4
0.0015	-0.0203	0.0045	-0.0046	79.5
-0.0046	-0.0285	0.0007	-0.0023	79.6
-0.0098	-0.0218	-0.0008	-0.048	79.7
-0.0091	-0.0053	-0.0023	-0.1268	79.8
-0.0023	0.0292	0.0015	-0.159	79.9
0.0007	0.048	0.0022	-0.1493	80
0	0.0457	-0.0008	-0.0975	80.1
0.0022	0.0472	0.0007	-0.042	80.2
0.003	0.0345	-0.0038	0.0495	80.3
-0.0008	0.0127	-0.0038	0.1042	80.4
0.0015	0.0067	0.0015	0.0997	80.5
0.0067	0.0015	0.0015	0.0615	80.6
0.0067	-0.0053	0.0052	-0.0233	80.7
0.0045	0.0015	0.0045	-0.0308	80.8
-0.0008	0.003	0.0007	0.0037	80.9
-0.0023	-0.0083	0.0007	0.021	81
-0.0015	-0.0128	-0.0015	0.0255	81
0.0022	0.006	0.003	-0.012	81.2
0.0075	0.0427	0.0045	-0.0548	81.3
0.0052	0.0555	0.0015	-0.0465	81.4
-0.0023	0.0277	-0.0053	0.0285	81.4
-0.0091	-0.0293	-0.0105	0.1477	81.6
-0.0105	-0.0511	-0.0083	0.1747	81.7
-0.0075	-0.0353	-0.0046	0.1455	81.8
-0.0075	-0.0885	-0.0008	0.09	81.9
-0.012	-0.1163	-0.003	-0.048	82
-0.0165	-0.0893	-0.0091	-0.1125	82.1
-0.0195	-0.0713	-0.0113	-0.1103	82.2
-0.0181	-0.0353	-0.012	-0.0473	82.3
-0.0143	-0.021	-0.012	0.0022	82.4
-0.0113	-0.0218	-0.0113	-0.0143	82.5
-0.0083	-0.0195	-0.0053	0.0345	82.6
-0.0015	-0.0098	0.0015	0.0457	82.7
0.006	0.0082	0.006	0.0307	82.8
0.0105	0.0352	0.0082	-0.0218	82.9
0.012	0.072	0.009	-0.0938	83
0.0112	0.0825	0.0082	-0.0803	83.1
0.0097	0.0825	0.0082	-0.0953	83.2
0.0082	0.075	0.0052	-0.099	83.3
0.0067	0.057	-0.0008	-0.0653	83.4
0.0015	0.0457	-0.003	-0.0585	83.5
-0.0053	0.0007	-0.0083	-0.0256	83.6
-0.0105	-0.0353	-0.0075	0.024	83.7
-0.0053	-0.024	-0.0015	0.054	83.7
0.0007	-0.0053	0.0015	0.063	83.9
0.003	0	0.0067	0.105	84
0.0052	-0.0075	0.009	0.1665	84.1
0.009	-0.0113	0.0127	0.174	84.1
0.0127	-0.0068	0.0127	0.1222	84.2
0.0045	-0.0195	0.009	0.0607	84.3
-0.0075	-0.063	0.0015	0.0232	84.4
-0.0128	-0.0713	-0.003	0.0277	84.6
-0.0158	-0.06	-0.003	0.009	84.6
-0.0143	-0.048	-0.003	-0.0398	84.7
-0.0098	-0.0098	-0.0008	-0.0683	84.8
-0.0023	0.027	0.003	-0.0968	84.9
0.003	0.0592	0.0052	-0.0983	85
0.0082	0.0585	0.006	-0.0915	85.1
0.0097	0.033	0.0045	-0.0578	85.2
0.0052	0.0127	0.0022	0.0217	85.3
0.0022	-0.0113	0.0007	0.0555	85.4
-0.0015	-0.0338	0.0022	0.0165	85.5
-0.0008	-0.0346	0.0067	-0.0346	85.6
-0.0023	-0.0346	0.0022	-0.0578	85.7
-0.0098	-0.033	-0.0015	-0.0405	85.8
-0.0068	-0.0218	-0.003	-0.024	85.9
-0.0068	-0.0195	-0.0015	-0.0015	85.9
-0.0053	-0.0053	-0.0008	0.0202	86
0.0007	0.0082	0.0007	0.0022	86.1
0.0015	0.0225	0.003	0.0195	86.3
0.0007	0.0307	0.0007	0.0195	86.3
-0.0015	0.0382	0.0015	-0.024	86.4
0.003	0.054	0.0045	-0.0285	86.5
0.0075	0.0592	0.0097	-0.0143	86.6
0.012	0.057	0.0127	-0.003	86.7
0.0135	0.0465	0.0105	0.0082	86.8
0.0142	0.0367	0.0082	0.0165	86.9
0.0127	0.0142	0.0052	0.036	86.9
0.0105	-0.0053	0.0052	0.0532	87
0.0075	-0.0315	0.0045	0.072	87.1
-0.0008	-0.0503	-0.0008	0.0825	87.2
-0.0068	-0.042	-0.0023	0.048	87.3
-0.0083	-0.0428	-0.003	-0.0098	87.3
-0.0068	-0.0443	-0.003	-0.0503	87.4
-0.003	-0.0443	-0.003	-0.0405	87.5
-0.0008	-0.0383	-0.0046	-0.054	87.6
0.003	-0.0293	-0.0023	-0.0856	87.7
0.0052	-0.0113	-0.0015	-0.0458	87.7
0.003	-0.0023	-0.0046	-0.0158	87.8
-0.0053	-0.0195	-0.0098	-0.0105	87.9
-0.015	-0.0135	-0.0135	0.03	88
-0.0158	0.003	-0.0083	0.057	88.1
-0.0083	-0.0008	-0.003	0.075	88.2
-0.0023	-0.0165	-0.0038	0.0465	88.2
0.0015	0	-0.0008	0.0195	88.3
0.0037	0.039	-0.003	0.054	88.4
-0.003	0.0255	-0.0083	0.0037	88.5
-0.0091	-0.0008	-0.012	-0.0405	88.6
-0.0143	0.009	-0.0083	-0.0225	88.6
-0.0128	0.0007	-0.003	0.0285	88.7
-0.0091	-0.0203	-0.0008	0.0502	88.8
-0.0053	-0.0188	0.0045	0.0007	88.9
0.0015	-0.0068	0.0075	-0.0008	88.9
0.0045	0	0.0052	-0.0181	89
0.0015	0.0045	0.003	-0.0105	89.1
-0.0008	0.0067	0.0045	-0.0105	89.1
0.0007	0.0067	0.0045	-0.0503	89.2
0.0037	0.012	0.0052	-0.0683	89.3
0.0067	0.0172	0.0067	-0.063	89.4
0.0067	0.012	0.0067	-0.042	89.5
0.0052	0.0015	0.0075	-0.0128	89.5
0.0067	-0.0075	0.0052	0.0375	89.6
0.009	-0.0105	0.0097	0.0465	89.7
0.0135	0.0007	0.0127	0.0262	89.7
0.0097	0.0232	0.0082	-0.0293	89.8
0.0045	0.0405	0.0037	-0.0818	89.9
0.0037	0.0442	0.0022	-0.0758	90
0.0007	0.033	0.0022	-0.0008	90
-0.0015	0.0045	0.0015	0.0825	90.1
-0.0075	-0.0165	0	0.1305	90.2
-0.0098	-0.0053	0.0007	0.1942	90.2
-0.0075	-0.0195	-0.0038	0.1957	90.3
-0.0113	-0.0548	-0.0091	0.1065	90.4
-0.0143	-0.0443	-0.0075	0.0382	90.4
-0.012	-0.0315	-0.0053	-0.012	90.5
-0.0091	-0.0263	-0.0046	-0.063	90.6
-0.0083	-0.0158	-0.0023	-0.0968	90.7
-0.006	-0.0053	0.0007	-0.1043	90.7
-0.0008	0.0052	-0.0008	-0.0578	90.8
-0.0046	-0.0128	-0.0046	-0.015	90.8
-0.0105	-0.0405	-0.003	-0.0218	90.9
-0.006	-0.0256	0.0052	-0.0165	91
0.0052	0.0232	0.0112	0.0112	91.1
0.0142	0.0675	0.0097	-0.027	91.1
0.0165	0.081	0.006	-0.0691	91.2
0.0135	0.0667	0.009	-0.0495	91.3
0.0157	0.0442	0.0157	-0.0203	91.3
0.0127	0.0045	0.015	0.0255	91.4
0.0045	-0.0346	0.015	0.0345	91.4
0.0015	-0.0548	0.0142	0.0292	91.5
-0.0075	-0.0728	0.0082	-0.0008	91.6
-0.0158	-0.0728	0.0015	-0.0263	91.6
-0.0158	-0.048	-0.0023	-0.0008	91.7
-0.012	-0.0248	-0.0038	0.0682	91.8
-0.0091	-0.0173	-0.0105	0.1275	91.8
-0.0113	-0.024	-0.0105	0.0802	91.9
-0.0075	-0.012	-0.0083	0.042	91.9
-0.0023	0.0052	-0.0068	0.0277	92
-0.0008	0.0022	-0.0038	0.03	92.1
0.0015	-0.0053	-0.0038	0.0195	92.1
0.0007	-0.0008	-0.0023	-0.0105	92.2
0.0015	0.0097	-0.0023	-0.0256	92.2
-0.003	0.0082	-0.003	-0.0473	92.3
-0.0053	0.003	-0.0015	-0.0405	92.4
-0.003	0.009	-0.003	-0.0645	92.4
-0.0008	0.0217	-0.0023	-0.0968	92.5
0.0045	0.0322	-0.0008	-0.0915	92.5
0.006	0.0375	-0.0023	-0.0863	92.6
0.0037	0.0442	-0.0053	-0.0803	92.6
0.0015	0.0412	-0.0053	-0.0713	92.7
0.0015	0.0247	-0.0046	-0.0398	92.7
0.0015	0.0217	-0.0053	-0.012	92.8
0.0015	0.0157	-0.003	0.03	92.8
0.0037	-0.0053	-0.0008	0.0442	92.9
0.0015	-0.0315	-0.0038	0.009	92.9
-0.006	-0.0465	-0.006	0.027	93
-0.012	-0.045	-0.0083	0.0502	93
-0.0091	-0.0413	-0.0068	0.0315	93.1
-0.0046	-0.0278	-0.0015	-0.0248	93.1
0.0015	-0.0218	-0.0008	-0.0173	93.2
0	-0.0181	-0.0015	0.039	93.2
-0.0015	0	-0.0008	0.048	93.3
0	0.018	-0.0008	0.054	93.3
-0.0008	0.03	-0.0008	0.0142	93.4
0.0007	0.0307	0.0007	-0.0113	93.4
-0.0008	0.027	0.0007	-0.012	93.5
-0.0053	0.0142	0.0037	-0.0533	93.5
-0.0068	-0.0046	0.006	-0.048	93.6
-0.0083	-0.0225	0.003	-0.0091	93.6
-0.0083	-0.0263	0.0045	-0.0046	93.6
-0.0023	-0.0188	0.006	0.0157	93.6
0.0045	-0.0068	0.0067	0.0525	93.7
0.0015	-0.0105	0.003	0.0442	93.7
-0.003	-0.0105	0.0045	0.0352	93.8
-0.0008	0.0105	0.0082	0.06	93.8
0	0.018	0.003	0.0952	93.9
-0.0068	0.009	0.0022	0.0427	93.9
-0.0091	-0.0105	0.0015	-0.0458	94
-0.003	-0.0263	0.0082	-0.0511	94
0.0045	-0.042	0.009	-0.0046	94
0.006	-0.024	0.009	0.006	94
0.006	0.0105	0.0097	0	94.1
0.0067	0.0015	0.003	0.0082	94.1
0.0007	-0.0195	-0.0015	-0.042	94.2
-0.0015	-0.0015	-0.0015	-0.084	94.2
0.0022	0.0435	0.0015	-0.0706	94.3
0.0045	0.0645	0.0015	0.0097	94.3
0.006	0.0502	-0.0008	0.0585	94.3
0.0052	0.0082	-0.0015	0.0345	94.4
0	-0.0383	-0.0053	0.0412	94.4
-0.0075	-0.0428	0.0007	0.0127	94.5
-0.003	-0.0218	0.0067	-0.0346	94.5
0.0015	-0.0293	0.0045	-0.0525	94.5
-0.0046	-0.0405	0	-0.0135	94.5
-0.0128	-0.0436	-0.0053	0.0435	94.6
-0.0143	-0.0285	-0.003	0.0787	94.6
-0.0075	-0.0068	0.0007	0.1237	94.7
-0.0015	-0.0098	0.0007	0.0787	94.7
0.0015	0.0037	0.003	0.012	94.7
0.0022	0.0112	0.0015	-0.0105	94.8
0	0.009	-0.0008	-0.012	94.8
0.0045	0.0105	0.0007	0.0202	94.9
0.003	0.003	-0.003	0.0277	94.9
-0.0046	-0.0091	-0.0046	0.0307	94.9
-0.003	-0.012	0.0007	0.0352	94.9
0.0037	0.003	0.0037	0.021	95
0.0067	0.003	0.003	-0.003	95
0.006	-0.003	0	-0.0135	95
0.0067	0.0007	0	-0.0353	95.1
0.0075	0.0097	0.0007	-0.0578	95.1
0.0105	0.0195	0.0007	-0.0623	95.1
0.0067	0.0195	-0.0015	-0.075	95.2
0.0015	0.024	-0.0008	-0.063	95.2
0.0052	0.033	0.0022	-0.0555	95.2
0.0045	0.039	0.0022	-0.0555	95.3
0.0052	0.048	0.0015	-0.0443	95.3
0.0067	0.0532	0.0015	-0.0278	95.3
0.0067	0.03	0.003	-0.0458	95.3
0.0037	-0.015	0.0022	-0.054	95.3
-0.006	-0.033	-0.0008	-0.027	95.4
-0.0135	-0.0285	-0.003	-0.0091	95.4
-0.0105	0.0022	0.0067	0.0352	95.4
-0.0008	0.0367	0.0112	0.0532	95.5
-0.0015	0.048	0.006	0.0465	95.5
-0.0053	0.0345	0.006	0.0615	95.5
-0.0038	-0.021	0.0037	0.0405	95.5
-0.0091	-0.06	-0.0046	0.0022	95.6
-0.015	-0.054	-0.0038	0.0427	95.6
-0.0143	-0.0361	-0.0046	0.0795	95.6
-0.0173	-0.033	-0.0075	0.0585	95.7
-0.0165	-0.0256	-0.0038	0.093	95.7
-0.0143	-0.0375	-0.0053	0.0742	95.7
-0.015	-0.0511	-0.0053	0.036	95.7
-0.0083	-0.015	-0.0008	0.0172	95.8
-0.0015	0.0067	0.003	-0.0338	95.8
0.003	0.0165	0.0105	-0.0443	95.8
0.0067	0.012	0.0082	-0.0465	95.8
0.0015	0.0052	0.009	-0.0158	95.8
-0.0008	-0.0105	0.0082	0.0052	95.8
-0.0046	-0.039	0.0022	-0.0083	95.9
-0.0068	-0.033	0.003	-0.0083	95.9
0.0007	-0.0203	0.0007	-0.0263	95.9
0.0067	-0.0128	0.0007	-0.0315	95.9
0.0082	0.0045	0.0022	-0.0346	96
0.0097	0.0135	0.0015	-0.0563	96
0.0082	0.0075	0	-0.063	96
0.0045	0.0112	0.0037	-0.1411	96
0.0127	0.0502	0.0142	-0.192	96
0.0202	0.078	0.018	-0.0518	96.1
0.012	0.057	0.0142	0.0892	96.1
0.0007	0.0217	0.0052	0.1267	96.1
-0.0068	-0.0135	0.0015	0.1777	96.1
-0.0053	-0.0218	0.0052	0.144	96.2
0.0007	-0.0181	0.0007	0.0975	96.2
0	-0.0091	-0.0046	0.081	96.2
-0.0046	-0.0098	-0.0068	0.0367	96.2
-0.0105	-0.042	-0.0091	0.0255	96.2
-0.0105	-0.048	-0.0091	-0.0158	96.3
-0.0091	-0.0338	-0.0053	-0.0046	96.3
-0.0068	-0.012	0.0007	-0.0068	96.3
-0.0068	-0.0053	0.0022	-0.0091	96.3
-0.0046	-0.0091	0.003	-0.0008	96.3
0.0015	-0.0083	0.003	-0.033	96.3
0.0022	-0.0225	0.003	-0.0346	96.4
0.0015	-0.0278	0.0015	-0.0495	96.4
0.0007	-0.0218	0.0007	-0.066	96.4
0.0007	0.0007	0.0015	-0.0706	96.4
0.0015	0.0202	0.0015	-0.078	96.4
0.0022	0.027	0.0015	-0.0608	96.4
0.0022	0.0322	0	-0.0128	96.4
0.003	0.027	-0.0008	0.0405	96.4
0.0045	0.0232	-0.003	0.0585	96.5
0.0045	0.027	-0.0053	0.0465	96.5
0.003	0.0247	-0.0053	0.057	96.5
0.0022	0.0165	-0.0046	0.0585	96.5
0.0052	0.0157	-0.0046	0.0255	96.5
0.0082	0.0082	-0.003	-0.0128	96.5
0.009	-0.003	-0.003	-0.057	96.5
0.0067	0.0075	-0.0068	-0.0825	96.6
0.0007	0.0082	-0.0098	-0.0945	96.6
-0.0046	0.0067	-0.0068	-0.0653	96.6
-0.0046	0.0202	-0.0015	-0.0256	96.6
-0.0113	0.0052	-0.0038	0.012	96.6
-0.0428	-0.0015	-0.003	0.096	96.6
-0.0615	-0.0068	0	0.1402	96.6
-0.0285	-0.0293	0.0075	0.1455	96.6
0.012	-0.0436	0.0082	0.0937	96.7
0.042	-0.0563	0.0082	0.018	96.7
0.0622	-0.0713	0.0067	-0.0368	96.7
0.0465	-0.0465	0.0015	-0.1043	96.7
0.0292	-0.0315	0	-0.0878	96.7
0.0052	-0.0405	-0.0038	-0.027	96.7
-0.0203	-0.0105	-0.0038	0.0097	96.7
-0.024	-0.0105	0.0022	0.036	96.7
-0.0218	-0.0195	0.0052	0.0802	96.7
-0.0181	-0.012	0.0075	0.0727	96.7
-0.0143	-0.0158	0.009	0.033	96.8
-0.0083	-0.027	0.0067	0.0352	96.8
-0.0113	-0.039	0.0037	0.0067	96.8
-0.0158	-0.024	0.0037	-0.0443	96.8
-0.0195	0.0052	0.0037	-0.1006	96.8
-0.021	0.027	0.003	-0.0863	96.8
-0.0091	0.0367	0.0052	-0.0346	96.8
0.0007	0.0427	0.0045	0.0015	96.9
0.0045	0.021	0.003	0.051	96.9
0.006	0.006	0.0067	0.063	96.9
0.0105	0.0142	0.009	0.0547	96.9
0.0142	0.0157	0.0067	0.033	96.9
0.009	0.0127	0.0007	0.0135	96.9
0.0007	0.0007	-0.0023	0.0052	96.9
0	0.003	0.0007	-0.0383	96.9
0.003	0.0105	0.003	-0.0885	96.9
0.0037	0.027	0.0045	-0.105	97
0.0052	0.042	0.0015	-0.0728	97
0	0.0345	-0.0068	-0.027	97
-0.0068	0.0255	-0.0113	0.033	97
-0.0046	0.0165	-0.0098	0.0922	97
-0.003	0.0082	-0.0075	0.0967	97
-0.0015	-0.0091	-0.0046	0.0682	97
-0.0008	-0.0143	-0.0023	0.0142	97
0.0052	0.003	0.0022	-0.0083	97
0.009	-0.0008	0.0015	0.0112	97
-0.0008	-0.0225	-0.0023	0.0022	97.1
-0.0068	-0.027	0	0.0142	97.1
-0.003	-0.0075	0.0015	0.0285	97.1
-0.003	-0.0173	-0.0015	0.0037	97.1
-0.006	-0.0278	-0.003	-0.0225	97.1
-0.0023	-0.0158	-0.0046	-0.024	97.1
0	-0.015	-0.006	-0.0405	97.1
-0.0008	-0.0038	-0.0046	-0.0668	97.1
0.0007	0.0052	-0.0068	-0.0668	97.1
0.0015	0.021	-0.0083	-0.0443	97.1
0	0.0345	-0.0113	-0.0233	97.1
0	0.027	-0.0083	-0.039	97.1
0.0075	0.0292	0.0022	-0.0225	97.1
0.0135	0.0292	0.006	0.0187	97.1
0.0127	0.0157	0.0105	0.0285	97.1
0.0127	0	0.0105	0.015	97.1
0.0067	-0.0015	0.0045	0.0052	97.1
-0.0008	-0.0053	0.0037	-0.0023	97.2
-0.0008	-0.0075	0.0007	0.0022	97.2
-0.0046	-0.0046	0	0.024	97.2
-0.0053	-0.0143	-0.0015	0.0457	97.2
-0.0083	-0.0256	-0.0053	0.0427	97.2
-0.0135	-0.027	-0.0068	0.009	97.2
-0.0105	-0.012	-0.0068	0.0255	97.2
-0.0091	-0.0053	-0.0046	0.0255	97.2
-0.0075	0.0135	0	0.024	97.2
-0.0015	0.0255	0.003	0.0105	97.2
0.003	0.0217	0.009	-0.0203	97.2
0.0052	0.0165	0.0135	-0.0046	97.2
0.0022	-0.012	0.0067	-0.0203	97.2
-0.0068	-0.024	0.003	-0.0263	97.2
-0.0158	-0.0285	0.0037	0.0187	97.2
-0.0158	-0.0315	-0.0008	0.0817	97.2
-0.0143	-0.0293	-0.0015	0.0502	97.2
-0.0105	-0.012	0	0.0172	97.2
-0.003	-0.0015	0.0067	0.0255	97.2
0.0007	-0.0128	0.012	-0.0293	97.2
-0.0008	-0.012	0.0105	-0.0623	97.2
-0.0023	-0.027	0.0082	-0.0773	97.2
-0.0008	-0.0233	0.0082	-0.0698	97.2
0.006	0.0075	0.0097	-0.0203	97.2
0.0082	0.0127	0.0045	0.0472	97.2
0.0037	0.0015	0	0.0502	97.2
0.0022	-0.0046	0.0007	0.018	97.2
0.0037	0.0082	0.0045	0.0045	97.2
0.0082	0.0195	0.006	-0.0113	97.2
0.0105	0.009	0.0015	-0.0428	97.2
0.0045	0.0217	-0.0053	-0.0735	97.2
-0.0053	0.0352	-0.0135	-0.0383	97.2
-0.0105	0.0315	-0.0091	-0.0315	97.2
-0.0105	0.0247	-0.003	0.012	97.2
-0.0053	-0.0135	0.0015	0.0502	97.2
0.0022	-0.0383	0.0082	0.072	97.2
0.009	-0.0256	0.0135	0.099	97.2
0.0105	-0.021	0.0142	0.0645	97.2
0.009	-0.0158	0.012	-0.0195	97.2
0.0105	0.0015	0.0127	-0.1733	97.2
0.0082	0.0187	0.0082	-0.1823	97.2
-0.0023	0.0157	-0.0068	-0.1013	97.2
-0.0218	-0.0375	-0.0256	0.0232	97.2
-0.0346	-0.0615	-0.0233	0.1507	97.2
-0.024	-0.0383	-0.0083	0.1425	97.2
-0.0075	-0.0158	0.003	0.0937	97.2
0.0067	0.036	0.0112	0.0772	97.2
0.0142	0.0487	0.0112	0.084	97.2
0.012	0.0217	0.0082	0.075	97.2
0.0067	-0.0203	0.0037	0.1057	97.2
-0.0015	-0.039	0.0007	0.1335	97.2
-0.003	-0.0195	-0.0008	0.1102	97.2
-0.003	-0.0256	0	0.0435	97.2
-0.0046	-0.0346	0.0007	-0.0195	97.2
-0.0008	-0.012	0.0052	-0.0623	97.2
0.0045	0.0127	0.009	-0.0863	97.2
0.0105	0.0277	0.0127	-0.0788	97.2
0.0142	0.0225	0.0127	-0.0885	97.2
0.0105	0.012	0.009	-0.1006	97.2
0.0052	0.0082	0.006	-0.0945	97.2
-0.0008	-0.006	-0.0008	-0.0458	97.2
-0.0091	0	-0.0053	-0.0383	97.2
-0.0068	0.0052	-0.0053	-0.0518	97.2
-0.0008	0.009	-0.0038	-0.0375	97.2
0.003	0.0082	0	-0.0195	97.2
-0.0023	-0.0143	-0.003	0.024	97.2
-0.0203	-0.0315	-0.003	0.0217	97.2
-0.0465	-0.0195	0.0015	0.0052	97.2
-0.0495	0.0007	0.0045	0.009	97.2
-0.0105	-0.0015	0.0015	-0.0038	97.2
0.0255	0.0075	0.0007	0.0217	97.2
0.0555	0.009	-0.0015	0.0525	97.2
0.0705	-0.0015	-0.0068	0.024	97.2
0.0525	-0.0046	-0.0075	0.0067	97.2
0.0285	-0.0091	-0.0068	-0.0285	97.2
0.006	0.009	-0.0015	-0.0173	97.2
-0.0068	0.0307	0.0015	-0.0165	97.2
-0.0113	0.0202	0.003	-0.0465	97.2
-0.0113	0.0135	0.0052	0.027	97.2
-0.0105	0.0075	0.0015	0.0772	97.2
-0.0135	-0.0046	-0.0008	0.057	97.2
-0.0143	-0.0181	-0.0023	0.03	97.2
-0.0181	-0.0346	-0.0075	0.012	97.2
-0.0285	-0.0398	-0.0128	-0.0053	97.2
-0.0353	-0.027	-0.012	-0.0293	97.2
-0.0256	-0.012	-0.0105	-0.0383	97.2
-0.0143	-0.012	-0.0091	-0.0443	97.2
-0.006	-0.0143	-0.0068	-0.0375	97.2
0.0007	-0.0053	-0.0083	-0.0218	97.2
0.0015	0.0007	-0.0083	-0.027	97.2
0.0052	0.0127	-0.0068	-0.0128	97.2
0.0045	0.03	-0.0091	-0.0046	97.2
0.0037	0.039	-0.0091	-0.0128	97.2
0.0082	0.0427	-0.0015	-0.003	97.1
0.0105	0.0225	0.0022	0.009	97.1
0.0105	0	0.003	-0.0233	97.1
0.0105	-0.0091	0.0082	-0.0765	97.1
0.0097	-0.027	0.0097	-0.0803	97.1
0.0037	-0.0458	0.0082	-0.0713	97.1
-0.0046	-0.039	0.0007	-0.0068	97.1
-0.0113	-0.039	-0.0023	0.0667	97.1
-0.0091	-0.0361	0.0022	0.093	97.1
-0.003	-0.0173	0.003	0.1117	97.1
0.0007	0.0007	0.012	0.1432	97
0.0075	0.0105	0.0165	0.1485	97
0.0052	0.0045	0.015	0.1155	97
0.003	0.0105	0.0112	0.0682	97
0.0045	0.018	0.0082	-0.003	97
0.0007	0.0232	0.0082	-0.0473	97
0.0007	0.0352	0.009	-0.0706	97
0.0007	0.0517	0.006	-0.054	97
-0.003	0.0375	0.003	-0.0038	97
-0.0046	-0.003	0.0045	0.018	97
-0.0075	-0.0248	0.006	-0.0038	97
-0.0083	-0.0256	0.0052	-0.0203	97
-0.0046	-0.0195	0.003	-0.0398	97
-0.003	-0.015	-0.0008	-0.0413	97
-0.0038	-0.0008	-0.0023	-0.0443	97
-0.0008	0.009	-0.003	-0.0315	97
-0.0008	0.0082	-0.006	0.0015	97
0.0007	0.0082	-0.0053	-0.0158	97
0.0037	0.0075	-0.0046	-0.0091	97
0.003	-0.0023	-0.0046	-0.003	97
0.0037	-0.0083	0.0007	0.0105	97
0.0052	0	0.0045	0.0315	97
0.003	-0.0008	0.003	0.0127	97
-0.0008	0.012	0.0015	0.0015	97
-0.0015	0.0315	0	-0.0158	97
-0.0046	0.021	-0.0023	-0.0091	97
-0.0083	-0.0105	-0.0038	0.0067	97
-0.0113	-0.0308	-0.0038	0.012	97
-0.0105	-0.0308	0.0015	0.0172	97
-0.0053	-0.03	0.0052	0.0217	97
-0.0046	-0.0315	0.0045	0.012	97
-0.0046	-0.0405	0.0052	-0.0443	97
-0.003	-0.0346	0.0045	-0.0975	97
-0.0015	0.0142	0.0015	-0.126	97
-0.003	0.054	-0.0023	-0.1028	97
-0.0091	0.0532	-0.003	-0.0293	97
-0.0105	0.0472	-0.0023	0.015	97
-0.003	0.0405	0.0045	0.0645	97
0.0082	0.0247	0.0075	0.1035	97
0.009	0.006	0.006	0.0742	97
0.0097	-0.0181	0.0075	0.0495	97
0.0082	-0.039	0.0045	0.0652	97
-0.0023	-0.042	0.0015	0.063	97
-0.0105	-0.0503	-0.0046	0.042	97
-0.0143	-0.0525	-0.0068	0.0435	97
-0.0091	-0.0323	-0.003	0.0127	97
-0.006	-0.0083	-0.0015	0.0015	97
-0.0015	0.0225	0.0015	-0.0015	97
0.0082	0.0427	0.0052	0.0142	97
0.012	0.0292	0.0067	0.084	97
0.012	-0.0091	0.0075	0.0712	97
0.0097	-0.0195	0.0082	0.0127	97
0.0105	0.0007	0.0105	-0.0533	97
0.0082	0.0007	0.0067	-0.078	97
-0.0068	-0.0091	-0.0083	-0.0458	97
-0.024	-0.0383	-0.0218	-0.0256	97
-0.0308	-0.0773	-0.0203	0.0127	97
-0.0256	-0.0615	-0.0105	0.054	97
-0.0128	-0.0195	0.0015	0.0142	97
-0.0015	-0.0038	0.0045	-0.0915	97
-0.0015	-0.0008	0.0022	-0.1178	97
-0.0015	0.0135	0.0045	-0.0368	97
0.0015	0.0315	0.003	0.072	97
0.0045	0.0345	0.0067	0.1102	97
0.0105	0.0277	0.009	0.033	97
0.015	0.0307	0.0105	-0.0885	97
0.0165	0.051	0.012	-0.0998	97
0.018	0.0592	0.0097	-0.0203	97
0.0157	0.0435	0.006	0.0142	97
0.012	0.0127	0.0022	0.0802	97
0.0015	-0.0368	-0.0038	0.1342	97
-0.006	-0.0548	-0.0038	0.084	97
-0.003	-0.0368	0	0.0667	97
0.0007	-0.0323	-0.0008	0.075	97
-0.0023	-0.0353	-0.0038	0.0277	97
-0.003	-0.0263	-0.003	0	97
-0.0008	-0.0128	0	-0.0188	97
0.0015	-0.0068	-0.0015	-0.0323	97
0.003	-0.0083	0.0007	-0.0346	97
0.0037	-0.0091	0.0015	-0.0615	97
0.003	-0.0068	-0.003	-0.0638	97
-0.0053	-0.0015	-0.0008	-0.0533	97
-0.0278	-0.0008	0.0007	-0.057	97
-0.048	0.0052	0.0007	-0.0653	97
-0.0218	0.0142	0.0015	-0.0555	97
0.018	0.0105	0.0007	-0.0368	97
0.0442	0.006	0.0015	-0.0143	97
0.0652	-0.0015	0.0007	0.0142	97
0.0517	0.0015	-0.0015	0.027	97
0.03	0.0097	0.0015	0.0202	97
0.0075	0.0105	-0.0008	0.0075	97
-0.0128	0.0097	-0.003	0.009	97
-0.0173	0.0067	0.0015	0.003	97
-0.0195	0.0082	0.003	0.0022	97
-0.0195	0.009	0.0067	0.0165	97
-0.0225	0.009	0.0067	0.0322	97
-0.0218	0.0075	0.0052	0.027	97
-0.021	0	0.0045	0.0157	97
-0.0263	-0.003	0.0015	0.0127	97
-0.0256	0.0007	0.0022	0.0067	97
-0.021	0.0015	0.0015	0	97
-0.012	-0.0008	0.0015	-0.021	97
-0.0083	0.0007	-0.003	-0.027	97
-0.0091	-0.0038	-0.0053	-0.0195	97
-0.006	-0.0143	-0.0023	-0.0181	97
-0.0015	-0.0181	-0.0015	-0.0181	97
0.0052	-0.0038	0.003	-0.0038	97
0.0105	0.0105	0.0045	0.012	97.1
0.009	0.0105	0.003	0.0022	97.1
0.0075	0.0165	0.0037	-0.0023	97.1
0.0112	0.0202	0.0067	-0.003	97.1
0.0105	0.0127	0.0067	-0.0278	97.1
0.006	0.012	0.0015	-0.0315	97.1
0.0022	0.009	-0.0008	-0.042	97.1
0.0007	-0.0068	-0.003	-0.0525	97.1
0.0022	-0.0083	-0.0015	-0.003	97.1
0.0045	-0.0046	-0.0015	0.0652	97.1
0.0037	-0.0218	-0.0015	0.1147	97.1
0.0007	-0.033	0.0007	0.093	97.1
0.0022	-0.03	-0.0008	0.0502	97.1
0	-0.024	-0.0053	0.03	97.1
-0.0038	-0.024	-0.0083	-0.0165	97.1
-0.0068	-0.0368	-0.0075	-0.0405	97.1
-0.0068	-0.0233	-0.0015	-0.0293	97.1
0.0007	0.003	0.0015	-0.024	97.1
0.0007	0.0067	0	0.0105	97.1
-0.0015	0.0022	0.0007	0.0382	97.1
-0.0015	-0.0053	0.0037	0.0315	97.2
-0.0023	-0.0075	0.0045	0.0187	97.2
0.0007	-0.0015	0.0052	0.0172	97.2
0.003	-0.0023	0.0052	0.015	97.2
0.0015	-0.0046	0.0007	-0.015	97.2
0.0007	0.0142	0.0007	-0.0353	97.2
0.0052	0.015	0.0067	-0.0555	97.2
0.0045	0.0045	0.0067	-0.066	97.2
0	0.0157	0.0045	-0.0443	97.2
-0.0015	0.0165	0.0052	-0.0263	97.2
-0.0008	0.0105	0.0037	0.003	97.2
-0.0008	-0.0083	0.0015	0.033	97.2
-0.003	-0.0091	0.0022	0.054	97.2
-0.0008	0.0045	0.003	0.0817	97.2
-0.0008	-0.0068	0.003	0.057	97.2
-0.0023	-0.0135	0.0045	0.009	97.2
-0.0023	-0.012	0.0015	-0.0143	97.2
-0.0068	-0.0046	0	-0.0143	97.2
-0.0105	-0.0015	-0.0008	0.0045	97.2
-0.0105	-0.0053	-0.0008	0.0015	97.2
-0.0083	-0.0023	0.0007	-0.0128	97.2
-0.0068	0.0022	0.003	-0.0195	97.2
-0.0046	0.0082	0.0075	-0.0263	97.2
-0.0008	0.0232	0.0067	-0.024	97.2
0.0022	0.018	0.0045	-0.0353	97.2
0.0045	0.0015	-0.0008	-0.0256	97.2
0.0022	0.009	-0.0023	0.039	97.2
0.0067	0.0097	-0.0015	0.054	97.2
0.0112	0.0015	-0.003	0.0615	97.2
0.012	-0.0105	-0.003	0.0652	97.2
0.0067	-0.0278	-0.0053	0.0457	97.2
0.0037	-0.024	-0.0075	0.0465	97.2
0.0052	-0.0165	-0.0053	0.0217	97.2
0.0015	-0.0135	-0.0075	-0.0165	97.2
0	0.0037	-0.0046	-0.0706	97.2
0.003	0.018	-0.003	-0.0968	97.2
0.003	0.0187	-0.0083	-0.0698	97.2
-0.0008	-0.003	-0.0128	-0.0585	97.2
-0.0046	-0.0308	-0.0105	-0.0405	97.2
-0.0053	-0.0308	-0.0053	-0.006	97.2
-0.0068	-0.0361	-0.0083	0.0202	97.2
-0.0158	-0.0443	-0.0181	0.0577	97.2
-0.0218	-0.0338	-0.0143	0.057	97.2
-0.0158	-0.024	-0.0046	0.0105	97.2
-0.0091	-0.0023	0.003	-0.0323	97.2
-0.0023	0.0165	0.0082	-0.0308	97.3
-0.003	0.0165	0.0052	0.0052	97.3
-0.003	0.0165	0.009	0.0217	97.3
0.0052	0.0187	0.0105	0.0765	97.3
0.012	0.0285	0.012	0.0915	97.3
0.0082	0.0315	0.0105	0.054	97.3
-0.0203	0.0195	0.0045	0.0705	97.3
-0.0361	-0.0008	0.0022	0.0405	97.3
-0.0091	-0.0225	-0.0008	0.0112	97.3
0.0172	-0.0405	-0.0038	0.0015	97.3
0.042	-0.0503	-0.0046	-0.0203	97.3
0.0577	-0.0368	-0.0008	-0.0495	97.3
0.0435	-0.0105	-0.0008	-0.0818	97.3
0.021	0.0052	0.0007	-0.0923	97.3
-0.0038	0.0225	0.0045	-0.0968	97.3
-0.0143	0.0367	0.0052	-0.0795	97.3
-0.0128	0.0352	0.0097	-0.0503	97.3
-0.0143	0.0247	0.012	-0.0083	97.3
-0.0143	0.0105	0.0112	0.0262	97.3
-0.0143	0.0075	0.012	0.0442	97.3
-0.0105	0.0052	0.012	0.06	97.3
-0.0173	-0.0195	0.0075	0.0607	97.3
-0.027	-0.0203	0.0082	0.0255	97.3
-0.024	-0.003	0.009	-0.021	97.3
-0.0158	-0.0075	0.0052	-0.0046	97.3
-0.0068	-0.012	0.0082	0.0187	97.3
-0.0015	-0.012	0.0045	0.0127	97.3
-0.0008	-0.0053	0.0015	0.0045	97.3
0.0007	0.0097	-0.0008	-0.0105	97.3
0.0007	0.0255	-0.0015	-0.0015	97.3
0.0015	0.0232	-0.003	-0.0165	97.3
0.0015	0.0097	-0.0068	-0.0443	97.3
0.0015	0.018	-0.003	-0.0225	97.3
0.0075	0.0217	-0.0015	0.0195	97.3
0.009	-0.003	0.0007	0.0337	97.3
0.0015	-0.0293	0.0022	0.0217	97.3
-0.0008	-0.039	0.0045	0.0217	97.3
0.0015	-0.0293	0.009	0.021	97.3
0.0045	-0.0158	0.0082	0.012	97.3
0.0045	-0.0181	0.006	0.0127	97.3
0.003	-0.0195	0.0022	-0.0038	97.3
0.003	-0.0075	0.0007	-0.0195	97.3
0.003	-0.012	0.0007	-0.0128	97.3
0.0007	-0.021	0.0007	-0.0128	97.3
-0.0008	-0.006	0.0007	0.0112	97.3
0.003	0.0135	0.0015	0.0352	97.3
0.0052	0.0202	-0.0008	0.0255	97.3
0.0052	0.0277	-0.0008	0.003	97.3
0.0082	0.0247	0.003	0.003	97.3
0.0067	0	0.0015	0.009	97.3
0.003	-0.0173	-0.0015	-0.0046	97.3
-0.003	-0.0083	-0.0038	-0.0225	97.3
-0.0053	-0.0181	-0.0113	-0.0346	97.3
-0.012	-0.0225	-0.0165	-0.0353	97.3
-0.0158	0.003	-0.0165	-0.048	97.3
-0.0105	0.006	-0.0098	-0.0518	97.3
-0.003	0.0232	-0.0008	-0.042	97.3
0.0052	0.0525	0.0067	-0.0383	97.3
0.0075	0.0615	0.009	0.0052	97.3
0.006	0.0345	0.0067	0.0945	97.3
0.003	-0.0098	0.0052	0.123	97.3
0.003	-0.024	0.0082	0.0915	97.3
0.0037	-0.0323	0.0052	0.0525	97.3
0	-0.0383	0.0052	0.0277	97.3
-0.0008	-0.042	0.0067	0.0045	97.3
-0.0023	-0.0293	0.0015	-0.0105	97.3
-0.0046	-0.0098	0.0007	-0.0015	97.3
-0.006	0.0045	0.0007	0.0082	97.3
-0.006	0.009	-0.0015	0.03	97.3
-0.006	-0.0038	-0.0008	0.0307	97.3
-0.0075	-0.0068	-0.0015	0.015	97.2
-0.006	-0.0105	-0.0023	-0.003	97.2
-0.0046	-0.012	-0.0038	-0.0188	97.2
-0.0068	-0.0053	-0.0053	-0.0346	97.2
-0.0046	-0.0038	-0.0053	-0.0638	97.2
-0.0046	-0.0008	-0.0053	-0.0998	97.2
-0.0046	0.0075	-0.0008	-0.1073	97.2
-0.0008	0.0195	0.0015	-0.0623	97.2
-0.0053	0.0225	-0.0015	-0.0113	97.2
-0.006	0.0082	0.0022	0.018	97.2
0.0015	0	0.0082	0.06	97.2
0.006	0.0007	0.0105	0.093	97.2
0.0037	-0.0008	0.0127	0.084	97.2
0.003	-0.0128	0.0067	0.0322	97.2
0.0015	-0.024	0.0007	-0.0023	97.2
-0.0046	-0.027	-0.003	-0.003	97.2
-0.0098	-0.0383	-0.0046	-0.0143	97.2
-0.0105	-0.0353	-0.0046	-0.0015	97.2
-0.0053	-0.0203	-0.0015	-0.024	97.2
-0.0008	-0.0075	-0.0038	-0.0428	97.2
0.0007	0.0105	-0.0046	-0.0683	97.2
-0.0008	0.0217	-0.0008	-0.1021	97.2
-0.0015	0.0367	0.0045	-0.108	97.2
0.0022	0.0412	0.0075	-0.0758	97.2
0.006	0.0405	0.009	0.0045	97.2
0.0067	0.0442	0.0082	0.0457	97.2
0.006	0.0315	0.009	0.117	97.2
0.0075	0.012	0.0082	0.1365	97.2
0.0067	-0.0008	0.0067	0.1005	97.2
0.0022	-0.003	0.0067	0.0937	97.2
0.0022	-0.0195	0.0067	0.0705	97.2
0.0015	-0.0353	0.0067	0.0682	97.2
-0.0008	-0.0346	0.003	0.066	97.2
-0.003	-0.0323	-0.0008	0.0442	97.2
-0.006	-0.0346	-0.0053	0.018	97.2
-0.0091	-0.0346	-0.006	-0.0181	97.2
-0.0098	-0.0195	-0.006	-0.0405	97.2
-0.0046	-0.0068	-0.006	-0.0458	97.2
-0.0023	-0.0105	-0.0068	-0.0533	97.2
-0.0008	-0.0105	-0.006	-0.045	97.2
0.003	0	-0.006	-0.027	97.2
0.003	0.0135	-0.0053	-0.03	97.2
0.006	0.0142	-0.0008	-0.0413	97.2
0.0052	0.018	-0.0008	-0.0488	97.2
0.0022	0.0217	0.0007	-0.0578	97.2
0.003	0.018	0.0015	-0.0675	97.2
0.0015	0.015	0.0007	-0.0458	97.2
0.0015	0.015	0.0015	-0.0135	97.2
0.003	0.0127	0.0045	0.0082	97.2
0.003	0.0105	0.0022	0.0195	97.2
-0.0015	0.0277	-0.0015	0.0232	97.1
0.003	0.036	0.0015	0.045	97.1
0.0082	0.0157	0.0022	0.0592	97.1
0.003	-0.0083	0.0007	0.072	97.1
0	-0.0225	0	0.0607	97.1
-0.0038	-0.0368	-0.0008	0.0292	97.1
-0.0105	-0.0578	-0.0053	0.012	97.1
-0.0128	-0.0555	-0.0068	-0.0075	97.1
-0.012	-0.0368	-0.0046	-0.0046	97.1
-0.0091	-0.024	-0.0053	0.0015	97.1
-0.0083	-0.0165	-0.0053	0.0045	97
-0.0053	-0.0091	-0.0038	-0.003	97
0	0.015	0.0015	-0.0465	97
0.0067	0.0367	0.0015	-0.0833	97
0.0075	0.0315	0.0007	-0.0938	97
0.0067	0.0307	0	-0.0788	97
0.0015	0.0232	-0.0053	-0.0383	97
-0.0091	-0.0008	-0.006	0.018	97
-0.0083	0.0015	-0.0008	0.072	97
0.0007	0.0172	0.0037	0.0885	97
0.0052	0.0105	0.0052	0.0502	97
0.0052	0.0052	0.0082	0.0165	97
0.003	0.009	0.0067	0.0195	97
-0.0008	0.0067	0.0045	0.024	97
0	0.0037	0.006	0.0472	97
0.0015	-0.0068	0.0037	0.0472	97
0.0015	-0.0158	0.0015	0.0367	97
0.0045	-0.0361	-0.0023	0.0202	97
0.0007	-0.0533	-0.0053	-0.0278	97
-0.0053	-0.0308	-0.003	-0.0856	97
-0.0015	0.0022	-0.003	-0.1223	96.9
0.0022	0.0315	-0.0023	-0.0863	96.9
-0.0008	0.039	-0.0023	-0.057	96.9
-0.0046	0.0382	-0.0008	-0.0375	96.9
-0.0075	0.036	0.0045	0.03	96.9
-0.0098	0.0075	0.012	0.0832	96.9
-0.0075	-0.0218	0.0157	0.108	96.9
-0.006	-0.0218	0.0165	0.114	96.9
-0.003	-0.0218	0.0187	0.1005	96.9
0.0045	-0.0256	0.0195	0.0847	96.9
0.0022	-0.0338	0.0105	0.0405	96.9
-0.0083	-0.0578	0.0022	-0.0128	96.9
-0.012	-0.0518	-0.0008	-0.0278	96.9
-0.0091	-0.0315	-0.0046	-0.0428	96.9
-0.0091	-0.0195	-0.0083	-0.0405	96.9
-0.0083	-0.0091	-0.0068	-0.0405	96.9
-0.0046	0.0022	-0.0015	-0.0458	96.9
-0.003	0.018	0.0022	-0.0503	96.9
0.0022	0.0195	0.0045	-0.0495	96.9
0.006	0.0157	0.0067	-0.0203	96.9
0.009	0.0135	0.009	0.006	96.9
0.0097	0.0157	0.0075	-0.0053	96.9
0.0082	0.0082	0.0067	-0.0465	96.9
0.0127	0.0217	0.0082	-0.0623	96.9
0.0172	0.048	0.0052	-0.0308	96.9
0.012	0.0442	-0.0075	0.0315	96.9
-0.0008	0.0232	-0.0158	0.0675	96.9
-0.0038	-0.0075	-0.0128	0.093	96.9
-0.0053	-0.0256	-0.0098	0.093	96.9
-0.0053	-0.0225	-0.006	0.0472	96.9
-0.006	-0.0233	-0.0053	-0.0015	96.8
-0.0083	-0.0338	-0.0053	-0.0015	96.8
-0.0068	-0.0465	-0.0068	0.0487	96.8
-0.0046	-0.057	-0.0046	-0.0068	96.8
-0.0008	-0.045	-0.0046	-0.0743	96.8
-0.003	-0.0195	-0.0091	-0.0735	96.8
-0.0075	0	-0.0068	-0.0878	96.8
-0.0068	0.0067	0.0007	-0.0706	96.8
-0.0083	0.006	-0.0008	-0.0195	96.8
-0.0091	-0.0023	-0.0053	0.0007	96.8
-0.0083	-0.0046	-0.0053	0.0015	96.7
-0.0015	-0.0015	-0.0053	0.0195	96.7
0.0007	-0.0128	-0.0038	-0.003	96.7
0.0037	0.0225	-0.0008	-0.0285	96.7
0.0105	0.0727	0.0022	-0.015	96.7
0.0105	0.0795	0.0082	0.0052	96.7
0.0112	0.0727	0.009	0.039	96.7
0.009	0.0442	0.0105	0.099	96.7
0.0045	0.015	0.0142	0.1365	96.7
0.006	-0.021	0.012	0.1125	96.7
-0.0015	-0.0578	0.006	0.0555	96.7
-0.012	-0.054	0.0052	0.0165	96.7
-0.0113	-0.039	0.006	-0.0075	96.7
-0.0083	-0.027	0.006	-0.0293	96.7
-0.0075	-0.0181	0.0052	-0.0195	96.7
-0.0098	-0.0203	0.0022	-0.0113	96.7
-0.0068	-0.0278	0.003	0.0007	96.7
-0.0046	-0.0361	0.0007	-0.0053	96.7
-0.003	-0.033	0	-0.027	96.7
0.0015	-0.006	0.003	-0.0465	96.7
0	0.0187	0.0037	-0.0945	96.7
-0.015	0.018	0.0045	-0.12	96.7
-0.0368	0.0172	0.0045	-0.1118	96.7
-0.0278	0.033	0.0067	-0.0743	96.7
0.0127	0.0382	0.0037	-0.0046	96.7
0.0345	0.0142	-0.0046	0.063	96.7
0.0525	-0.0128	-0.0053	0.0952	96.7
0.0577	-0.0068	0.0007	0.0765	96.7
0.0405	0.0007	0.0052	0.0592	96.7
0.0202	0.0067	0.0022	0.0255	96.7
-0.0046	0.009	-0.0046	-0.015	96.7
-0.0158	0.018	-0.0068	-0.0105	96.7
-0.0173	0.0202	-0.0098	0.0052	96.7
-0.0181	0.0022	-0.0091	0.024	96.7
-0.0158	-0.0008	-0.0038	0.009	96.7
-0.0135	0.0007	-0.0015	0.0135	96.7
-0.0135	-0.0053	0.0015	0.0367	96.7
-0.021	-0.024	0.0022	0.0165	96.7
-0.0308	-0.0308	0.0015	0.0052	96.7
-0.03	-0.0285	0.003	-0.003	96.7
-0.0188	-0.0233	0.0015	-0.012	96.7
-0.0113	-0.0091	0.0045	-0.0053	96.7
-0.0068	-0.0188	0.0045	0.0127	96.7
-0.003	-0.015	0.0037	0.0045	96.7
-0.003	0.0015	0.006	0.0052	96.7
-0.0015	-0.0046	0.003	0.0277	96.7
0	0.0052	0.003	0.0277	96.7
0.0082	0.0142	0.0045	0.0405	96.7
0.0082	0.0075	0.0015	0.0315	96.7
0.0045	0.0045	0.0015	0.0037	96.7
0.0052	-0.0023	0.0045	-0.0075	96.6
0.006	0.0007	0.0067	-0.0158	96.6
0.0067	0.0067	0.0052	-0.012	96.6
0.0052	0.0142	0.0015	-0.0135	96.6
0.0037	0.0052	0.0007	-0.0233	96.6
0.0045	-0.0008	-0.0008	-0.0128	96.6
0.003	0.0037	0	-0.0105	96.6
0.003	-0.0015	-0.0023	-0.03	96.6
0.0037	0.0045	-0.0015	-0.0375	96.6
0.0052	0.0165	0.0007	-0.0383	96.6
0.0075	0.0262	0.0015	-0.0353	96.5
0.0105	0.0367	0.0015	-0.0413	96.5
0.0105	0.0277	-0.0023	-0.0135	96.5
0.0067	0.0052	-0.0046	0.0307	96.5
0.0075	-0.0091	-0.0008	0.0352	96.5
0.0067	-0.0285	-0.0015	0.0345	96.5
-0.0008	-0.0503	-0.003	0.0195	96.5
-0.0091	-0.06	-0.006	0.0105	96.5
-0.0165	-0.0495	-0.0091	0.0075	96.5
-0.0143	-0.0263	-0.003	0.0172	96.5
-0.0046	-0.0188	-0.0015	0.0247	96.5
-0.0023	-0.0165	-0.0008	0.0292	96.5
-0.0008	-0.0135	0.0015	0.0382	96.5
0.0007	-0.0135	0.0037	0.0007	96.5
-0.0008	-0.0143	0.003	-0.012	96.5
-0.0023	-0.0023	0	-0.0143	96.5
-0.0023	0.012	-0.0015	-0.0195	96.5
-0.0008	0.0142	0.0007	-0.0181	96.5
-0.0008	0.0202	0.003	-0.0135	96.5
0	0.0165	0.0015	-0.0105	96.5
0.0022	0.0075	0.003	-0.0248	96.4
0.0007	0.0022	0.0022	-0.024	96.4
-0.006	-0.0015	0.0022	-0.027	96.4
-0.0091	-0.003	0.0045	-0.0285	96.4
-0.0083	-0.0068	0.0052	-0.0308	96.4
-0.0046	0.0037	0.0105	-0.0113	96.4
0.0022	0.0127	0.012	0.0232	96.4
-0.0008	0.0142	0.0067	0.0157	96.4
-0.003	0.024	0.003	-0.0075	96.4
-0.0008	0.0225	0.0015	0.0217	96.4
0.0015	0	0.0022	0.0405	96.4
0.0037	-0.0353	0.0007	0.0232	96.4
0	-0.0518	-0.0015	0.0007	96.4
-0.0015	-0.0375	-0.003	-0.015	96.4
-0.003	-0.0105	-0.0038	-0.003	96.4
-0.0195	-0.0023	-0.0068	0.0172	96.4
-0.0473	-0.015	-0.0105	0.0397	96.4
-0.0338	-0.0091	-0.0098	0.0322	96.4
0.0127	0.006	-0.0038	0.0255	96.4
0.0427	0.009	0	0.0262	96.4
0.0615	-0.0091	0	0.0352	96.3
0.0555	-0.0293	-0.0008	0.0435	96.3
0.033	-0.0218	0.0015	0.0052	96.3
0.012	0.0015	0.0022	-0.0053	96.3
-0.006	0.018	0.0007	-0.0195	96.3
-0.0143	0.024	-0.0023	-0.0346	96.3
-0.0188	0.0307	-0.0046	-0.0195	96.3
-0.0135	0.0315	-0.0015	-0.0015	96.3
-0.012	0.021	-0.0015	0.018	96.3
-0.0091	0.0127	0.003	0.0367	96.3
-0.0053	-0.006	0.009	0.045	96.3
-0.0181	-0.033	0.0052	0.0247	96.3
-0.033	-0.042	0.0007	0.0105	96.3
-0.033	-0.042	0.0007	0.0112	96.3
-0.0188	-0.0263	0.006	0.0225	96.3
-0.0091	0.0015	0.0082	0.0127	96.3
-0.0023	0.0255	0.0105	-0.0046	96.3
0.0015	0.0172	0.009	-0.0135	96.3
0.0007	0.0067	0.009	-0.0158	96.3
0.006	0.0142	0.0105	-0.0046	96.3
0.006	0.0097	0.0082	-0.0158	96.3
0.0052	0.015	0.0067	-0.0285	96.3
0.003	0.0135	0.0015	-0.0285	96.3
-0.0008	0.012	-0.0015	-0.033	96.3
0.0007	0.0135	-0.0023	-0.039	96.3
0.003	0.0187	-0.0023	-0.0413	96.3
0.0022	0.0217	-0.003	-0.0195	96.3
0.0015	0.018	-0.0046	0.006	96.3
0.0022	0.0157	-0.0046	0.0052	96.3
0.0015	0.003	-0.003	-0.0015	96.3
0.003	-0.0015	0.0015	-0.0053	96.2
0.003	-0.0158	0.003	-0.021	96.2
0.003	-0.0181	0.003	-0.0315	96.2
0.006	0.0015	0.0007	-0.024	96.2
0.0015	0.0037	-0.0008	-0.0225	96.2
-0.0015	0.0007	-0.0015	-0.0308	96.2
-0.0008	-0.0015	-0.003	-0.0083	96.2
-0.003	-0.003	-0.003	0.021	96.2
-0.003	-0.0105	-0.0053	0.0472	96.2
-0.0046	-0.0188	-0.0046	0.075	96.2
-0.0046	-0.015	0.0007	0.06	96.1
-0.0015	-0.0143	0.0022	0.0375	96.1
-0.0023	-0.0181	0.0015	0.0202	96.1
-0.0008	-0.0195	-0.0023	0.0045	96.1
-0.003	-0.0195	-0.003	-0.0053	96.1
-0.003	-0.0113	0	-0.012	96.1
-0.0015	-0.003	0.0007	-0.0188	96.1
-0.003	0.0067	0.0007	-0.0218	96.1
0.0007	0.0142	0.0022	-0.0195	96.1
0.0045	0.0157	0.0045	-0.0293	96.1
0.0067	0.012	0.0045	-0.015	96.1
0.0067	0.0015	0.0022	-0.0008	96.1
0.0067	0.0015	0.0007	0.009	96.1
0.0052	0.0007	-0.0015	0.0382	96.1
0	-0.0128	-0.0023	0.0502	96.1
-0.0023	-0.0181	-0.0008	0.0405	96.1
-0.0046	-0.0143	-0.0023	0.0112	96.1
-0.0053	-0.0091	-0.003	-0.0075	96
-0.0068	-0.0023	-0.0015	-0.0068	96
-0.0083	0.0045	0.0007	-0.0046	96
-0.0046	0.0105	-0.0008	0.0015	96
-0.003	0.0112	-0.0015	0.012	96
0.0015	0.0097	0.0015	0.021	96
0.0045	0.0015	0.0045	0.0135	96
-0.0008	-0.012	0.0052	-0.0015	96
-0.0038	-0.015	0.003	-0.0233	96
-0.0068	-0.0181	-0.0008	-0.0518	96
-0.0053	-0.0181	-0.0015	-0.0623	96
-0.0015	-0.0105	-0.0015	-0.0353	95.9
0.0022	-0.0158	-0.0023	0.0037	95.9
0.0022	-0.0181	-0.0046	0.0195	95.9
0.003	-0.0008	-0.0023	0.0127	95.9
0.0045	0.0232	-0.0023	0.0015	95.9
0.0007	0.0262	-0.0046	-0.003	95.9
-0.0008	0.0157	-0.0008	0.0112	95.9
-0.003	0.0052	0.003	0.0195	95.9
-0.0015	-0.0046	0.0105	0.0292	95.9
-0.0008	-0.0091	0.0075	0.0405	95.9
-0.003	-0.0128	0.0045	0.0307	95.8
0	-0.0053	0.006	0.0232	95.8
-0.0008	-0.0083	0.0007	0.0007	95.8
-0.0023	-0.021	-0.0015	-0.0038	95.8
-0.0008	-0.0218	-0.0015	0.0165	95.8
0.0007	-0.0128	0	0.036	95.8
0.0007	-0.012	0.003	0.0315	95.8
0.0007	-0.0203	0.0022	0.0127	95.8
-0.0008	-0.012	0.003	0.0127	95.8
-0.0015	-0.0038	0.0045	0.0135	95.8
-0.0053	-0.003	0.0052	0.0157	95.8
-0.0075	-0.0105	0.006	0.0022	95.8
-0.0053	-0.024	0.0067	-0.0135	95.8
-0.0053	-0.0203	0.0082	-0.0158	95.8
-0.0015	-0.0053	0.0105	-0.0278	95.8
0	0.0037	0.009	-0.0555	95.7
-0.0008	0.018	0.009	-0.0608	95.7
0.0007	0.0345	0.006	-0.0465	95.7
-0.0008	0.0345	0.003	-0.0518	95.7
0	0.0315	0.0045	-0.0503	95.7
0.0007	0.0262	0.0052	-0.0135	95.7
0.0007	0.0127	0.0045	0.0202	95.7
-0.0008	0.0007	0.0015	0.0382	95.6
-0.003	-0.0128	-0.0015	0.0382	95.6
-0.0053	-0.033	-0.0068	0.0127	95.6
-0.0046	-0.033	-0.0083	-0.0091	95.6
0.0007	-0.0203	-0.0105	-0.0053	95.6
0.0007	-0.003	-0.012	0.0067	95.6
-0.0015	0.0105	-0.0128	0.0142	95.6
0.0007	0.0052	-0.012	0.0255	95.6
0.0007	0.0082	-0.0105	0.0315	95.6
0.0007	0.0022	-0.0105	0.0292	95.6
0.0007	-0.0075	-0.0083	0.0345	95.6
-0.0008	-0.0083	-0.0083	0.0315	95.6
0.0007	-0.006	-0.006	0.0045	95.6
0.0015	-0.003	-0.003	-0.012	95.5
0.0007	0.003	-0.0015	-0.0105	95.5
0.0007	0.0082	-0.0015	-0.0091	95.5
0.0007	0.0052	-0.0015	0.0007	95.5
0.0015	0.0037	0.0007	0.0007	95.5
0.0015	-0.0008	0.0022	-0.0015	95.5
-0.0008	0.0007	0.0015	-0.0015	95.5
-0.0015	0.0007	0.0022	0	95.4
-0.0008	0	0.0045	-0.0015	95.4
0	0.0022	0.0045	-0.006	95.4
0.0015	0.0007	0.0045	-0.0046	95.4
0.0022	-0.0008	0.0045	-0.0091	95.4
0.0007	-0.0023	0.0052	-0.0068	95.4
0	-0.0015	0.0045	-0.003	95.4
-0.0008	-0.0015	0.0045	-0.0038	95.4
-0.0015	-0.0046	0.0082	-0.0083	95.4
-0.0038	-0.0046	0.0067	-0.0098	95.4
-0.0015	0.0052	0.0067	-0.0068	95.3
-0.0008	0.0157	0.006	-0.0023	95.3
-0.0015	0.0195	0.0052	0.0007	95.3
0.0007	0.0127	0.0052	0.0045	95.3
-0.0008	0.009	0.0067	0.0082	95.3
-0.0008	0.0082	0.009	0.0142	95.3
-0.0008	-0.0038	0.0067	0.0157	95.3
-0.0015	-0.0098	0.0067	0.009	95.3
0	-0.0068	0.0052	0.0052	95.3
-0.0008	-0.0075	0.0045	0.003	95.3
-0.0046	-0.0113	0.0037	0.006	95.2
-0.0068	-0.0195	0.0007	0.009	95.2
-0.0068	-0.0203	-0.0008	0.0045	95.2
-0.0053	-0.0165	-0.0023	0.0015	95.2
-0.003	-0.0105	-0.0023	-0.0046	95.2
-0.0023	-0.0046	-0.0023	-0.015	95.2
-0.0015	0.0007	-0.003	-0.015	95.1
0	0.0037	-0.003	-0.0046	95.1
0.0007	0.003	-0.003	0.0015	95.1
-0.0008	0.0045	-0.0023	0.0105	95.1
0.0015	0.0037	-0.0008	0.021	95
0.0067	0	0.0007	0.0165	95
0.0097	-0.0015	0.003	0.0007	95
0.0075	0.003	0.0052	-0.0068	95
0.003	0.0052	0.0022	-0.0008	95
-0.0015	-0.0053	-0.0008	0.003	94.9
-0.006	-0.0083	-0.0046	0.0067	94.9
-0.006	-0.0023	-0.0023	0.0045	94.9
-0.0008	-0.0038	0.0015	-0.0143	94.9
0	0.0015	0.003	-0.0188	94.9
0.0007	0.0217	0.0045	-0.0008	94.8
0.003	0.0277	0.0015	0.0292	94.8
-0.0015	0.0127	0.0015	0.0502	94.8
-0.0008	-0.003	0.0022	0.045	94.8
0.0007	-0.0278	0.0015	0.0232	94.8
0	-0.0533	0.0052	0.0172	94.7
-0.0015	-0.057	0.006	-0.0105	94.7
-0.012	-0.0495	0.0015	-0.039	94.7
-0.0143	-0.0293	0.003	-0.042	94.7
-0.0098	-0.0105	0.0052	-0.0428	94.7
-0.0068	0.0045	0.0067	-0.0143	94.6
-0.0038	0.009	0.006	0.0127	94.6
0.0015	-0.0046	0.0037	0.0442	94.6
0.0022	-0.0195	0	0.0405	94.5
-0.0038	-0.0181	-0.0038	0.024	94.5
-0.0053	-0.0181	-0.0091	0.0022	94.5
-0.0083	-0.0248	-0.012	-0.0233	94.5
-0.0105	-0.015	-0.0098	-0.0068	94.5
-0.0083	-0.0008	-0.0068	0.0015	94.5
-0.0046	0.0097	-0.003	0.0075	94.5
-0.0015	0.0172	-0.0008	-0.0083	94.4
-0.0008	0.0202	0.0015	-0.0188	94.4
0.0015	0.0247	0.0037	-0.0128	94.4
0.0022	0.0217	0.003	-0.012	94.3
0.0022	0.0187	0.003	-0.003	94.3
0.0045	0.0232	0.0037	-0.0008	94.3
0.0052	0.0262	0.0052	-0.0038	94.2
0.0067	0.0255	0.0045	-0.0091	94.2
0.0082	0.0217	-0.0015	-0.0158	94.2
0.006	0.0157	-0.0053	-0.0135	94.1
0.0015	0.0052	-0.0068	0	94.1
-0.0023	-0.0023	-0.0083	0.0105	94.1
-0.0046	-0.003	-0.0075	0.0225	94
-0.0046	0.0015	-0.0053	0.0307	94
0.0015	0.0075	-0.0046	0.0067	94
0.0022	0.0067	-0.0015	-0.0225	94
0.0015	0.0142	0.003	-0.0158	94
0.0022	0.0157	0.0045	-0.0128	93.9
0.0007	0.0037	0.0045	-0.0195	93.9
0.0007	-0.003	0.0045	-0.0098	93.9
-0.0008	-0.0113	0.0015	0	93.8
-0.0023	-0.0165	0.003	0.0195	93.8
0.0007	-0.0256	0.0082	0.012	93.8
0.0015	-0.0308	0.009	-0.0346	93.7
0	-0.0233	0.0105	-0.045	93.7
-0.0015	-0.0105	0.009	-0.0195	93.6
-0.0015	0.0007	0.0067	-0.0008	93.6
-0.0008	0.003	0.0067	0.0315	93.6
-0.0023	-0.0068	0.0045	0.0637	93.6
-0.0046	-0.015	0.0045	0.0877	93.6
-0.0008	-0.0135	0.0052	0.0907	93.5
0.0045	-0.0113	0.0067	0.072	93.5
0.0067	-0.0218	0.0045	0.0217	93.5
0.0022	-0.0135	-0.0008	-0.0181	93.4
-0.0015	0.0082	0.0007	-0.0143	93.4
-0.0023	0.006	-0.0023	-0.015	93.3
-0.0023	0.0052	-0.0008	0.0007	93.3
0.0015	-0.0053	0.0015	-0.0098	93.3
0.0037	-0.0173	0.0015	-0.0173	93.2
0.003	-0.003	0.003	-0.0195	93.2
0.0015	0.0045	0.0007	-0.0143	93.1
-0.0008	0.0045	-0.0008	-0.0053	93.1
-0.0038	0.0007	0	-0.0233	93.1
-0.003	0	-0.0023	-0.0181	93.1
0.0007	0.009	-0.0008	-0.0173	93
0	0.0052	-0.0008	-0.0181	93
-0.0053	-0.0046	0.0007	-0.0023	92.9
-0.0233	-0.0165	0.0007	0.0142	92.9
-0.0458	-0.0203	-0.0023	0.0097	92.8
-0.027	-0.0203	-0.0008	-0.0008	92.8
0.0127	-0.0293	-0.0008	-0.012	92.7
0.0367	-0.0105	-0.0023	-0.0218	92.7
0.0607	0.0067	-0.0015	-0.0278	92.7
0.0555	-0.0023	-0.0008	-0.0263	92.7
0.0322	-0.0046	-0.003	-0.0263	92.6
0.009	0.0045	-0.0023	-0.0225	92.6
-0.0068	0.0165	0.0015	0.0015	92.5
-0.0075	0.0165	0.003	0.0262	92.5
-0.0098	0.0127	0.0075	0.033	92.4
-0.0083	0.0127	0.009	0.024	92.4
-0.0113	0.018	0.0082	0.0135	92.3
-0.0158	0.024	0.0067	0.0045	92.3
-0.0233	0.003	0.0045	0.0217	92.2
-0.0346	-0.003	0.0045	0.0465	92.2
-0.0346	-0.0038	0.0015	0.042	92.2
-0.027	-0.0248	-0.0008	0.018	92.1
-0.0188	-0.0338	-0.0038	0.0052	92.1
-0.015	-0.0361	-0.0046	-0.003	92
-0.0083	-0.0195	-0.0023	-0.0383	92
0	0.0022	-0.003	-0.0503	91.9
0.0015	0.0165	-0.006	-0.0511	91.8
0.0037	0.027	-0.0091	-0.042	91.8
0.0045	0.0262	-0.0105	-0.0091	91.8
0.0067	0.012	-0.0075	0.0427	91.7
0.0075	0.0007	-0.0046	0.0825	91.7
0.0082	-0.0015	0.0015	0.0637	91.6
0.0067	-0.0195	0.0045	0.015	91.6
0.003	-0.0293	0.003	-0.0285	91.5
0.0007	-0.0278	0.0015	-0.0533	91.5
-0.0015	-0.0165	-0.0008	-0.0495	91.4
-0.0023	0.0052	-0.0008	-0.0293	91.3
0.0007	0.0105	0	-0.0105	91.3
0.003	0.0045	0.0007	0.0142	91.3
0.003	0.003	-0.0008	0.0465	91.3
0.006	0.0157	0.0015	0.0592	91.2
0.012	0.0202	0.0052	0.0555	91.1
0.0105	0.0127	0.0052	0.03	91.1
0.0067	0.0007	0.0045	0.0075	91
0.0015	-0.006	0.0015	0.0195	91
-0.003	-0.0165	-0.0008	0.0277	90.9
-0.0038	-0.033	0	0.024	90.9
-0.0023	-0.0323	0.0007	0.0255	90.8
-0.0023	-0.027	-0.0008	0.0195	90.8
-0.0053	-0.0195	-0.0015	0.009	90.8
-0.006	-0.0143	-0.003	-0.0143	90.7
-0.0083	-0.0105	-0.0038	-0.0308	90.6
-0.0053	-0.0046	0.0007	-0.024	90.6
-0.0008	0.0007	0.003	-0.0225	90.5
0.0015	0.0067	0.0037	-0.0091	90.5
0.0052	0.012	0.0052	-0.0083	90.4
0.0045	0.0142	0.0052	-0.0083	90.4
0.0037	0.0112	0.0015	-0.0046	90.4
0.0007	0.0052	0	-0.0188	90.3
-0.0023	0	-0.0008	-0.027	90.3
-0.0008	-0.0038	-0.0015	-0.0158	90.2
-0.0008	0.0015	-0.0023	-0.0233	90.1
-0.0023	0.0135	0.0007	-0.0293	90.1
0.0007	0.033	0.0045	-0.0068	90
0.0045	0.0412	0.0015	-0.0053	90
0.0045	0.036	0.003	-0.0098	90
0.0015	0.024	0.003	-0.0008	89.9
-0.0008	0.009	0.0007	0.0052	89.9
-0.003	-0.0068	0.0037	-0.0053	89.8
-0.0053	-0.0203	0.003	-0.0225	89.8
-0.0083	-0.0128	0.0037	-0.0165	89.7
-0.0075	-0.0068	0.0052	0.0127	89.6
-0.003	-0.0046	0.0067	0.0367	89.6
-0.0008	0	0.0067	0.0382	89.5
-0.003	-0.0023	0.0052	0.048	89.5
-0.0046	-0.0203	0.0022	0.0367	89.5
-0.0023	-0.0293	0.0022	0.0352	89.4
-0.0023	-0.0218	0.0045	0.0472	89.4
-0.0046	-0.0218	-0.0008	0.0217	89.3
-0.0068	-0.0173	-0.0053	0.0097	89.3
-0.0075	-0.0263	-0.0068	-0.0083	89.2
-0.0075	-0.0285	-0.0008	-0.0158	89.2
-0.0046	-0.0181	0.0007	-0.0181	89.1
-0.0008	-0.0098	0.0007	-0.0308	89.1
0.0007	0.0045	0.0015	-0.0308	89.1
0.003	0.0165	-0.0008	-0.0518	89
0.0052	0.0262	0.0015	-0.0608	89
0.0082	0.0307	0.0007	-0.078	88.9
0.009	0.0292	-0.0015	-0.0743	88.9
0.0045	0.021	-0.0053	-0.0353	88.8
0.0015	0.0202	-0.0083	0.0195	88.8
0	0.0195	-0.0053	0.078	88.7
0.0007	0.0022	-0.0046	0.1095	88.7
0.0007	-0.0075	-0.0008	0.1057	88.6
0	-0.0105	0.0007	0.0705	88.6
0.0007	-0.0158	0.0015	0.033	88.6
0.0022	-0.0248	0.0045	0.018	88.5
0.0007	-0.0346	0.0007	0.0217	88.5
-0.003	-0.033	-0.0015	0.0277	88.4
-0.0046	-0.0256	-0.0023	0.0165	88.4
-0.003	-0.0165	0.0007	-0.0181	88.3
-0.0015	-0.006	0.0007	-0.021	88.3
-0.0015	-0.0008	0.0007	-0.0113	88.3
-0.0015	-0.0046	0.0015	-0.0181	88.2
-0.0008	-0.0113	0.0015	-0.0285	88.2
0	-0.0046	0.0052	-0.0525	88.2
0.003	0.0195	0.0052	-0.0563	88.1
0.0052	0.0405	0.0052	-0.0383	88.1
0.0067	0.0487	0.006	-0.0285	88
0.0067	0.039	0.0045	-0.0128	88
0.0052	0.0217	0.003	0.0112	87.9
0.0007	0.0007	0.0015	0.0352	87.9
-0.0038	-0.0278	0.0007	0.0367	87.9
-0.006	-0.0383	-0.0015	0.0315	87.8
-0.0091	-0.0308	-0.003	0.0352	87.8
-0.0083	-0.0218	-0.003	0.0015	87.7
-0.0091	-0.012	-0.003	-0.0158	87.7
-0.0083	-0.0165	-0.0053	-0.0128	87.7
-0.0091	-0.024	-0.006	-0.0278	87.6
-0.0105	-0.0173	-0.0038	-0.0158	87.6
-0.0075	-0.012	-0.0015	-0.0023	87.6
-0.0038	-0.0046	0.0015	0.0112	87.5
-0.0008	0.0052	0.003	0.0217	87.5
0.0007	0.0195	0.0067	0.006	87.4
0.0022	0.0307	0.0082	0.0097	87.4
0.003	0.0105	0.0082	0.0142	87.4
0.0045	0.0075	0.0052	-0.0083	87.3
0.0015	0.0225	0.0015	-0.0293	87.3
0.0007	0.0255	0.0007	-0.0428	87.3
0.0045	0.03	-0.0015	-0.0511	87.3
0.0045	0.0127	-0.0015	-0.0413	87.2
0.003	0.0037	-0.0038	-0.0158	87.2
0.0007	-0.006	0.0007	0.0247	87.1
0.0015	-0.0346	0.0045	0.0667	87.1
0.003	-0.0525	0.0045	0.066	87.1
0.003	-0.0405	0.0045	0.0645	87
0.0015	-0.015	0.0015	0.069	86.9
0	-0.0083	0.0007	0.039	86.9
-0.0023	-0.0075	-0.0008	-0.0068	86.9
-0.0015	-0.003	-0.0008	-0.0278	86.9
0.0007	0.0067	-0.0015	-0.0158	86.8
0.0015	0.003	-0.0015	-0.0068	86.8
0.0007	-0.0015	-0.0023	0.012	86.8
-0.0008	-0.0053	-0.0008	0.0127	86.8
-0.0008	-0.0188	0.0007	0	86.8
-0.0015	-0.0195	0.0007	-0.0105	86.7
-0.003	-0.0015	0.0015	-0.0263	86.7
-0.003	0.0157	0.003	-0.0218	86.7
-0.003	0.0195	0.0007	-0.0053	86.6
-0.0038	0.0247	0.0045	0.0052	86.6
-0.003	0.012	0.0045	0.0052	86.6
-0.0023	-0.0075	0.0007	0.0105	86.5
-0.0023	-0.0263	0.0007	0.0195	86.5
-0.0015	-0.0368	0.0007	0.0142	86.5
-0.0008	-0.0218	0.0007	-0.0008	86.4
-0.003	-0.0173	-0.0008	-0.012	86.4
-0.0068	-0.024	-0.0008	-0.0218	86.3
-0.0083	-0.0195	-0.0008	-0.027	86.3
-0.0068	-0.0046	0.0015	-0.0308	86.3
-0.0023	0.0075	0.0045	-0.0458	86.3
0	0.0202	0.0045	-0.0353	86.3
0.0015	0.0285	0.0052	-0.0128	86.3
0.0045	0.0307	0.0067	0.0067	86.2
0.0045	0.0285	0.006	0.0262	86.2
0.0015	0.0105	0.0015	0.0352	86.2
-0.003	-0.0105	-0.0008	0.0345	86.1
-0.0046	-0.0188	-0.0015	0.0075	86.1
-0.0046	-0.015	-0.0046	0.0067	86.1
-0.0038	-0.0068	-0.0053	0.0232	86
-0.003	-0.0053	-0.0046	0.0165	86
-0.003	-0.0046	-0.0053	0.0007	86
-0.0038	-0.003	-0.0046	0.009	85.9
-0.0015	-0.0008	-0.0015	0.018	85.9
0.0007	-0.0046	-0.0008	0.012	85.9
-0.0008	-0.0173	-0.0008	0.0187	85.9
-0.0008	-0.0165	0.0007	0.0187	85.9
0.0022	-0.0023	0.003	0.0225	85.8
0.0052	0.0082	0.0022	0.0195	85.8
0.0015	0.012	-0.0008	-0.0083	85.8
-0.0015	0.0067	-0.0008	-0.024	85.7
0.0007	0.0037	-0.0015	-0.0135	85.7
0.0022	-0.0008	-0.0008	-0.0046	85.6
0.0052	-0.0015	0.0045	-0.003	85.6
0.003	0.0112	0.0045	-0.0015	85.6
0.0015	0.009	0.003	-0.0128	85.5
-0.0008	0.0105	-0.0008	-0.012	85.5
-0.0023	0.0127	-0.0008	-0.0105	85.5
-0.0015	0.0045	-0.0008	-0.0128	85.5
-0.0038	-0.003	-0.0023	-0.0128	85.5
-0.0015	-0.0083	0.0015	-0.0113	85.4
0.0022	-0.0023	0.0067	-0.0083	85.4
0.0045	-0.0075	0.0105	-0.006	85.3
0.0045	-0.012	0.0127	-0.0015	85.3
0.0037	-0.012	0.0105	-0.0083	85.3
0.0037	-0.0098	0.0097	-0.012	85.2
0.003	-0.0008	0.0075	-0.0098	85.2
0.0022	0.0052	0.0045	-0.0158	85.1
0.0037	0.0135	0.0037	-0.0113	85.1
0.0045	0.0202	0	-0.006	85.1
0.0015	0.0255	-0.003	-0.0015	85.1
0.0022	0.0292	0	0.012	85.1
0.003	0.0172	0.0015	0.0255	85
0.003	-0.0008	0.003	0.0352	85
0.0015	-0.0105	0.0045	0.0352	85
-0.003	-0.0181	0.003	0.0262	85
-0.006	-0.0248	-0.0008	0.0292	85
-0.0091	-0.0368	-0.0023	0.0195	84.9
-0.0105	-0.039	-0.0008	0.015	84.9
-0.0075	-0.0293	0.0007	0.024	84.9
-0.0046	-0.0218	0.0015	0.0112	84.8
-0.0053	-0.0128	0.0007	0	84.8
-0.0068	-0.0135	-0.0015	-0.0083	84.8
-0.006	-0.0128	-0.0038	-0.0113	84.7
-0.0046	-0.006	-0.003	-0.0128	84.7
-0.003	0.0007	0	-0.0158	84.7
-0.0008	0.0052	0.0007	-0.0195	84.7
0	0.006	0	-0.0068	84.6
0	0.0075	0.0015	0.0052	84.6
0.0007	0.0082	0.0015	-0.003	84.6
0.0015	0.009	0.0015	-0.0038	84.6
0.0015	0.0112	0.0022	-0.0105	84.5
0.003	0.012	0.0015	-0.039	84.5
0.0015	0.0105	0.0045	-0.0578	84.5
-0.0008	0.018	0.0037	-0.0368	84.4
-0.0008	0.0127	0.0007	-0.0165	84.4
-0.0015	-0.003	-0.0015	-0.0008	84.4
0	-0.0113	-0.0015	0.018	84.3
0.003	-0.0181	0.0015	0.0465	84.3
0.0037	-0.0195	0.0045	0.0817	84.3
0.0052	-0.0158	0.0067	0.0652	84.2
0.0022	-0.0075	0.0052	0.0247	84.2
-0.003	-0.0053	0	0.0075	84.1
-0.0068	-0.0105	-0.0038	0.0157	84.1
-0.0105	-0.0105	-0.0053	0.0142	84.1
-0.0083	-0.0008	-0.003	0.0202	84.1
-0.003	0.0037	-0.0008	0.0217	84.1
-0.0046	0.0022	-0.0008	0.0067	84
-0.003	0.0082	0.0015	-0.0128	84
0.0007	0.0172	0.003	-0.0135	83.9
0.0007	0.0322	0.0037	0.003	83.9
0.0022	0.0307	0.0052	0.0045	83.9
0.003	0.012	0.006	0.0097	83.8
0.0015	0.0022	0.0067	0.0217	83.8
