File Name: 8Nsen.log
Channel 1: 'RF', 24161 values, engineering units: mV, no filters.
Channel 2: 'BF', 24161 values, engineering units: mV, no filters.
Channel 3: 'VM', 24161 values, engineering units: mV, no filters.
Channel 4: 'ST', 24161 values, engineering units: mV, no filters.
Channel 5: 'FX', 1208 values, engineering units: deg, no filters, extrapolated from 50 to 1000 samples per second.

-0.0015	-0.0038	0.0007	0.0015	60.1
0	-0.0015	0	0.0015	60.1
0.0015	0.0022	-0.0008	-0.0105	60.1
0.0015	0.003	0.0007	-0.0165	60.1
0.0015	0.0052	0.0007	-0.012	60.2
0.0007	0.0075	0.0007	-0.0128	60.2
0.0022	0.0052	0.0022	-0.006	60.2
0.0007	0.0045	0.003	0.0075	60.2
0	0.003	0.0045	0.0052	60.2
0.003	0.003	0.0045	0.0037	60.2
0.0007	0.003	0.0037	0.009	60.2
0.0007	-0.0008	0.006	0.015	60.2
-0.0008	-0.0068	0.0052	0.015	60.2
-0.0015	-0.0105	0.0067	0.0142	60.2
0.0007	-0.0143	0.0052	0.0105	60.2
0	-0.0143	0.0052	0.0007	60.2
0.0007	-0.012	0.0045	-0.006	60.2
-0.0015	-0.0128	0.0045	-0.0143	60.3
-0.003	-0.0105	0.0045	-0.0143	60.3
-0.0046	-0.0105	0.003	-0.0083	60.3
-0.0053	-0.0091	0.0015	-0.0068	60.3
-0.003	-0.0053	0.0015	-0.0046	60.3
-0.0015	-0.0046	0.0022	-0.0083	60.3
-0.003	-0.0038	0	-0.0091	60.3
-0.0015	-0.003	0.0007	-0.0023	60.3
-0.0008	-0.0023	0.0022	-0.0015	60.3
-0.0015	0	0.0037	-0.0053	60.3
-0.0015	0.0007	0.0045	-0.0091	60.3
-0.0046	-0.0008	0.0022	-0.0113	60.3
-0.0053	-0.0008	0.0037	-0.0091	60.3
-0.003	0.003	0.0045	-0.0083	60.3
-0.0008	0.0045	0.0037	-0.0091	60.3
-0.0008	0.0052	0.0022	-0.0105	60.3
-0.0008	0.0045	0.0007	-0.012	60.3
0.0007	0	0.0007	-0.0105	60.3
0.0007	-0.0015	-0.0008	-0.0091	60.3
0.0015	-0.0008	-0.0008	-0.0091	60.3
0.003	0.0007	-0.0008	-0.0105	60.3
0.0015	-0.0015	-0.0015	-0.0128	60.3
0.0007	-0.0008	-0.003	-0.0158	60.3
-0.0008	0.0015	-0.0053	-0.0158	60.3
-0.0008	0.003	-0.003	-0.0158	60.3
0.0007	0.0045	-0.003	-0.0143	60.3
-0.0015	0.003	-0.003	-0.0143	60.3
-0.003	0.0022	-0.0015	-0.0165	60.3
-0.003	0.0022	-0.0015	-0.0248	60.3
-0.0015	0.003	0.0022	-0.0278	60.3
0.0007	0.0045	0.0007	-0.0233	60.3
0.0007	0.003	-0.0015	-0.0135	60.3
-0.0008	0.0015	-0.0015	-0.003	60.3
-0.0015	-0.0008	-0.0015	-0.0046	60.3
-0.0008	-0.0015	0	-0.0105	60.3
-0.0015	-0.0008	-0.0015	-0.0105	60.3
-0.003	-0.0015	-0.0015	-0.0023	60.3
-0.003	-0.0038	-0.0008	0.0052	60.3
-0.0023	-0.0015	-0.0008	0.0052	60.4
-0.0015	-0.0046	0.0015	0.0015	60.4
-0.003	-0.0075	0.003	0.006	60.4
-0.0023	-0.0091	0.0045	0.009	60.4
-0.0015	-0.012	0.003	0.009	60.4
-0.0008	-0.0113	0.0015	0.0105	60.4
0	-0.012	0.003	0.0142	60.4
-0.0008	-0.0105	0.0022	0.0202	60.4
-0.0015	-0.0113	0.0015	0.0247	60.4
-0.0023	-0.012	0	0.0307	60.4
-0.0046	-0.0091	-0.0038	0.033	60.4
-0.0046	-0.0105	-0.0046	0.03	60.4
-0.0015	-0.0083	-0.0015	0.0277	60.4
0.0007	-0.0046	-0.0008	0.0292	60.4
0.0015	-0.003	0.0007	0.033	60.4
0.0015	-0.0015	0.003	0.0322	60.4
0.003	-0.0008	0.0037	0.0352	60.4
0.003	-0.0008	0.0045	0.0345	60.4
0.003	-0.0015	0.003	0.0277	60.4
0.0045	-0.0015	0.0015	0.0247	60.4
0.0045	-0.0015	0.0022	0.0232	60.5
0.003	-0.0015	0.003	0.0195	60.5
0.0015	-0.0008	0.0015	0.0225	60.5
0.0015	0.0007	0.0007	0.0255	60.5
0.003	0.0007	0.0007	0.0217	60.5
0.0037	0.0015	0.0015	0.0217	60.5
0.0015	0.003	0.0007	0.0232	60.5
0	0.0015	-0.0015	0.0255	60.5
-0.0015	0.0015	-0.0023	0.0292	60.5
-0.0038	0.0007	-0.0015	0.0382	60.5
-0.003	0.0007	-0.0008	0.0442	60.5
-0.0046	0.0007	0.0015	0.045	60.5
-0.0046	0	0.003	0.0457	60.5
-0.0046	-0.0008	0.0037	0.0405	60.5
-0.0046	-0.0015	0.0052	0.039	60.5
-0.0015	-0.0008	0.006	0.0352	60.5
-0.0023	-0.0008	0.006	0.0367	60.5
0.0007	0.0015	0.0052	0.042	60.5
0.0015	0.003	0.0045	0.0435	60.5
0.0015	0.0022	0.003	0.0457	60.5
0	0.0015	0.003	0.045	60.5
-0.0008	-0.0008	0.0007	0.0375	60.5
-0.0008	-0.0046	0	0.0285	60.5
-0.003	-0.006	0.0015	0.0157	60.5
-0.0015	-0.0053	0	0.0007	60.5
-0.003	-0.0046	-0.0015	-0.003	60.5
-0.0053	-0.0023	0.0015	-0.003	60.5
-0.003	-0.0015	0.0067	-0.006	60.5
-0.0015	-0.0008	0.0045	-0.0113	60.5
0.0007	0.0007	0.0015	-0.0165	60.5
0.0007	0	0.0007	-0.0203	60.5
0.0007	-0.0015	0.0007	-0.0233	60.5
0.0007	-0.003	0.0022	-0.0233	60.5
-0.0008	-0.0053	-0.0008	-0.0278	60.5
0	-0.006	-0.0015	-0.0293	60.5
-0.0008	-0.0068	-0.0023	-0.0293	60.6
-0.0023	-0.0053	-0.003	-0.03	60.6
0	-0.0053	-0.0023	-0.0315	60.6
-0.0008	-0.006	-0.0023	-0.0346	60.6
-0.0015	-0.0053	-0.0015	-0.033	60.6
0	-0.0046	-0.0008	-0.033	60.6
0	-0.0046	0.0007	-0.0323	60.6
0.0007	-0.0015	0.0007	-0.0293	60.6
0.0007	-0.0008	0.0015	-0.0233	60.6
0.0007	-0.0015	0.0007	-0.0203	60.6
0.0015	-0.0008	0.0007	-0.0225	60.6
-0.0008	-0.0008	0.0015	-0.024	60.6
0.0015	-0.0015	0.0015	-0.0263	60.6
0.0007	-0.0008	0.0015	-0.0293	60.6
-0.0015	0.0007	0.0015	-0.0293	60.6
0.0007	0.0015	0.0037	-0.0263	60.6
0.0007	0.0037	0.003	-0.0233	60.6
-0.0008	0.0052	0.0022	-0.0188	60.6
-0.0008	0.0067	0.0007	-0.0105	60.6
-0.0015	0.0067	-0.0015	-0.0068	60.6
-0.003	0.0067	0.0007	-0.0023	60.6
-0.003	0.0052	0.0007	0	60.6
-0.0015	0.0037	0.003	-0.0068	60.6
-0.0008	0.006	0.003	-0.0173	60.6
-0.0008	0.006	0.0015	-0.0256	60.6
-0.0023	0.003	0.003	-0.027	60.7
-0.0008	0.0015	0.0015	-0.0233	60.7
-0.0015	-0.0008	0.0007	-0.0195	60.7
-0.0015	-0.0046	-0.003	-0.015	60.7
-0.003	-0.0046	-0.0053	-0.0098	60.7
-0.0023	-0.0038	-0.003	-0.0008	60.7
-0.0008	-0.0038	-0.0008	0.0045	60.7
0.0007	-0.0046	0	0.0067	60.7
0.0007	-0.0075	-0.0008	0.0082	60.7
-0.0008	-0.0098	0	0.0067	60.7
-0.0008	-0.0091	0.003	0.0082	60.7
-0.0023	-0.0083	0.0015	0.0112	60.7
-0.0023	-0.0068	0.0015	0.0135	60.7
-0.0008	-0.0068	0.0007	0.0105	60.7
-0.0023	-0.0075	-0.0015	0.009	60.7
-0.0015	-0.0083	-0.0008	0.0105	60.7
-0.0008	-0.0105	-0.0008	0.012	60.7
-0.0008	-0.0083	0	0.012	60.7
0	-0.0068	0	0.0127	60.7
0.0015	-0.006	0.0007	0.0142	60.7
0.003	-0.0053	0.003	0.012	60.7
0.0015	-0.003	0.0045	0.0142	60.7
0.0007	0.0007	0.003	0.0165	60.7
0	0.003	0.0045	0.015	60.7
0	0.0037	0.0045	0.0127	60.7
-0.0008	0.0045	0.0007	0.009	60.7
-0.0008	0.0045	0	0.0052	60.7
-0.0008	0.0037	-0.0046	0.0045	60.7
-0.0015	0.0052	-0.003	-0.0023	60.7
-0.0015	0.0045	-0.0015	-0.0068	60.7
-0.0008	0.003	0	0.0007	60.7
0	0.0007	0.0015	0.0082	60.7
-0.0008	-0.0046	-0.0008	0.009	60.7
-0.003	-0.0083	0.0007	0.0037	60.7
-0.0015	-0.0091	0.0015	-0.0008	60.7
-0.0023	-0.0113	0.0022	0.0007	60.8
-0.0053	-0.0113	0.0037	0.0045	60.8
-0.0046	-0.0105	0.0022	0.0112	60.8
-0.0038	-0.0091	0.0007	0.0097	60.8
-0.0038	-0.0083	0.0022	0.0082	60.8
-0.0046	-0.0091	0.0037	0.0037	60.8
-0.003	-0.0075	0.0045	-0.0046	60.8
-0.0015	-0.0068	0.0015	-0.0068	60.8
-0.0015	-0.006	0	-0.0143	60.8
-0.0015	-0.006	0.0015	-0.0135	60.8
0.0007	-0.0038	0.0015	-0.0098	60.8
0.0007	-0.0015	0.003	-0.0105	60.8
0.003	0.0007	0.0022	-0.0143	60.8
0.0022	0.0052	0.0022	-0.0195	60.8
-0.0008	0.0075	0	-0.0233	60.8
-0.0015	0.0052	-0.003	-0.0181	60.8
-0.0053	0.0015	-0.0015	-0.0075	60.8
-0.0053	0.0007	-0.0008	-0.0008	60.8
-0.003	0	-0.0008	0.0052	60.8
-0.0015	-0.0008	-0.0008	0.0082	60.8
0.0007	-0.0015	-0.003	0.0082	60.8
0.0007	-0.003	-0.0023	0.006	60.8
0.0007	-0.0046	-0.003	0.0015	60.8
0.0007	-0.0053	-0.0023	0.0007	60.8
0.0007	-0.0068	-0.0008	0.0022	60.8
0	-0.006	0.0007	0.0037	60.8
-0.0015	-0.0046	0.0007	0.0052	60.8
0.0007	-0.006	0	0.009	60.8
-0.0015	-0.0046	-0.0008	0.009	60.8
-0.0023	-0.003	0	0.0112	60.8
-0.0023	-0.0015	0.0007	0.0112	60.8
-0.003	-0.0015	0.0015	0.009	60.8
-0.0015	-0.0015	0.0015	0.0082	60.8
-0.0008	-0.0023	0.0022	0.0045	60.8
-0.0008	-0.0023	0.003	0.0022	60.8
-0.0008	-0.003	0.003	0.003	60.8
0	-0.003	0.0007	0.0015	60.8
0.0007	-0.0038	0.0007	0.003	60.8
0.0022	-0.0053	0.0007	0.0045	60.8
0.0015	-0.0053	0.0007	0.0015	60.8
0.003	-0.0046	0	-0.0053	60.9
0.003	-0.003	-0.0015	-0.0083	60.9
0.0015	-0.003	0.0015	-0.0068	60.9
0.0015	-0.0015	0.0007	-0.0038	60.9
0	-0.0015	-0.0008	0.003	60.9
0	0.0007	-0.0008	0.0075	60.9
-0.0008	0.0007	0.0007	0.0067	60.9
-0.0046	0.0007	0.0015	0.006	60.9
-0.0046	0.0015	0.0022	0.0097	60.9
-0.006	0.003	0.003	0.0105	60.9
-0.0053	0.003	0.003	0.009	60.9
-0.0053	0.003	0.003	0.0067	60.9
-0.0075	0.0015	0.003	0.003	60.9
-0.0046	0.0015	0.0052	0.0015	60.9
-0.0046	0.0007	0.0067	0.003	60.9
-0.0046	-0.0023	0.0052	0.0037	60.9
-0.0015	-0.0008	0.003	0.0052	60.9
-0.0008	-0.0008	0.0045	0.0067	60.9
0.0007	-0.0008	0.0052	0.0067	60.9
0.003	0.0015	0.0037	0.0045	60.9
0.0037	0.0015	0.0045	0.0067	60.9
0.003	0.0015	0.0037	0.0105	60.9
0.0007	0.0022	0.0015	0.0127	60.9
0.0007	0.003	0.0007	0.0127	60.9
-0.0008	0.0022	0.0007	0.009	60.9
-0.0023	0.0037	0.003	0.0067	60.9
-0.0008	0.0067	0.003	0.0037	60.9
0.0007	0.006	0.0015	0.0007	60.9
0	0.003	-0.0015	0.0007	60.9
-0.0008	0.003	-0.0023	-0.0008	60.9
0.0015	0.003	-0.0046	0.0007	60.9
0.0015	0.003	-0.0053	-0.0008	60.9
0.0007	0.003	-0.0053	-0.0015	60.9
0.0007	-0.0008	-0.0075	-0.0008	60.9
-0.0008	0.0007	-0.0075	-0.0068	60.9
-0.0008	0.0007	-0.0083	-0.0203	61
-0.0008	0.0007	-0.0083	-0.0188	61
-0.0008	-0.0008	-0.0053	-0.0105	61
0	-0.003	-0.0015	-0.0083	61
-0.0008	-0.0068	-0.003	-0.0068	61
0.0007	-0.0075	0.0007	-0.003	61
-0.0008	-0.0075	0.0015	-0.0008	61
-0.0008	-0.0105	-0.0008	-0.0015	61
-0.0015	-0.0113	0	0.0015	61
-0.0053	-0.012	-0.0008	0.0007	61
-0.006	-0.0105	0	0.0007	61
-0.0046	-0.0083	0	0	61
-0.003	-0.0083	0.003	-0.0046	61
-0.003	-0.0075	0.0052	-0.0083	61
-0.0015	-0.0053	0.0067	-0.0105	61
-0.0015	-0.003	0.0082	-0.0128	61
-0.0015	-0.0053	0.0075	-0.0105	61
-0.003	-0.0068	0.0082	-0.0053	61
-0.0023	-0.0038	0.0082	-0.003	61
0	-0.0008	0.0082	0.0007	61
0	0.0007	0.006	0.0052	61
0	0.0015	0.0045	0.0082	61
-0.0015	0.0015	0.0067	0.0112	61
-0.0015	0.0007	0.0052	0.0105	61
0.0015	0	0.0007	0.0112	61
0	0.0015	-0.0015	0.0067	61.1
-0.0008	0.0015	-0.003	0.0015	61.1
0.0007	0	-0.0038	0.0007	61.1
0.0015	0.0007	-0.0046	0.0022	61.1
0.003	0.0007	-0.0023	0.0067	61.1
0.003	0.0015	-0.0023	0.0082	61.1
0.0007	0.0022	-0.0023	0.012	61.1
-0.0008	0.0022	-0.003	0.0127	61.1
-0.0015	0.0045	-0.0038	0.0112	61.1
-0.003	0.0045	-0.0008	0.0157	61.1
-0.003	0.0015	-0.003	0.0157	61.1
-0.0008	-0.0015	-0.003	0.0105	61.1
-0.0008	-0.0046	-0.0008	0.0067	61.1
0.0007	-0.0068	0	0.003	61.1
0	-0.0098	0.0007	-0.0053	61.1
-0.0008	-0.0113	0.003	-0.0158	61.1
0.0022	-0.0143	0.003	-0.021	61.1
0.0015	-0.0135	0.003	-0.0195	61.1
0.0022	-0.012	0.0037	-0.0105	61.1
0.0015	-0.0128	0.0015	-0.0083	61.1
0.0015	-0.0128	0	-0.0113	61.1
0.0015	-0.0098	0.0015	-0.0105	61.1
0.0022	-0.0105	0.0022	-0.0091	61.1
0.0045	-0.0068	0.0022	-0.0113	61.1
0.0045	-0.0038	0.0037	-0.012	61.1
0.0045	-0.0015	0.0015	-0.0091	61.1
0.0045	-0.0008	0.0015	-0.0083	61.1
0.003	-0.0008	0.0022	-0.0098	61.1
0.0007	-0.0008	0	-0.0165	61.1
-0.0015	-0.0015	-0.0015	-0.0188	61.1
-0.0015	-0.003	-0.0015	-0.015	61.1
0.0015	-0.003	0.0007	-0.0165	61.1
0.003	-0.0038	0.0015	-0.0181	61.1
0	-0.0053	0.0007	-0.0165	61.1
0.0015	-0.0053	0.0007	-0.0158	61.1
0.0007	-0.0046	0.0015	-0.0143	61.1
-0.0023	-0.0023	0.0022	-0.0113	61.1
-0.0008	0	0.0007	-0.012	61.1
-0.0015	0.0015	0	-0.0158	61.1
-0.0008	0.0037	-0.0008	-0.0143	61.1
-0.0008	0.0037	-0.0023	-0.0083	61.1
-0.003	0.0015	-0.0023	-0.0015	61.1
-0.003	-0.0008	-0.0023	0.0075	61.1
-0.0038	-0.003	-0.0008	0.0127	61.1
-0.0046	-0.0046	0.0007	0.0172	61.1
-0.0046	-0.0046	0.0045	0.0187	61.1
-0.0038	-0.0046	0.0037	0.0157	61.1
-0.0023	-0.0053	0.0045	0.015	61.1
-0.0023	-0.0053	0.0045	0.0165	61.1
-0.003	-0.0053	0.003	0.0195	61.1
-0.0023	-0.006	0.0052	0.0232	61.1
-0.0023	-0.0053	0.0045	0.0262	61.1
-0.003	-0.0046	0.0045	0.0255	61.1
-0.003	-0.0046	0.003	0.018	61.1
-0.0046	-0.0046	0.0007	0.0097	61.1
-0.0053	-0.0038	0.0015	0.009	61.1
-0.006	-0.0023	0.003	0.0082	61.1
-0.0053	-0.003	0.0015	0.0052	61.1
-0.0046	-0.0038	0.0007	0.0037	61.1
-0.0015	-0.003	0	0.0082	61.1
-0.0015	-0.0008	0	0.0165	61.1
-0.0015	-0.0008	-0.0008	0.0187	61.1
0	-0.003	-0.0008	0.0232	61.1
0.0007	-0.0015	0.003	0.0195	61.1
-0.0008	-0.0008	0.003	0.0112	61.1
0.0007	0.0007	0.003	0.0082	61.1
0.0015	0.0037	0.003	0.009	61.1
0.0015	0.0045	0.0015	0.0052	61.1
0.0015	0.0052	0.003	0.003	61.1
0.0007	0.0045	0.0045	0.0097	61.1
0.0007	0.003	0.003	0.0112	61.1
0.0022	0.0037	0.0015	0.012	61.1
0.0007	0.0052	0.0015	0.0127	61.1
0	0.0052	0.003	0.0082	61.1
-0.0008	0.0045	0.0045	0.006	61.1
-0.0008	0.0015	0.0052	0.0067	61.1
0.0007	0.0007	0.0045	0.0097	61.1
-0.0008	0.0007	0.0045	0.0082	61.1
-0.0015	0	0.0045	0.0067	61.1
-0.0015	0.0007	0.003	0.0105	61.1
-0.0015	0.0007	0.003	0.006	61.1
-0.003	-0.003	0.0022	0.0007	61.1
-0.0023	-0.003	0.0022	-0.0053	61.1
-0.0008	-0.0023	0.0037	-0.0135	61.1
-0.0015	-0.0023	0.0022	-0.0165	61.1
0	-0.0015	0.0015	-0.015	61.1
-0.0015	-0.0023	0.0015	-0.012	61.1
-0.003	-0.003	0.003	-0.006	61.1
-0.0008	-0.0038	0.003	-0.0008	61.1
-0.0015	-0.0038	0.003	-0.0015	61.1
-0.0008	-0.0046	0.003	0.0007	61.1
-0.0015	-0.0053	0	0	61.1
-0.0015	-0.0053	-0.0008	-0.0015	61.1
-0.0015	-0.0068	-0.0046	-0.0083	61.1
-0.0008	-0.0053	-0.0053	-0.0195	61.1
-0.0015	-0.0053	-0.0046	-0.0263	61.1
-0.0015	-0.0038	-0.0046	-0.033	61.1
-0.003	-0.0038	-0.0046	-0.0346	61.1
-0.0053	-0.0038	-0.003	-0.0323	61.1
-0.0038	-0.0068	-0.0015	-0.03	61.1
-0.003	-0.0083	-0.003	-0.0256	61.1
-0.003	-0.006	-0.0023	-0.024	61.1
-0.0008	-0.0083	-0.0015	-0.0158	61.1
-0.0008	-0.0083	-0.0015	-0.003	61.1
0.0015	-0.0068	-0.0023	0.0052	61.1
0.0015	-0.006	-0.0038	0.012	61.1
0.0007	-0.0038	-0.003	0.018	61.1
0.0007	-0.0046	-0.0015	0.0202	61.1
-0.0008	-0.0008	-0.0008	0.018	61.1
0.0007	0.0045	-0.0008	0.015	61.1
0.0007	0.0052	-0.0015	0.0105	61.1
-0.0015	0.0067	-0.0015	0.0067	61.1
-0.0008	0.0082	-0.0015	0.0045	61.1
-0.0015	0.009	0.0007	-0.003	61.1
-0.0008	0.009	-0.0008	-0.006	61.1
0.0015	0.0082	0.0015	-0.0068	61.1
-0.0008	0.0067	0.0045	-0.0008	61.1
0.0007	0.0052	0.0022	0.0052	61.1
0.0007	0.0045	0.0022	0.009	61.1
-0.0008	0.0015	0	0.0082	61.1
-0.0015	-0.0008	0.0015	0.0052	61.1
-0.0015	-0.0008	0.0022	0.003	61.1
-0.0008	-0.0015	0	0.0007	61.1
-0.0008	-0.0046	0	0.0007	61.1
-0.0008	-0.003	-0.0015	0.0045	61.1
0.0007	-0.0023	0	0.009	61.1
0.003	-0.003	0	0.009	61.1
0.0015	-0.0015	-0.0008	0.0067	61.1
0.0015	0.0007	0	0.0052	61.1
0.0022	0.0022	0.0007	0.0007	61.1
0	0.0007	0.003	0.0052	61.1
-0.0008	-0.0008	0.0045	0.0067	61.1
-0.0008	-0.0038	0.0045	0.0097	61.1
-0.0008	-0.0046	0.0037	0.018	61.1
-0.0008	-0.0046	0.0052	0.0217	61.1
-0.0015	-0.0053	0.003	0.0255	61.1
-0.0015	-0.0053	0.0015	0.0217	61.1
-0.0015	-0.0068	0.0022	0.0142	61.1
-0.0015	-0.0068	0	0.0165	61.1
0.0007	-0.0053	0.0007	0.024	61.1
-0.0008	-0.0046	0.0015	0.0292	61.2
-0.0038	-0.003	0.0007	0.0285	61.2
-0.0068	-0.0015	-0.0008	0.0232	61.2
-0.0083	0	0.0007	0.0172	61.2
-0.0053	0.0007	-0.0008	0.0157	61.2
-0.0046	0.003	-0.0008	0.0195	61.2
-0.0046	0.0022	0.0015	0.012	61.2
-0.0038	-0.003	0.0007	0.009	61.2
-0.003	-0.003	0.0015	0.0097	61.2
-0.0015	-0.003	0.0007	0	61.2
-0.003	-0.0053	0.0007	-0.0023	61.2
-0.003	-0.0075	-0.0008	-0.0015	61.2
-0.0008	-0.0091	-0.0023	0	61.2
-0.0015	-0.006	-0.0023	0.0007	61.2
-0.0015	-0.006	-0.0046	0.006	61.2
-0.0008	-0.0091	-0.0046	0.012	61.2
-0.0008	-0.0091	-0.003	0.0142	61.2
0	-0.0083	-0.0008	0.0217	61.2
0.0022	-0.006	0	0.027	61.2
0.0052	-0.0046	0.0007	0.027	61.2
0.0052	-0.006	0.0022	0.0292	61.2
0.0052	-0.0053	0.0045	0.0345	61.2
0.0045	-0.0068	0.0045	0.033	61.2
0.003	-0.0083	0.0045	0.033	61.2
0.0037	-0.0068	0.0052	0.0292	61.2
0.003	-0.0083	0.0037	0.0217	61.2
0.0022	-0.006	0.003	0.012	61.2
0.003	-0.0053	0.003	0.0007	61.2
-0.0008	-0.003	0.003	-0.0008	61.2
-0.0023	-0.003	0.0022	-0.003	61.2
-0.0008	-0.0008	0.0045	-0.0075	61.2
-0.0008	0.0015	0.0045	-0.0105	61.2
0	0.0007	0.0045	-0.0105	61.2
0	0.0007	0.006	-0.0053	61.2
-0.0008	0.0007	0.0037	-0.0075	61.2
-0.0008	0.0007	0.003	-0.0113	61.2
-0.003	0	0.0022	-0.0128	61.2
-0.0046	0.0007	0.003	-0.012	61.2
-0.003	0.0007	0.0045	-0.0083	61.2
-0.0038	-0.0008	0.0022	-0.0046	61.2
-0.003	0.0015	0	-0.0008	61.2
-0.0015	0.0022	0.0007	-0.0023	61.2
-0.003	0.003	-0.0008	-0.0053	61.2
-0.0046	0.0045	-0.003	-0.0053	61.2
-0.0053	0.0045	-0.0023	-0.0098	61.2
-0.0046	0.003	-0.003	-0.0165	61.3
-0.0046	0.0015	-0.0015	-0.0203	61.3
-0.0038	0.0007	-0.0015	-0.024	61.3
-0.003	-0.0008	-0.0015	-0.0248	61.3
-0.003	-0.0008	0.0007	-0.0256	61.3
-0.0023	-0.0008	0.0015	-0.0308	61.3
0.0007	-0.0023	0.0037	-0.0308	61.3
0	-0.003	0.0022	-0.0278	61.3
0.0007	-0.0046	0.0015	-0.0285	61.3
0.0015	-0.0053	0.0015	-0.03	61.3
0.0007	-0.003	0.0015	-0.0256	61.3
0.0007	-0.0046	0.0015	-0.0143	61.3
0.0007	-0.003	-0.0008	-0.0091	61.3
0.0007	-0.003	-0.0008	-0.006	61.3
0.0007	-0.0046	-0.0008	-0.0053	61.3
0	-0.0046	0.0007	-0.0015	61.3
0	-0.0053	-0.0008	0.0067	61.3
-0.0015	-0.0046	-0.0008	0.0127	61.3
-0.0008	-0.0038	0.0007	0.0157	61.3
0.003	-0.003	0.0007	0.0157	61.3
0.003	-0.0015	0.0015	0.0105	61.4
0.003	-0.0008	0.0015	0.006	61.4
0.0045	-0.0008	0.0015	0.0067	61.4
0.0045	-0.0008	0.0022	0.0022	61.4
0.003	0	0.0007	-0.0015	61.4
0.0022	-0.0008	0.0007	-0.0046	61.4
0.0037	0.0015	0.0015	-0.0128	61.4
0.0007	0.0007	0.003	-0.0143	61.4
0.0007	0	0.0015	-0.0113	61.4
-0.0008	-0.0008	0.0007	-0.003	61.4
-0.003	-0.003	0.0015	0	61.4
-0.0023	-0.0046	0.0007	-0.0038	61.4
-0.0015	-0.003	0.0007	-0.0075	61.4
-0.0015	0.0007	-0.0008	-0.0091	61.4
-0.0023	-0.0008	0	-0.0091	61.4
-0.003	0	0.0022	-0.0068	61.4
-0.003	0.0015	0.0015	-0.0046	61.4
-0.0046	-0.0008	0.0015	-0.0038	61.4
-0.0046	-0.003	-0.0008	-0.0008	61.4
-0.0053	-0.0038	-0.0015	0.0045	61.4
-0.0053	-0.0053	-0.0015	0.0105	61.3
-0.0053	-0.006	-0.0008	0.0157	61.3
-0.0053	-0.0053	-0.0008	0.0157	61.3
-0.0046	-0.0053	-0.0008	0.0142	61.3
-0.003	-0.0053	0.0022	0.0105	61.3
-0.0008	-0.0046	0.0015	0.006	61.3
-0.0008	-0.0046	0.0015	0.0007	61.3
-0.0008	-0.0053	0.0022	-0.003	61.3
-0.0008	-0.006	-0.0008	-0.0083	61.3
0.0015	-0.0053	0.0015	-0.0128	61.3
0.0015	-0.0046	0.0022	-0.0143	61.3
0.0007	-0.003	0.0022	-0.006	61.3
0.0015	-0.0008	0.003	0.0037	61.3
0.0015	0	0.0022	0.012	61.3
0.003	-0.0008	0.0015	0.0232	61.3
0.003	-0.0008	-0.0015	0.027	61.3
0.0015	-0.0015	-0.0008	0.033	61.3
0.0007	-0.0008	0.0007	0.036	61.3
0.0007	-0.0046	0	0.0345	61.3
0	-0.0038	-0.0008	0.0277	61.3
-0.0015	-0.003	-0.0015	0.0307	61.3
0.0015	-0.0053	0	0.0277	61.3
0	-0.0046	0.0015	0.0202	61.3
-0.0008	-0.0046	0.0007	0.0157	61.3
0	-0.0053	-0.0008	0.0022	61.3
-0.0008	-0.0068	-0.0008	-0.0046	61.2
-0.0008	-0.0075	0	-0.0128	61.2
-0.0008	-0.0053	-0.0008	-0.0098	61.2
-0.0008	-0.0038	-0.003	-0.0083	61.2
-0.0015	-0.003	-0.0046	-0.0128	61.2
-0.0015	-0.003	-0.0046	-0.0068	61.2
-0.0015	-0.003	-0.0023	-0.0008	61.2
-0.0015	-0.003	-0.0023	0.009	61.2
-0.0023	-0.0008	-0.0015	0.006	61.2
-0.0046	-0.0015	-0.0015	-0.0008	61.2
-0.0015	-0.0008	-0.0008	0.003	61.2
-0.0008	0.0007	0.0007	0.0045	61.2
-0.0015	0.0007	0.0007	0.0082	61.2
-0.0015	0	0.0007	0.012	61.2
-0.0008	-0.0008	0.0015	0.0105	61.2
0	0.0015	0.0015	0.0052	61.2
0	0.003	0.003	0.0015	61.2
0.0022	0.003	0.0052	0.003	61.2
0.003	0.0045	0.0045	0.0082	61.2
0.003	0.0082	0.0045	0.0097	61.2
0.0015	0.0097	0.0037	0.0007	61.2
-0.0008	0.0082	0.003	-0.0105	61.2
-0.0015	0.0082	0.0022	-0.0188	61.2
-0.0015	0.006	0.0015	-0.0181	61.2
-0.003	0.0022	0.0015	-0.0165	61.2
-0.003	0.0007	0.0007	-0.0113	61.2
-0.0046	-0.0015	-0.0008	0.0015	61.2
-0.003	-0.003	-0.0008	0.0105	61.2
-0.0015	-0.0046	0.0015	0.0165	61.2
-0.0023	-0.0053	0.003	0.0255	61.2
-0.0008	-0.0068	0.0022	0.0322	61.2
-0.003	-0.0075	0.0052	0.03	61.2
-0.0053	-0.0053	0.0052	0.018	61.2
-0.0053	-0.0046	0.0037	0.0165	61.2
-0.0053	-0.0053	0.003	0.0217	61.2
-0.0038	-0.003	0.0045	0.0165	61.2
-0.0023	-0.0023	0.0037	0.0105	61.2
-0.003	-0.003	0.0037	0.0015	61.2
-0.0038	-0.003	0.0045	-0.0068	61.2
-0.0046	-0.0023	0.0045	-0.0068	61.2
-0.0046	-0.0015	0.0052	-0.0053	61.2
-0.0046	-0.0015	0.003	-0.0038	61.2
-0.0046	-0.0008	0.003	-0.0075	61.2
-0.003	0.003	0.003	-0.0128	61.2
-0.003	0.003	0.0007	-0.0195	61.2
-0.0023	-0.0008	0.0015	-0.0203	61.2
-0.0046	-0.0008	0.0015	-0.0203	61.2
-0.003	0	0.003	-0.0195	61.2
-0.003	-0.003	0.0015	-0.0158	61.2
-0.0038	-0.0038	0.0015	-0.0143	61.2
-0.0015	-0.0023	0.003	-0.0098	61.2
0.0007	-0.0015	0.0007	-0.0083	61.2
0.0015	-0.0023	-0.0008	-0.0068	61.2
0.0022	0	-0.003	-0.003	61.2
0.0015	-0.0015	-0.0023	-0.0053	61.2
-0.0008	-0.0046	-0.0015	-0.0075	61.2
0.0015	-0.0053	-0.0046	-0.0105	61.2
0.0007	-0.003	-0.0023	-0.0143	61.2
-0.003	-0.003	-0.0015	-0.0203	61.2
-0.003	-0.003	-0.0015	-0.021	61.2
-0.0023	0.0015	-0.0008	-0.015	61.2
-0.0008	0.0007	0.0007	-0.0165	61.2
-0.0008	0.0007	0.0015	-0.0158	61.2
-0.0008	0.003	-0.0015	-0.0083	61.2
-0.0015	0.0007	-0.0023	-0.0068	61.2
-0.0008	-0.0015	-0.003	-0.0158	61.2
0.0015	-0.0008	-0.0015	-0.0195	61.2
0.0022	-0.0015	-0.0008	-0.0218	61.2
0.0015	-0.003	-0.0008	-0.0285	61.2
-0.0008	-0.0046	0.0007	-0.03	61.2
0	-0.0046	0.0007	-0.0188	61.2
0.0015	-0.0023	0.0045	-0.0113	61.2
0.0015	-0.003	0.0067	-0.0053	61.2
0.003	-0.0046	0.003	0.0015	61.2
0.0015	-0.0046	0.003	0.012	61.2
0.0022	-0.0068	0.003	0.0292	61.3
0.003	-0.0068	0.003	0.0412	61.3
0.0037	-0.0083	0.003	0.0487	61.3
0.003	-0.006	0.0007	0.0442	61.3
0	-0.003	0	0.0382	61.3
0.0007	-0.0038	0.0007	0.0322	61.3
0.0015	-0.0015	0.0045	0.0262	61.3
0.0015	-0.0015	0.0037	0.0247	61.3
-0.0015	-0.0008	0.0007	0.0202	61.3
-0.003	0	-0.0008	0.0172	61.3
-0.003	-0.003	-0.0008	0.0142	61.3
-0.003	-0.0046	-0.0008	0.0075	61.3
-0.0008	-0.0053	0	0	61.3
0.0007	-0.0068	0.0015	0	61.3
0	-0.0083	-0.0008	0	61.3
0.0007	-0.0091	-0.0008	-0.006	61.3
-0.0015	-0.0068	0	-0.0091	61.3
-0.0023	-0.0068	-0.0046	-0.0053	61.3
-0.003	-0.0068	-0.0023	0.0067	61.3
-0.003	-0.0068	-0.0008	0.0142	61.3
-0.003	-0.0038	0.0015	0.0142	61.3
-0.0053	-0.0038	0	0.0165	61.3
-0.0053	-0.0046	-0.003	0.0172	61.3
-0.0068	-0.0015	-0.0015	0.0165	61.3
-0.0068	-0.0015	-0.003	0.015	61.3
-0.0038	-0.003	-0.0015	0.0112	61.2
-0.0046	-0.0038	-0.0023	0.0082	61.2
-0.003	-0.0046	-0.0023	0.0045	61.2
0	-0.003	0	0.0007	61.2
0.0007	-0.0053	0.0007	-0.0053	61.2
0.0007	-0.0053	0.0015	-0.0091	61.2
0.0007	-0.003	0.0007	-0.0158	61.2
0	-0.0008	0.0015	-0.021	61.2
-0.0015	-0.0008	0.0015	-0.0165	61.2
-0.0008	0	0.0007	-0.0143	61.2
-0.0015	0.0007	0.0007	-0.0135	61.3
-0.003	-0.0008	0	-0.0158	61.3
-0.0023	-0.0008	0	-0.027	61.3
-0.003	0.0007	-0.0015	-0.0353	61.3
-0.0008	0.0015	-0.0008	-0.0368	61.3
0.0007	0.0015	0.0007	-0.0368	61.3
-0.0008	0.003	0.0007	-0.0368	61.3
0	0.0037	0	-0.033	61.3
0.0015	0.0045	0.0015	-0.0285	61.3
0.0007	0.0037	0.0022	-0.0256	61.3
0.0007	0.0015	0.0007	-0.0218	61.3
0.003	0.0007	0.0007	-0.0143	61.3
0.003	0	0.0007	-0.012	61.3
0.0015	0.0007	0.0015	-0.012	61.3
0.0015	0.0022	0.0015	-0.0098	61.3
0.0015	0.0015	0.003	-0.0053	61.3
0.0015	0	0.003	0.0015	61.3
0.0022	-0.0008	0.0015	0.0015	61.3
0.0015	-0.0008	0.0015	0.0022	61.3
0.0007	-0.0008	0.0015	0.0015	61.3
0.0007	-0.0015	0.003	-0.0008	61.3
0.0007	-0.0015	0.0022	0.0015	61.3
-0.0008	-0.0008	0.0015	-0.003	61.3
-0.0023	0.0007	0.0022	-0.003	61.3
-0.003	0.0015	0.0007	0.0007	61.3
-0.0015	0	0	0.0127	61.3
-0.0015	0.0007	0.003	0.024	61.3
-0.0023	-0.0015	0.0022	0.0255	61.3
-0.003	-0.003	0.0015	0.0262	61.3
-0.003	-0.0046	0.0015	0.0217	61.3
-0.0015	-0.0068	-0.0008	0.0135	61.2
-0.0008	-0.006	0.0007	0.0165	61.2
0.0007	-0.0053	0.0007	0.0255	61.2
0.0022	-0.0053	0.0007	0.027	61.2
0.0022	-0.0075	0.0015	0.0405	61.2
0.0007	-0.0068	0.0015	0.0555	61.2
0.0037	-0.0053	0.0007	0.0615	61.2
0.0015	-0.0046	0.0015	0.0607	61.2
-0.0015	-0.0053	0.0022	0.06	61.2
-0.003	-0.0053	0.0007	0.0592	61.2
-0.0046	-0.003	0.0007	0.0555	61.2
-0.0046	-0.003	0	0.0555	61.2
-0.003	-0.0023	0	0.0495	61.2
-0.003	-0.0015	0.0015	0.0442	61.2
-0.0023	-0.0015	0.0007	0.0405	61.2
-0.0023	-0.0015	-0.0015	0.0382	61.2
-0.0023	-0.003	-0.0008	0.0345	61.2
-0.0015	-0.0023	-0.0023	0.0247	61.2
-0.0015	-0.003	-0.0015	0.0187	61.2
-0.0015	-0.003	-0.0038	0.018	61.2
-0.003	-0.0015	-0.0015	0.0172	61.2
-0.0015	-0.0015	0.0015	0.0202	61.2
0	-0.0038	0.0007	0.0202	61.2
0.0007	-0.0068	0.003	0.0187	61.2
-0.0008	-0.0053	0.003	0.0157	61.2
0.0007	-0.006	0.0015	0.0157	61.2
0.0007	-0.0053	0.0007	0.0142	61.2
-0.0008	-0.0046	0.0015	0.006	61.2
0	-0.0008	0.0015	0.0007	61.2
-0.0008	0.0015	0.0015	-0.0105	61.2
0.0007	0.0037	0.0045	-0.0233	61.2
0.0015	0.0067	0.003	-0.0383	61.2
0	0.0075	0.0007	-0.0555	61.2
-0.0008	0.0067	-0.0008	-0.0623	61.2
0	0.0045	0.0015	-0.0593	61.2
0.0007	0.0037	0.0022	-0.054	61.2
0	0.003	0.0045	-0.0488	61.2
-0.0015	0.0015	0.0045	-0.0465	61.2
-0.0015	0.0015	0.0037	-0.0436	61.2
-0.003	0	0.003	-0.0398	61.2
-0.003	-0.003	0.0015	-0.0436	61.1
-0.003	-0.0046	0.003	-0.0458	61.1
-0.0008	-0.003	0.0045	-0.042	61.1
0.0015	-0.003	0.006	-0.0346	61.1
0.0015	-0.0015	0.0045	-0.024	61.1
0.0007	-0.003	0.0052	-0.0218	61.1
0.003	-0.0038	0.006	-0.0181	61.1
0.003	-0.0038	0.0052	-0.0165	61.1
0.003	-0.0046	0.0045	-0.015	61.1
0.003	-0.0053	0.0037	-0.0053	61.1
0.0015	-0.0068	0.0015	0.0007	61.1
-0.0008	-0.0068	-0.0008	0.0037	61.1
0.0007	-0.0068	-0.0008	0.003	61.1
0.0007	-0.0038	0.0007	0.0015	61.1
0.0007	-0.0023	-0.0008	-0.0008	61.1
0	-0.003	-0.0008	0.003	61.1
-0.0008	-0.0008	0.0007	0.012	61.1
-0.0015	-0.0038	0.0015	0.0112	61.1
-0.0046	-0.0075	0.0007	0.0052	61.1
-0.0046	-0.0068	0.0015	0.0052	61.1
-0.0023	-0.0068	0.0007	0.006	61
-0.0008	-0.0068	0.0007	0.0082	61
0	-0.0075	0.0007	0.003	61
-0.0008	-0.0068	-0.0008	-0.003	61
0.0007	-0.0046	-0.0015	-0.0083	61
0.0015	-0.003	-0.0015	-0.012	61
0.0022	-0.0008	0	-0.006	61
0.003	-0.0008	0.0007	0.0015	61
0.0022	-0.0015	-0.0008	0.0127	61
0.003	0.0007	0.0007	0.0232	61
0.0007	0.0007	0	0.0255	61
-0.0008	0	0.0007	0.027	61
0	-0.0008	-0.0008	0.0292	61
0	0.0007	-0.0015	0.0352	60.9
0	-0.0008	-0.0008	0.039	60.9
0.0007	0.0007	0.0007	0.039	60.9
0	0.0007	0.0007	0.0382	60.9
-0.0023	0.0007	0	0.039	60.9
-0.0015	0.0007	0	0.0352	60.9
-0.0046	-0.003	-0.0015	0.0277	60.9
-0.0075	-0.0046	-0.003	0.0195	60.8
-0.0068	-0.006	0	0.012	60.8
-0.0075	-0.0083	0.003	0.009	60.8
-0.0068	-0.0098	0.003	0.0067	60.8
-0.0053	-0.0098	0.0037	0.0045	60.8
-0.0046	-0.0075	0.003	0.0037	60.8
-0.003	-0.0046	0.0037	0.0037	60.8
-0.0008	-0.0015	0.0007	0.0022	60.8
0	-0.0015	-0.0008	0.0022	60.7
0.0015	-0.0015	-0.0008	-0.0008	60.7
0.003	-0.0023	-0.003	-0.0068	60.7
0.0022	-0.0023	-0.003	-0.0046	60.7
0.003	-0.0015	-0.0008	-0.0053	60.7
0.0015	0	0	-0.0023	60.7
0.0007	0.0015	0.0037	0.003	60.7
0.0007	0.0015	0.0037	0.0007	60.7
0	0.003	0.003	0.003	60.6
-0.0008	0.0037	0.0015	0.0067	60.6
-0.0008	0.003	0.0007	0.0075	60.6
-0.003	0.0045	0.0007	0.0037	60.6
-0.0053	0.0045	-0.0015	-0.0008	60.5
-0.0053	0.0022	-0.0015	0.0007	60.5
-0.0053	0.003	-0.003	0	60.5
-0.003	0.0022	-0.0023	-0.0015	60.5
-0.0015	0.0015	-0.0008	-0.0091	60.5
-0.0023	0.0007	-0.0008	-0.015	60.5
-0.0023	0	-0.0023	-0.0181	60.5
-0.0038	0	-0.003	-0.0188	60.5
-0.0046	-0.0008	-0.0023	-0.0195	60.5
-0.003	-0.0015	-0.0023	-0.0165	60.5
-0.003	-0.0015	-0.0008	-0.012	60.4
-0.0015	-0.003	0.0007	-0.0128	60.4
-0.0008	-0.0046	0	-0.0248	60.4
-0.0023	-0.0046	0.0007	-0.0375	60.4
-0.0015	-0.0046	0.0007	-0.0368	60.4
-0.0015	-0.0015	0.0007	-0.0278	60.4
-0.0008	-0.0008	0.0015	-0.021	60.4
0	0	-0.0023	-0.0128	60.4
-0.0008	0.0015	0.0007	-0.0023	60.4
0.0022	0.0022	0.0015	0.006	60.3
0.0045	0.003	0.0015	0.0045	60.3
0.0037	0.0037	0.0037	-0.0053	60.3
0.0045	0.0015	0.0015	-0.0203	60.3
0.0007	-0.0008	-0.0008	-0.0293	60.3
0.0015	-0.0015	0.0015	-0.0315	60.3
0.0022	-0.0038	-0.0015	-0.0315	60.3
0.0007	-0.0068	-0.003	-0.0256	60.3
-0.0008	-0.0083	-0.0015	-0.024	60.3
-0.003	-0.0091	-0.0023	-0.0203	60.3
-0.0038	-0.0075	-0.0015	-0.0113	60.2
-0.0015	-0.0075	-0.0008	-0.0015	60.2
-0.0008	-0.0083	0.0015	0.0052	60.2
-0.0008	-0.0068	0.0015	0.003	60.2
-0.0008	-0.0083	0.003	0.0105	60.2
0.0015	-0.0068	0.0045	0.0165	60.2
0.0045	-0.0053	0.0052	0.0195	60.1
0.003	-0.0038	0.006	0.027	60.1
0.0015	-0.0053	0.0045	0.027	60.1
0.0022	-0.0053	0.0037	0.024	60.1
0.0007	-0.0015	0.0037	0.0217	60.1
-0.0008	-0.0008	0.0037	0.0232	60
-0.003	0	0.0007	0.0232	60
-0.0046	-0.0015	-0.0015	0.0217	60
-0.0046	-0.0008	-0.0008	0.0232	60
-0.0046	-0.0008	-0.0023	0.0217	60
-0.0053	-0.0023	-0.003	0.024	60
-0.0053	-0.0046	-0.0053	0.0307	60
-0.0046	-0.0053	-0.0053	0.0292	60
-0.003	-0.0068	-0.0046	0.0225	60
-0.003	-0.012	-0.0015	0.015	60
-0.003	-0.012	0.0015	0.0105	60
-0.0023	-0.0098	0.0022	0.0045	60
-0.0015	-0.0091	0.0015	0.0052	60
-0.0023	-0.0068	-0.0008	0.0082	59.9
-0.0023	-0.0068	0	0.0075	59.9
-0.003	-0.0083	-0.0015	0.0037	59.9
-0.003	-0.0053	0.0015	0.0015	59.9
-0.003	-0.0023	0.0015	-0.0015	59.9
-0.0023	-0.003	0.0007	0	59.9
-0.0015	-0.0023	0.003	0.0037	59.9
-0.0008	-0.0008	0.0015	0.0067	59.8
0.0015	0	0.003	0.0142	59.8
0.0015	0	0.0045	0.0225	59.8
0.0007	0.0045	0.006	0.0225	59.8
0.0007	0.006	0.0052	0.0195	59.8
0	0.006	0.0045	0.0135	59.8
0	0.009	0.0037	0.0082	59.8
0.0007	0.0112	0.0015	0.0037	59.8
0.0022	0.012	0.0015	0.0015	59.8
0.003	0.0097	0.003	0.0007	59.8
0.003	0.0067	0.0045	0.0022	59.8
0.0015	0.0037	0.006	0.0045	59.8
-0.0008	0.0022	0.0045	0.0037	59.8
-0.0015	0.0022	0.0045	0.0037	59.8
0	0.0015	0.0067	0.0052	59.8
0.003	0.0007	0.0052	0.0015	59.8
0.0045	-0.0015	0.003	-0.0015	59.8
0.0052	-0.0046	-0.0008	-0.0053	59.8
0.0045	-0.006	-0.003	-0.0113	59.8
0.0015	-0.0091	-0.0008	-0.0128	59.8
0.0022	-0.0098	-0.0038	-0.0113	59.8
0.0007	-0.0068	-0.0053	-0.0091	59.8
-0.0008	-0.0083	-0.0068	-0.0128	59.8
-0.0015	-0.0098	-0.0068	-0.0143	59.8
-0.0015	-0.0098	-0.0046	-0.012	59.8
-0.0015	-0.0091	-0.0023	-0.0083	59.8
-0.0015	-0.0075	0.0007	-0.0083	59.8
-0.0008	-0.0053	0.003	-0.0105	59.8
0.0007	-0.0038	0.0037	-0.0105	59.8
0	-0.006	0.003	-0.0098	59.8
-0.0008	-0.0068	0.0015	-0.006	59.8
-0.0038	-0.0068	0.0022	-0.006	59.8
-0.0023	-0.006	0.0045	-0.012	59.8
-0.0008	-0.0046	0.0045	-0.0203	59.8
0.0007	-0.003	0.003	-0.0225	59.8
0	-0.0015	0.0052	-0.0158	59.7
-0.0008	0.0007	0.006	-0.0075	59.7
0.0007	0.0015	0.0052	0.0052	59.7
-0.0023	0.003	0.0045	0.0157	59.7
-0.003	0.0037	0.0052	0.0202	59.7
-0.0008	0.0037	0.006	0.0262	59.7
-0.0008	0.0022	0.0007	0.0277	59.7
-0.0015	-0.0015	0	0.0217	59.7
-0.0015	-0.0038	0.0007	0.0165	59.7
-0.003	-0.0038	-0.0015	0.0097	59.7
-0.0038	-0.003	-0.0008	0.003	59.7
-0.0046	-0.003	-0.0008	-0.0008	59.7
-0.006	-0.0053	-0.0015	-0.0068	59.7
-0.006	-0.0068	-0.0015	-0.0113	59.7
-0.003	-0.0046	0.0007	-0.0113	59.7
-0.0015	-0.0015	0.0022	-0.0075	59.7
-0.0008	-0.0008	0.003	-0.0038	59.7
-0.0008	0.0007	0.0022	-0.0068	59.7
-0.003	0.0015	0.003	-0.012	59.7
-0.003	0.0022	0.003	-0.0128	59.7
-0.0046	0.0007	0.0015	-0.012	59.7
-0.0038	-0.0015	0.0037	-0.012	59.7
-0.003	0.0007	0.003	-0.0098	59.7
-0.0046	0.0015	0.0022	-0.0091	59.7
-0.003	0.0007	0.0007	-0.0091	59.7
-0.0038	-0.0015	-0.0023	-0.0053	59.6
-0.003	-0.0008	-0.0015	-0.0008	59.6
-0.0015	0	-0.0015	0.0007	59.6
-0.0008	0.0015	-0.0015	0	59.6
0.003	0.003	-0.0038	0.0015	59.6
0.003	0.0015	-0.0038	0.0015	59.6
0.0015	0.0007	-0.003	-0.0053	59.6
0.0007	-0.0015	-0.003	-0.0105	59.6
0.0007	-0.003	-0.003	-0.0128	59.6
0.0015	-0.0053	-0.0015	-0.0135	59.6
0.0015	-0.0091	-0.0008	-0.012	59.6
0	-0.0091	-0.0015	-0.0083	59.6
-0.0008	-0.0083	-0.0015	-0.0068	59.6
0	-0.0053	0	-0.0091	59.6
-0.0008	-0.003	0.0007	-0.0046	59.6
-0.0015	-0.0015	0.0015	0.0015	59.6
-0.0008	-0.0015	0.003	0.0037	59.6
0	-0.0008	0.003	0.003	59.5
0.0007	-0.0015	0.0045	0.006	59.5
0.003	-0.0008	0.0045	0.0082	59.5
0.0037	0.0007	0.0022	0.0112	59.5
0.003	0	0.0015	0.0142	59.5
0.0007	0	0.0015	0.0157	59.5
0	0.0007	0.0007	0.0172	59.5
0	0	-0.0008	0.021	59.5
0.0007	-0.0015	-0.0015	0.027	59.5
0.0007	-0.0038	-0.0008	0.0292	59.5
-0.0015	-0.0038	0.0015	0.027	59.5
-0.0008	-0.0046	0.003	0.0262	59.5
0	-0.0023	0.0015	0.0292	59.5
0.0007	-0.0008	0.0015	0.0307	59.5
0.0015	-0.0015	0.0015	0.0315	59.5
0.0007	-0.0008	-0.0008	0.036	59.5
0.0022	-0.0008	-0.0008	0.0367	59.5
0.003	-0.003	-0.0008	0.0352	59.5
0.0007	-0.003	0.0007	0.033	59.5
0.0007	-0.0038	-0.0008	0.0217	59.5
0	-0.0046	-0.0008	0.009	59.5
-0.0008	-0.003	-0.0008	-0.003	59.5
-0.003	-0.0015	-0.0008	-0.0158	59.5
-0.003	-0.0023	0.0022	-0.0203	59.5
-0.0015	-0.003	0.003	-0.0263	59.5
-0.003	-0.0015	0.0052	-0.0263	59.5
-0.0046	0.0007	0.0052	-0.0233	59.5
-0.003	0.0022	0.003	-0.0263	59.5
-0.003	0.0022	0.003	-0.0173	59.5
-0.0046	0.0015	0.0015	-0.0091	59.5
-0.0046	0.0007	0.0007	-0.0083	59.5
-0.0053	-0.0008	0.0022	-0.0046	59.5
-0.0046	-0.0023	0.003	0.003	59.5
-0.0023	-0.0046	0.0022	0.0165	59.5
0.0007	-0.0075	0.0015	0.0255	59.5
0	-0.0113	0.0007	0.033	59.5
-0.0008	-0.0105	0.0015	0.033	59.5
-0.0008	-0.0128	-0.0008	0.0277	59.5
-0.0008	-0.0158	-0.0008	0.018	59.5
-0.0015	-0.0143	0.003	-0.0008	59.5
-0.0015	-0.012	0.0015	-0.0068	59.5
-0.0023	-0.0091	0.0007	-0.0113	59.5
-0.0015	-0.0075	0.0015	-0.0158	59.5
-0.0023	-0.0053	0.0007	-0.015	59.5
-0.0015	-0.0015	0.0015	-0.0165	59.5
0	-0.0008	0.0022	-0.0165	59.5
-0.0015	-0.0015	0	-0.0181	59.5
-0.003	0.0015	-0.0008	-0.0195	59.5
-0.0015	0.0015	0.0007	-0.0233	59.5
0	-0.0008	0.0015	-0.0233	59.5
0	-0.0008	0.0015	-0.0218	59.5
0.0007	-0.0015	0.0015	-0.0181	59.5
0.0022	0	0.0015	-0.0165	59.5
0.003	0	-0.0008	-0.0165	59.5
0.0007	0.0015	-0.0008	-0.0158	59.5
-0.0015	0.0015	0.0007	-0.0195	59.5
-0.0015	0.0015	-0.0015	-0.0203	59.5
0.0007	0.003	-0.0008	-0.0225	59.5
-0.0008	0.0015	-0.0008	-0.0233	59.5
0.0007	0.0015	0.0007	-0.0233	59.5
0.0007	0.003	0.0022	-0.0203	59.5
-0.0008	0.003	0.0007	-0.0195	59.5
-0.0015	0.0037	0.0015	-0.0195	59.5
-0.0038	0.0045	0.0022	-0.027	59.4
-0.0023	0.0045	0.0022	-0.0353	59.4
-0.0023	0.0007	-0.0008	-0.0353	59.4
-0.003	0	-0.003	-0.0368	59.4
0	0.0007	-0.0015	-0.03	59.4
0.0007	0.0015	0.0015	-0.0203	59.4
0	0.0007	0.0015	-0.0091	59.4
-0.003	-0.0008	0.0022	0.0015	59.4
-0.003	0.0007	0.003	0.0067	59.4
-0.0023	-0.0008	0.0022	0.0112	59.4
-0.0046	-0.0038	0.0045	0.0217	59.4
-0.0038	-0.0053	0.003	0.0262	59.4
-0.0053	-0.0053	0.0015	0.03	59.4
-0.0068	-0.0038	0.0015	0.0352	59.4
-0.006	-0.0046	-0.0015	0.042	59.4
-0.0068	-0.0068	-0.0015	0.0442	59.4
-0.0068	-0.0068	-0.0015	0.039	59.4
-0.0053	-0.0053	0.0007	0.0315	59.4
-0.003	-0.0053	0.0007	0.0217	59.4
-0.003	-0.006	-0.0008	0.0157	59.4
-0.0015	-0.0053	0.0007	0.0105	59.4
0	-0.0046	0.0007	0.012	59.4
0.0037	-0.006	0.0022	0.0135	59.4
0.0045	-0.0053	0.003	0.0135	59.4
0.0052	-0.0046	0.0007	0.0142	59.4
0.0052	-0.0046	0.0015	0.0157	59.4
0.003	-0.0053	0.0022	0.0202	59.4
0.0007	-0.0053	-0.0008	0.0225	59.4
-0.0008	-0.0046	-0.0023	0.0307	59.4
-0.0008	-0.0068	-0.0008	0.0382	59.4
-0.0015	-0.006	0.0007	0.0405	59.4
0	0.0007	0.0015	0.039	59.4
0.003	0.003	0.0022	0.0367	59.4
0.0015	0.003	0.0015	0.0382	59.4
0	0.0052	0.0007	0.0285	59.4
-0.0008	0.0075	-0.0008	0.0105	59.4
-0.0023	0.0067	-0.0015	-0.0038	59.4
-0.0008	0.0045	-0.0008	-0.0128	59.4
-0.0008	0.003	-0.0008	-0.0165	59.4
-0.003	0.0007	-0.0008	-0.0105	59.4
-0.003	0.0007	0.0015	-0.0165	59.4
-0.0008	0.0007	0.0007	-0.0248	59.4
0	0	0.0015	-0.024	59.4
0.0015	0.0015	0.003	-0.0225	59.4
0.003	0.0022	0.0045	-0.0165	59.4
0.003	0.0015	0.0052	-0.0158	59.4
0.0037	0.003	0.0045	-0.0158	59.4
0.0045	0.0022	0.0037	-0.0135	59.4
0.0045	0.0007	0.0015	-0.012	59.4
0.0022	-0.0015	-0.0008	-0.0083	59.4
0.0007	-0.0015	-0.0015	-0.0083	59.4
0.0015	-0.0008	0	-0.0068	59.4
0.0015	0.0015	0.003	-0.0053	59.4
0.0007	0.0015	-0.0008	-0.0046	59.4
0.0007	-0.0008	-0.0008	-0.003	59.4
-0.0015	-0.003	-0.0015	-0.0008	59.4
-0.0038	-0.0038	-0.003	0.0045	59.4
-0.003	-0.0023	-0.0023	0.009	59.4
-0.0015	-0.0046	-0.0015	0.0045	59.4
-0.0015	-0.0046	-0.0008	0.0007	59.4
-0.0008	-0.0046	0	-0.0008	59.4
-0.0008	-0.003	0.0037	-0.0046	59.4
0.0007	-0.0038	0.0045	-0.0046	59.4
-0.0008	-0.0053	0.003	-0.003	59.4
-0.0008	-0.0038	0.0015	-0.0008	59.4
0.0015	-0.0046	0.0007	0.0045	59.4
-0.0008	-0.0046	0.0037	0.003	59.4
0.0007	-0.003	0.0022	0.003	59.4
0.0007	-0.0046	0	0.0015	59.4
-0.0015	-0.0053	0.0015	-0.0046	59.4
-0.0015	-0.0068	0.0015	-0.0091	59.4
-0.0008	-0.0068	0.0007	-0.0091	59.4
0.0015	-0.0053	-0.0008	-0.0083	59.4
-0.0008	-0.0053	-0.0023	-0.0038	59.4
-0.0015	-0.0038	-0.0046	0.003	59.4
-0.003	-0.003	-0.0015	0.009	59.4
-0.0046	-0.003	0.0022	0.0127	59.4
-0.0023	-0.0015	0.003	0.018	59.4
-0.0015	-0.0015	0.0045	0.024	59.4
-0.003	-0.0008	0.0045	0.027	59.4
-0.0046	-0.0015	0.006	0.027	59.4
-0.0046	-0.0015	0.0075	0.03	59.4
-0.0038	-0.0015	0.0045	0.0247	59.4
-0.0046	-0.0038	0.0037	0.0187	59.4
-0.0038	-0.0046	0.003	0.0187	59.4
-0.0023	-0.0046	0.003	0.0195	59.4
-0.003	-0.006	0.0022	0.0202	59.4
-0.0023	-0.0053	0.0007	0.018	59.4
0.0007	-0.003	0.0022	0.0082	59.4
0.0015	-0.0023	0.0015	0.0015	59.4
0.003	-0.0015	-0.0008	-0.003	59.4
0.003	-0.0023	-0.0008	-0.0135	59.4
0	-0.003	-0.0008	-0.0225	59.4
0.0015	-0.0023	-0.0008	-0.0278	59.4
0.0015	-0.003	0.0007	-0.0278	59.4
0	-0.0023	-0.0008	-0.0293	59.4
0	-0.003	-0.0008	-0.0285	59.4
-0.0008	-0.0046	-0.0015	-0.027	59.4
0.0007	-0.0053	-0.0015	-0.0233	59.4
0.0007	-0.0038	-0.0008	-0.0128	59.4
0.0007	-0.003	0	-0.0008	59.4
0.0007	-0.0038	0.0007	0.0232	59.4
0.0007	-0.003	-0.0015	0.0457	59.4
0	-0.0015	-0.0008	0.057	59.4
-0.0008	0	0.0007	0.0607	59.4
0	0	0.0007	0.0562	59.4
-0.0015	-0.003	0	0.045	59.4
-0.003	-0.0053	0.0015	0.0292	59.4
-0.0015	-0.003	0.0037	0.0232	59.4
0.0007	0.0007	0.0052	0.012	59.4
0.0015	0.0015	0.0067	0.0007	59.4
0.0007	0.0037	0.0082	-0.0053	59.4
0.0015	0.006	0.0052	-0.0128	59.4
0.0015	0.0075	0.0045	-0.015	59.4
0.0015	0.012	0.0082	-0.0128	59.4
0.0037	0.0142	0.0075	-0.0165	59.4
0.003	0.0097	0.0045	-0.0128	59.4
0.0015	0.0067	0.0022	-0.0091	59.4
0.0007	0.0052	0.0007	-0.0038	59.4
-0.0046	0.0015	-0.0015	0.0015	59.4
-0.0053	-0.0015	-0.0015	0.0052	59.3
-0.0075	-0.0015	0.0015	0.0037	59.3
-0.0083	-0.0038	0.0007	0.0037	59.3
-0.0053	-0.0053	0.0007	0.0045	59.3
-0.0046	-0.0068	0	-0.0015	59.3
0	-0.0068	0.0007	-0.0083	59.3
0.0022	-0.0053	-0.0008	-0.0075	59.3
0	-0.0053	-0.0008	-0.0015	59.3
0.0007	-0.0053	0.0015	0.0015	59.3
0.0015	-0.0046	-0.0008	0.003	59.3
0.0045	-0.0038	-0.0008	0.0045	59.3
0.003	-0.003	-0.0015	0.0067	59.3
0.0007	-0.0008	-0.0015	0.0105	59.3
0	-0.0015	-0.0008	0.0127	59.2
-0.0015	-0.003	0	0.0172	59.2
-0.003	-0.0023	-0.0023	0.021	59.2
-0.0023	-0.0023	-0.0046	0.0202	59.2
-0.003	-0.0038	-0.0046	0.0127	59.2
-0.0046	-0.0046	-0.0053	0.0082	59.2
-0.0046	-0.003	-0.0023	0.0082	59.2
-0.0015	-0.0046	-0.003	0.006	59.1
-0.0023	-0.0046	-0.0046	0.0045	59.1
-0.003	-0.0046	-0.003	0.0045	59.1
-0.0015	-0.003	-0.0015	0.0082	59.1
-0.003	-0.003	0.0007	0.0097	59.1
-0.003	-0.0008	0.0015	0.0112	59.1
-0.0015	0.0015	0.0015	0.0112	59.1
-0.0015	0.0015	0.0015	0.0112	59.1
-0.0008	0.0007	0.0015	0.0135	59.1
-0.0015	-0.0008	0.0007	0.012	59.1
-0.003	-0.003	0	0.0112	59.1
-0.0046	-0.0053	0.0007	0.012	59.1
-0.0023	-0.0015	0.0015	0.0112	59.1
-0.0015	-0.0008	0.0015	0.009	59.1
-0.0023	-0.003	-0.0008	0.012	59.1
-0.0015	-0.0038	0.0007	0.0142	59.1
-0.003	-0.0023	-0.0008	0.0075	59.1
-0.0038	-0.0015	-0.0038	-0.0075	59.1
-0.003	-0.0015	-0.0038	-0.0203	59.1
-0.0015	-0.0015	-0.003	-0.0308	59.1
0.0015	0.0015	-0.0008	-0.0383	59.1
0.0015	0.0022	-0.0008	-0.0428	59.1
0.0022	0	-0.0008	-0.048	59.1
0.0015	-0.003	0.0022	-0.0518	59.1
-0.0008	-0.0068	0.0045	-0.0503	59.1
-0.0023	-0.0105	0.0052	-0.0473	59.1
-0.003	-0.012	0.0045	-0.048	59.1
-0.0008	-0.0098	0.003	-0.0443	59.1
0	-0.0105	0.0045	-0.0353	59.1
0.0007	-0.0098	0.003	-0.0346	59.1
0.0015	-0.0068	0.0015	-0.0383	59.1
0.0007	-0.0075	0.0037	-0.0353	59.1
0.0007	-0.0053	0.003	-0.0315	59.1
0.0022	-0.0046	0.0037	-0.0315	59.1
0.003	-0.0015	0.0045	-0.0256	59.1
0.0007	0.0007	0.0045	-0.006	59.1
0.0015	0.0015	0.0037	0.009	59.1
0.0022	0.003	0.0022	0.0255	59.1
-0.0008	0.0037	0	0.0412	59.1
0	0.0045	0.0007	0.0517	59.1
-0.0008	0.0022	0.0022	0.0577	59.1
0	0.0007	0.003	0.0502	59.1
0.0015	0.0045	0.0045	0.0405	59.1
0.0015	0.0052	0.0015	0.033	59.1
0	0.0015	0.003	0.0247	59.1
-0.0015	0.0007	0.0022	0.0277	59.1
-0.0015	0.0015	0.0022	0.033	59.1
0	0.0015	0.0052	0.0307	59.1
0.0007	0.0007	0.0007	0.027	59.1
-0.0008	0.0007	0.0015	0.027	59.1
-0.0023	0	0.003	0.021	59.1
-0.0015	-0.0008	0.0007	0.0135	59.1
-0.0023	-0.0015	0.0015	0.0127	59.1
-0.003	-0.003	-0.0008	0.012	59.1
-0.003	-0.003	-0.0023	0.0195	59.1
-0.003	-0.0023	-0.003	0.024	59.1
-0.003	-0.003	-0.0015	0.0255	59.1
-0.0023	-0.003	0	0.0255	59.1
-0.0015	-0.0023	0	0.0232	59.1
-0.0046	-0.003	0.0007	0.024	59.1
-0.0046	-0.0023	0	0.024	59.1
-0.0038	-0.003	-0.003	0.0217	59.1
-0.003	-0.0038	-0.0008	0.0195	59.1
-0.0008	-0.003	0.0007	0.021	59.1
0.0007	-0.0053	0.0007	0.0232	59.1
0.0007	-0.0053	0	0.0232	59.1
0	-0.0053	-0.0008	0.0232	59.1
0.0007	-0.0053	0	0.024	59.1
0.0015	-0.003	0.003	0.0232	59
0.0007	-0.003	0.0045	0.0165	59
0.0007	-0.0008	0.0037	0.012	59
-0.0008	-0.0015	0.0052	0.0157	59
-0.0008	0.0015	0.003	0.012	59
-0.0015	0.0015	0.003	0.0037	59
-0.0015	-0.0008	0.003	-0.0008	59
-0.0008	-0.0015	0.0015	-0.0038	59
-0.0015	-0.0015	0.0007	-0.0075	59
-0.0008	-0.0008	0.0007	-0.012	59
0	-0.0015	0	-0.0158	58.9
-0.0023	-0.0038	-0.003	-0.0203	58.9
-0.0015	-0.0046	-0.0015	-0.021	58.9
-0.0015	-0.003	-0.0015	-0.0203	58.9
-0.0015	-0.0038	-0.0008	-0.0181	58.9
0	-0.0046	0.0007	-0.015	58.9
0.0007	-0.0053	0	-0.0105	58.9
0.0007	-0.0053	0	-0.0091	58.9
-0.0008	-0.0075	-0.0008	-0.015	58.9
-0.0008	-0.0091	0.0007	-0.0248	58.9
0.0007	-0.0091	0.0045	-0.0346	58.9
-0.0008	-0.0091	0.0022	-0.0368	58.9
-0.0008	-0.0075	0.0007	-0.0375	58.9
-0.0008	-0.006	0.0007	-0.033	58.9
0	-0.0046	-0.003	-0.0308	58.9
0.0037	-0.0053	-0.0008	-0.0308	58.9
0.0045	-0.0068	0.0007	-0.0278	58.9
0.003	-0.0068	-0.0015	-0.0225	58.9
0.003	-0.0075	0	-0.0263	58.9
0	-0.0068	0.0015	-0.03	58.9
-0.003	-0.0083	0.0022	-0.0225	58.9
-0.0046	-0.0091	0.0015	-0.0128	58.9
-0.0038	-0.0053	0	-0.0046	58.9
-0.0038	-0.0053	0	0.003	58.9
-0.0046	-0.0038	0.0007	0.009	58.9
-0.0046	-0.0015	0.0015	0.012	58.9
-0.0046	-0.0015	0.0015	0.0157	58.9
-0.0046	-0.0015	0.0007	0.0195	58.9
-0.003	-0.0046	0.0007	0.015	58.9
-0.0023	-0.0053	-0.0008	0.0127	58.9
-0.0023	-0.003	-0.003	0.0082	58.9
-0.0008	0.0007	-0.0023	0.0015	58.9
0	0.0045	0.0007	-0.0023	58.9
0.0007	0.006	0.0015	-0.0068	58.9
0.0007	0.0082	0.0022	-0.0105	58.9
0	0.009	0.0052	-0.0165	58.9
-0.0015	0.0067	0.003	-0.0218	58.9
-0.0015	0.006	0.0015	-0.027	58.9
-0.0015	0.0067	0.0007	-0.0256	58.9
-0.0023	0.0082	-0.0015	-0.0195	58.9
-0.0008	0.0082	-0.0015	-0.0188	58.9
-0.0008	0.0067	-0.0015	-0.0203	58.9
0	0.0075	-0.0015	-0.0195	58.9
0.003	0.0075	-0.0008	-0.0143	58.9
0.0022	0.0082	-0.0008	-0.0083	58.9
0.003	0.009	0.0022	-0.0038	58.9
0.003	0.0105	0.003	0.0015	58.9
0.0045	0.012	0.0015	0.0052	58.9
0.003	0.0127	0.0007	0.0067	58.9
-0.0008	0.0097	-0.0015	0.0045	58.9
0.0007	0.0067	-0.0023	-0.0046	58.9
-0.0008	0.0037	-0.003	-0.0068	58.9
-0.0015	0.0015	-0.0015	-0.0091	58.9
-0.003	-0.0046	-0.0008	-0.0165	58.9
-0.0046	-0.0091	-0.0008	-0.015	58.9
-0.0023	-0.012	0.0015	-0.0091	58.9
-0.0015	-0.0173	0.0045	-0.012	58.9
-0.0008	-0.0203	0.0052	-0.0181	58.9
0.0007	-0.0218	0.003	-0.0203	58.9
0.0007	-0.021	0.0045	-0.0158	58.9
-0.0046	-0.024	0.003	0.009	58.9
-0.0068	-0.0278	0.0007	0.03	58.9
-0.0068	-0.021	0.0007	0.0367	58.9
-0.0053	-0.0143	0.0007	0.0397	58.9
-0.0038	-0.012	0.0007	0.0292	58.9
-0.003	-0.0068	0.0015	0.0232	58.9
-0.003	-0.003	0.0015	0.0232	58.9
-0.0015	-0.0053	0	0.0202	58.9
0	-0.0046	0.0007	0.021	58.9
0	-0.003	0.0015	0.0255	58.9
0.0007	-0.0008	0.0015	0.0307	58.9
0.0015	0.0015	0.0045	0.0322	58.9
0.0022	-0.0008	0.003	0.0307	58.9
0.0015	-0.003	0.0015	0.0307	58.9
-0.0008	-0.0023	0.003	0.0285	58.9
-0.0023	0.0007	0.003	0.0202	58.9
-0.0023	0.0022	0.0045	0.0015	58.9
-0.003	0.0045	0.003	-0.0105	58.9
0	0.006	0	-0.0143	58.9
0.0007	0.0052	0.0007	-0.0105	58.9
-0.0015	0.0082	0.0022	0.0022	58.9
-0.0008	0.009	0.0015	0.009	58.9
0	0.0082	0.0015	0.0142	58.8
0.0007	0.009	0.0015	0.0172	58.8
0.0022	0.0075	0.0015	0.0172	58.8
0.0015	0.0067	0.0007	0.018	58.8
0.0015	0.0052	0	0.0165	58.8
0.0007	0.003	-0.0008	0.0112	58.8
0	0	0	0.0022	58.8
-0.0008	-0.0015	0	-0.003	58.8
0	-0.0008	-0.0008	0.0007	58.8
0.0007	-0.0023	-0.0015	0.0022	58.8
-0.0008	-0.0046	-0.0046	-0.0008	58.9
0	-0.0068	-0.003	-0.0008	58.9
0.0007	-0.0068	-0.003	-0.0008	58.9
-0.0015	-0.0053	-0.0038	0.0067	58.9
0.0007	-0.0046	0	0.0195	58.9
0.003	-0.0053	0.0007	0.0315	58.9
0.0015	-0.0068	0.0007	0.0435	58.9
0.0007	-0.0053	0.003	0.0555	58.9
0	-0.0038	0.0052	0.0577	58.9
0.0007	-0.006	0.003	0.054	58.9
-0.0008	-0.0068	0.0015	0.0465	58.9
-0.0015	-0.0053	0.003	0.0337	58.9
0	-0.0075	0.003	0.0217	58.9
-0.0008	-0.0083	0.003	0.0165	58.9
0.0007	-0.0068	0.0015	0.0075	58.9
0	-0.0046	0.0015	-0.0038	58.9
-0.0008	-0.0038	0.0045	-0.0128	58.9
0.0007	-0.0053	0.0045	-0.0195	58.9
-0.0008	-0.0068	0.0022	-0.0233	58.9
0.0007	-0.006	0.003	-0.0188	58.9
0	-0.0046	0.003	-0.0113	58.9
-0.0023	-0.006	0.0015	-0.0143	58.9
-0.0023	-0.0038	0.0015	-0.0233	58.9
-0.003	-0.0015	0.0015	-0.0308	58.9
-0.0046	-0.0038	0.0015	-0.0398	58.9
-0.0046	-0.0023	0.0022	-0.0465	58.9
-0.003	-0.0015	0.0045	-0.0518	58.9
-0.0023	-0.0015	0.0052	-0.0555	58.9
-0.0015	-0.0008	0.0052	-0.054	58.9
-0.0015	-0.0008	0.0045	-0.0503	58.9
-0.0023	0	0.0015	-0.0473	58.8
-0.0038	0	0.003	-0.0473	58.8
-0.0046	0	0.0015	-0.042	58.8
-0.003	-0.0008	0	-0.0383	58.8
-0.0015	-0.0015	0.0015	-0.0368	58.8
-0.0015	-0.0015	-0.0008	-0.0361	58.8
0	-0.0015	-0.0008	-0.0398	58.8
0.003	0	-0.0008	-0.0383	58.8
0.003	0.0015	-0.0008	-0.0256	58.8
0	0.0037	-0.0015	-0.0143	58.8
-0.0008	0.003	-0.003	-0.0091	58.8
-0.0008	0.0007	-0.003	-0.0053	58.8
-0.0015	-0.0008	-0.0046	0.0022	58.8
-0.0015	0.0007	-0.0015	0.012	58.8
-0.0008	0.0007	0.0015	0.0195	58.8
-0.0015	0.0022	0.0022	0.0277	58.8
-0.0008	0.0045	0.003	0.0315	58.8
-0.0008	0.0052	0.0015	0.0345	58.8
-0.0046	0.006	-0.0008	0.0367	58.8
-0.003	0.0052	-0.0008	0.036	58.8
-0.0008	0.0082	-0.0008	0.0405	58.8
-0.0015	0.009	-0.003	0.042	58.8
0	0.009	-0.0008	0.0442	58.8
0.0007	0.0082	0	0.048	58.8
0.0007	0.0052	-0.0015	0.0495	58.8
-0.0008	0.0015	0	0.0487	58.8
-0.0008	-0.0008	0.0015	0.0442	58.8
-0.0008	-0.0015	0.003	0.042	58.8
-0.0015	-0.003	0.0045	0.0412	58.8
-0.003	-0.0015	0.0045	0.0405	58.8
-0.0023	-0.0023	0.0015	0.0405	58.8
-0.0015	-0.0038	0.003	0.0382	58.8
-0.003	-0.0053	0.003	0.0352	58.8
-0.0023	-0.0068	0.0045	0.0352	58.8
0	-0.0046	0.006	0.0352	58.8
-0.0015	-0.0015	0.0045	0.03	58.8
-0.003	-0.0053	0.0022	0.0202	58.8
-0.003	-0.0083	0.0007	0.0135	58.8
-0.0015	-0.0053	0	0.0067	58.8
-0.0008	-0.0023	-0.0008	0.0052	58.8
-0.0008	-0.0038	-0.0015	0.0022	58.8
0.0007	-0.0038	-0.0015	0.0045	58.8
0.0007	-0.0038	-0.0015	0.0075	58.8
-0.0008	-0.0068	-0.0015	0.003	58.8
-0.0015	-0.0105	-0.0015	-0.0091	58.8
-0.0038	-0.0113	0.0007	-0.0143	58.8
-0.003	-0.0105	0.0015	-0.021	58.8
-0.0008	-0.0105	0.0015	-0.027	58.8
0	-0.0113	0.0022	-0.0248	58.8
0.0007	-0.0098	0.0015	-0.0248	58.8
0.0007	-0.0105	0.0022	-0.033	58.8
0	-0.0098	0.0045	-0.045	58.8
-0.0008	-0.0068	0.003	-0.0525	58.8
-0.0015	-0.0046	0.0045	-0.0593	58.8
0	-0.0046	0.003	-0.0608	58.8
0.0007	-0.003	0.0015	-0.0518	58.7
-0.0015	-0.0053	0.0007	-0.0458	58.7
-0.0038	-0.006	0.0007	-0.0398	58.7
-0.0038	-0.0046	0.0015	-0.0218	58.7
-0.003	-0.0068	0.0007	0.0097	58.7
-0.003	-0.0075	-0.0015	0.0292	58.7
-0.003	-0.0068	-0.003	0.0315	58.7
-0.0008	-0.0083	-0.0015	0.0307	58.7
0	-0.0091	0.0007	0.024	58.7
0	-0.0105	0.0007	0.024	58.7
0.0007	-0.0083	0.0007	0.0187	58.7
0.0007	-0.0091	0.0015	0.0105	58.7
0.0015	-0.0105	0.0007	0.0052	58.7
0.003	-0.0091	0.0007	0.006	58.7
0.003	-0.0075	0.0015	0.0097	58.7
0.0022	-0.0015	-0.0008	0.0082	58.7
0.0022	0.0015	0.0022	0.006	58.7
0.0015	0.0067	0.0022	0.0015	58.7
0	0.0105	0	-0.0023	58.7
0.0007	0.0105	-0.0008	-0.006	58.7
-0.0008	0.009	-0.0023	-0.0128	58.7
-0.0008	0.0075	-0.0008	-0.0128	58.7
0.0007	0.0067	-0.0015	-0.0068	58.7
0.0007	0.0045	-0.0015	-0.003	58.7
0.003	0.0052	0.0007	-0.0091	58.7
0.003	0.0045	0.0007	-0.0173	58.6
0.0015	0.003	-0.0008	-0.0195	58.6
0.003	0.0015	-0.0008	-0.0158	58.6
0.0007	0.0022	0	-0.003	58.6
0.0007	0.0015	-0.0015	0.0007	58.6
0.0007	0.0015	-0.0008	0.0015	58.6
0.0007	0.003	0.0007	0.006	58.6
0	0.0052	0.0007	0.0045	58.6
-0.0015	0.0067	-0.0008	0.006	58.6
-0.0008	0.012	-0.0015	0.003	58.6
-0.003	0.0165	-0.0015	-0.0023	58.6
-0.0038	0.0157	-0.0008	-0.006	58.6
-0.0015	0.012	0	-0.0083	58.6
-0.0008	0.0067	0.0015	-0.0105	58.6
0.0007	0.0037	0.0015	-0.0098	58.6
0.0022	-0.0015	0.0015	-0.003	58.6
0.0022	-0.006	0.003	0.0007	58.6
-0.0015	-0.0128	0.0022	0.0045	58.6
-0.003	-0.0195	0.0007	0.0142	58.6
-0.0046	-0.0203	-0.0008	0.0255	58.6
-0.0053	-0.0195	-0.0015	0.0247	58.6
-0.003	-0.0165	0	0.0165	58.6
-0.0008	-0.0135	-0.0008	0.0052	58.6
-0.0008	-0.0105	0	-0.006	58.6
-0.0015	-0.0083	0.0007	-0.0075	58.6
0	-0.0068	-0.0008	-0.0053	58.6
-0.0015	-0.0068	0.0015	-0.0008	58.6
-0.003	-0.0068	0.0015	0.003	58.6
-0.003	-0.0091	0.0015	0.006	58.6
-0.0046	-0.0098	0.003	0.009	58.6
-0.0068	-0.0091	0.0015	0.012	58.6
-0.0068	-0.0098	0.0015	0.0075	58.6
-0.0046	-0.0068	0.0007	0.0052	58.6
-0.0008	-0.0038	0	0.0097	58.6
0	-0.0008	-0.0008	0.003	58.6
0	0.0015	0.0007	-0.003	58.5
0.0022	0.0015	0.0015	-0.0038	58.5
0.0022	0.0045	0.0022	-0.0053	58.5
0.0022	0.0045	0.0015	-0.0068	58.5
0.0015	0.0045	0.0007	-0.0053	58.5
-0.0015	0.003	0.0015	-0.006	58.5
-0.003	0.0022	0.003	-0.003	58.5
-0.0015	0.0015	0.0045	0	58.5
-0.003	0	0.0037	0	58.5
-0.003	-0.003	0.0007	-0.0046	58.5
-0.0046	-0.0053	-0.0008	-0.0023	58.5
-0.0053	-0.0068	0.003	0.0052	58.5
-0.0015	-0.0068	0.0045	0.003	58.5
-0.0008	-0.0068	0.0045	0.0037	58.5
0.0007	-0.0068	0.0045	0.0052	58.5
0	-0.006	0.0037	0.003	58.5
-0.0015	-0.006	0.003	-0.0046	58.5
-0.0015	-0.0068	0.0007	-0.0068	58.5
-0.0015	-0.0053	0.0007	-0.0053	58.5
-0.0008	-0.003	0.0015	-0.0098	58.5
-0.003	-0.0015	0.0015	-0.0105	58.5
-0.0046	-0.0008	0.0007	-0.0091	58.5
-0.003	0	0.0015	-0.012	58.5
-0.0015	0.003	0.003	-0.0181	58.5
0	0.0075	0.0022	-0.0203	58.5
0	0.0082	0.0037	-0.0256	58.5
0.0007	0.0112	0.003	-0.0285	58.5
-0.0008	0.0127	0.0015	-0.03	58.5
-0.0015	0.012	0.0045	-0.0353	58.5
0	0.0097	0.0045	-0.0353	58.5
-0.0008	0.0082	0.003	-0.0293	58.5
0	0.006	0.0007	-0.0203	58.5
0	0.003	0.0007	-0.0173	58.5
0.0007	0.0037	0.0015	-0.0188	58.5
0.0007	0.0015	0.0015	-0.0143	58.5
-0.0008	0.0007	0.0015	-0.0068	58.4
-0.0015	0.0007	0.0007	-0.0023	58.4
-0.0023	-0.0015	0.0007	-0.0008	58.4
-0.003	-0.0046	-0.0008	-0.0008	58.4
-0.0015	-0.0046	-0.0008	-0.0015	58.4
-0.0008	-0.0046	0	0.0067	58.4
0.0015	-0.0046	0.0007	0.012	58.4
0.0045	-0.0023	-0.0008	0.0105	58.4
0.0022	-0.0068	0	0.0105	58.4
0.0015	-0.0075	0.0015	0.006	58.4
0.0022	-0.0083	0.0015	0.0052	58.3
0	-0.0098	0.0037	0.0105	58.3
0.0007	-0.0091	0.003	0.0135	58.3
0.0007	-0.0105	0	0.0165	58.3
-0.0008	-0.0105	0	0.021	58.3
0.0007	-0.0098	-0.0008	0.0217	58.3
0.0007	-0.0046	-0.0015	0.0247	58.3
0.0022	-0.0008	0.0007	0.0232	58.3
0.0015	-0.0023	-0.0008	0.0217	58.3
0.0015	-0.0053	-0.0008	0.024	58.2
0.0007	-0.0083	0.0007	0.0255	58.2
-0.0008	-0.0075	-0.0008	0.0247	58.2
0.0015	-0.0068	0.0007	0.0217	58.2
-0.0015	-0.0091	-0.0015	0.024	58.2
-0.0038	-0.0091	-0.003	0.021	58.2
-0.0046	-0.0091	-0.0008	0.0202	58.1
-0.003	-0.0091	-0.0015	0.0217	58.1
-0.0023	-0.0083	0.0007	0.015	58.1
-0.0038	-0.0091	0.0007	0.012	58.1
-0.003	-0.0091	-0.0008	0.0007	58.1
-0.003	-0.0053	-0.0008	-0.0098	58
-0.0023	-0.0046	-0.0008	-0.0113	58
-0.0015	-0.0046	0.0007	-0.0128	58
-0.0015	-0.0023	0.0015	-0.015	58
0.0007	0.0007	0.0007	-0.0165	58
0	-0.0008	-0.0008	-0.0105	58
-0.003	-0.003	-0.0015	0.0082	58
-0.0038	-0.0015	-0.0015	0.0292	58
-0.0046	0.0007	-0.0023	0.042	58
-0.003	0.0052	0.0015	0.0495	58
-0.003	0.0045	0.0022	0.0532	58
-0.0038	-0.0008	0.0022	0.0472	58
-0.0023	0	0.006	0.0405	58
-0.0015	0.0037	0.0015	0.0315	58
-0.0015	0.0045	-0.0008	0.0225	58
-0.0046	-0.0015	-0.0038	0.0225	58
-0.0053	-0.0015	-0.0023	0.0307	58
-0.0046	0.0007	0.0022	0.0345	58
-0.003	0.0007	0.003	0.0217	57.9
-0.0015	0.0015	0.0052	0.009	57.9
0	0.0015	0.0045	0.0067	57.9
0.0015	0.0015	0.0037	0.0037	57.9
0.0045	0.003	0.0015	0.0067	57.9
0.003	0.0037	0.0007	0.012	57.9
0.0022	0.0037	-0.0015	0.0127	57.9
0.003	0.0015	-0.0008	0.009	57.9
0.003	0.003	0.0015	0.003	57.9
0.0007	0.0015	0.0007	0.0015	57.8
0.0007	0.0015	0.0007	-0.0068	57.8
-0.0015	0	-0.0015	-0.0195	57.8
-0.0015	-0.0008	0.0007	-0.0308	57.8
-0.0015	-0.003	0.0007	-0.0368	57.8
-0.0008	-0.003	0.0037	-0.0346	57.8
-0.0015	-0.003	0.0037	-0.0315	57.8
-0.0053	-0.0083	0.0007	-0.0278	57.7
-0.0053	-0.0083	0.0022	-0.0203	57.7
-0.0046	-0.0083	-0.0015	-0.0143	57.7
-0.0053	-0.0068	-0.0008	-0.0135	57.7
-0.0038	-0.0083	0.0015	-0.0165	57.7
-0.003	-0.0105	0.0037	-0.0158	57.7
-0.0015	-0.0105	0.003	-0.0158	57.6
0.0007	-0.0098	0.0015	-0.0181	57.6
0.0015	-0.0068	0.003	-0.0188	57.6
0.0015	-0.0038	0.0015	-0.0158	57.6
0.003	-0.0023	0.003	-0.0158	57.6
0.0045	-0.0015	0.0022	-0.0165	57.6
0.0022	0	0.0015	-0.0158	57.6
0.0015	0.0007	0.003	-0.0143	57.6
0.0015	0.0015	0	-0.012	57.6
0.0015	0.003	-0.0008	-0.0083	57.6
0.0007	0.0015	-0.0008	-0.0008	57.6
-0.0008	0.0015	0.0007	0.0105	57.6
0	0.003	0.0037	0.0142	57.5
-0.0008	0.0037	0.0045	0.024	57.5
0.0015	0.0045	0.003	0.0345	57.5
0	0.0045	0.0007	0.0307	57.5
-0.0008	0.003	-0.0015	0.0277	57.5
-0.0015	0.0037	0	0.027	57.5
-0.0015	0.0045	0	0.0217	57.5
-0.0008	0	-0.0023	0.015	57.4
-0.0008	-0.0008	-0.003	0.0045	57.4
-0.0015	0.0015	-0.0008	-0.0083	57.4
-0.0015	0.0022	-0.0015	-0.0143	57.4
-0.003	0.0067	0	-0.0143	57.4
-0.0015	0.009	0.003	-0.0053	57.4
-0.0008	0.009	0.0007	0.0037	57.3
0	0.0082	-0.0008	0.0082	57.3
0	0.0067	-0.003	0.0105	57.3
-0.0015	0.0015	-0.0053	0.0112	57.3
-0.0015	0.0007	-0.003	0.0142	57.3
-0.0008	-0.0015	-0.003	0.0202	57.3
-0.0015	-0.0015	-0.0015	0.0165	57.3
-0.0015	-0.0015	-0.0008	0.0142	57.2
-0.0015	-0.003	0.0015	0.012	57.2
0.0007	-0.0008	0.003	0.009	57.2
0.0015	0	0.0022	0.012	57.2
-0.0008	0.0015	0.0015	0.0105	57.2
0.0007	0.006	0.0015	0.0157	57.2
0.0022	0.0067	0.0022	0.0195	57.2
0.0007	0.0015	0.0015	0.0157	57.1
0.0015	-0.0068	0.0022	0.0052	57.1
0.003	-0.0113	0.003	-0.003	57.1
0.0015	-0.0158	0.0015	-0.0083	57.1
0.0015	-0.0218	0.0015	-0.0143	57.1
0.0015	-0.0218	0.0007	-0.0165	57.1
0.0007	-0.0195	0.0015	-0.0181	57.1
-0.0008	-0.0143	0.0037	-0.0158	57.1
-0.0008	-0.0068	0.0022	-0.0091	57.1
0.0007	-0.003	0	-0.0046	57.1
-0.0008	-0.0008	0	-0.0046	57
-0.0038	0.0007	-0.0008	-0.0053	57
-0.003	0.0037	0	-0.0046	57
0.0007	0.003	0.003	-0.003	57
0.0007	0.0007	0.0037	-0.0038	57
0.0007	0	0.0037	-0.0053	57
-0.0008	-0.0053	0.0045	-0.006	56.9
-0.0015	-0.0091	0.0037	-0.0046	56.9
-0.003	-0.0091	0.0007	-0.0046	56.9
-0.0046	-0.0105	0.003	-0.0068	56.9
-0.0046	-0.0113	0.003	-0.0083	56.9
-0.0038	-0.0113	0	-0.0128	56.8
-0.003	-0.0083	0	-0.0143	56.8
-0.0023	-0.0046	0.0015	-0.0143	56.8
-0.0015	-0.0046	0.0015	-0.0143	56.8
-0.0015	-0.0038	0.0007	-0.012	56.8
-0.0008	-0.003	0	-0.0015	56.8
0	-0.003	-0.0008	0.0082	56.8
0.0015	-0.0053	-0.0008	0.0127	56.8
0.0007	-0.006	0	0.012	56.8
0.0007	-0.006	0.0015	0.012	56.7
0.0007	-0.0083	0.003	0.0105	56.7
-0.003	-0.0053	0.0015	0.003	56.7
-0.0046	-0.0053	0.0007	-0.003	56.7
-0.0046	-0.0068	-0.0008	0.0007	56.7
-0.0053	-0.0046	-0.0008	0.0082	56.7
-0.0046	-0.0046	0.0007	0.0112	56.7
-0.0023	-0.003	0.0007	0.0112	56.7
-0.0015	-0.003	-0.0008	0.0067	56.7
-0.0046	-0.0053	0	0.0037	56.7
-0.003	-0.003	0.0015	0.0045	56.6
-0.006	-0.0046	0.0022	-0.0008	56.6
-0.0083	-0.0008	0.003	-0.0015	56.6
-0.0068	0.003	0.0037	-0.0015	56.6
-0.0046	0.0052	0.0045	-0.0038	56.6
-0.0023	0.009	0.0045	-0.0023	56.6
-0.003	0.0097	0.0045	-0.0008	56.6
-0.0008	0.0097	0.003	-0.0008	56.6
0.0007	0.0097	0.0045	-0.0046	56.6
0.0015	0.009	0.0052	-0.0068	56.5
0.0022	0.0052	0.0052	-0.0053	56.5
0.003	0.0067	0.0037	-0.0053	56.5
0.0045	0.0075	0.003	-0.0015	56.5
0.0037	0.0067	0.0007	0.0015	56.5
0.0022	0.0082	-0.0008	0.0052	56.5
0.003	0.0082	0.0007	0.0105	56.5
0.0045	0.0097	-0.0015	0.0052	56.5
0.0067	0.012	-0.0015	-0.0008	56.5
0.0067	0.0105	-0.0023	-0.0053	56.5
0.006	0.0082	-0.0015	-0.0075	56.4
0.0052	0.0052	-0.0015	-0.0053	56.4
0.0045	0	0	0	56.4
0.0037	-0.0053	0.0007	0.0007	56.4
0.0007	-0.0098	-0.0008	-0.0046	56.4
0.0007	-0.012	-0.0015	-0.003	56.4
0.0015	-0.0135	-0.0046	0.0015	56.4
-0.0015	-0.0173	-0.0046	-0.0015	56.4
-0.0046	-0.0181	-0.0015	-0.0083	56.4
-0.006	-0.0165	0.0007	-0.0098	56.4
-0.006	-0.0143	0.0007	-0.0075	56.3
-0.0083	-0.012	0.0007	-0.0068	56.3
-0.0083	-0.0083	-0.0008	-0.0053	56.3
-0.0068	-0.0068	-0.0015	-0.003	56.3
-0.0053	-0.0068	0.0015	-0.0008	56.3
-0.0038	-0.0046	0.0022	0.0007	56.3
-0.003	-0.0046	0.003	-0.0008	56.3
-0.0023	-0.0038	0.003	-0.0008	56.3
-0.0008	-0.0038	0.0022	0.0007	56.3
-0.0008	-0.003	0.003	0.0007	56.3
-0.0015	-0.0015	0.0015	0.0015	56.2
-0.003	-0.0015	0.0007	-0.0023	56.2
-0.0008	0.0015	0.0007	-0.0015	56.2
0.0022	0.003	-0.0015	0	56.2
0.0015	0.003	0	0.0015	56.2
0.0015	0.0007	0.0015	0.0007	56.2
0	-0.003	0	-0.0015	56.2
-0.0008	-0.0053	-0.0008	0.0015	56.2
0.0007	-0.006	-0.0008	0.003	56.2
-0.0008	-0.0053	-0.0023	0.009	56.2
0.0007	-0.003	-0.003	0.0112	56.2
-0.0008	-0.0015	-0.0053	0.0067	56.2
-0.0008	-0.003	-0.0038	0.0067	56.2
0.0007	-0.0015	-0.003	0.009	56.2
-0.0008	-0.0023	-0.0038	0.0105	56.2
0.0007	-0.0015	-0.0008	0.0067	56.2
-0.0008	-0.0015	0	0.0045	56.2
0.0015	-0.0015	-0.0008	0.0015	56.2
0.003	-0.0015	0.0007	-0.0053	56.2
0.0007	-0.0046	-0.0008	-0.0053	56.2
0.0015	-0.0046	-0.003	-0.0053	56.2
0.003	-0.0046	-0.003	-0.003	56.2
0.003	-0.006	-0.0046	0.0007	56.1
0.0015	-0.0046	-0.0038	-0.003	56.1
0.003	-0.0015	-0.0023	-0.0068	56.1
0.0045	-0.0023	0	-0.0098	56.1
0.0015	-0.0023	0	-0.0128	56.1
0	-0.0015	0.0007	-0.0143	56.1
-0.0023	-0.0008	0.0037	-0.0105	56.1
-0.0015	0.0007	0.003	-0.006	56.1
-0.0008	-0.0008	0.0022	-0.003	56.1
-0.0015	-0.0015	0.0007	0.0007	56.1
-0.0023	-0.0015	0.0015	0.006	56.1
-0.003	-0.0008	0.0015	0.0105	56.1
-0.0046	-0.0023	0.0015	0.0105	56.1
-0.0053	-0.0046	0.003	0.0105	56
-0.003	-0.0015	0.0037	0.012	56
-0.0015	0	0.003	0.009	56
-0.003	0.0022	0.0045	0.0067	56
-0.003	0.0015	0.0067	0.0037	56
-0.0015	-0.0008	0.0052	0.0037	56
-0.0008	0.0022	0.0082	0.0105	56
0.0007	0.0022	0.0052	0.009	55.9
-0.0008	0.0007	0.0037	0.0105	55.9
-0.0008	-0.0015	0.003	0.0157	55.9
0	-0.0023	0.003	0.0157	55.9
-0.0008	-0.003	0.0052	0.0165	55.9
-0.0008	-0.0046	0.003	0.015	55.9
-0.0008	-0.0068	0.0037	0.0135	55.9
-0.003	-0.0091	0.0022	0.0195	55.9
-0.003	-0.006	0.0022	0.0217	55.9
-0.0023	-0.003	0.003	0.0157	55.9
-0.0038	-0.0038	0.0015	0.0165	55.9
-0.0038	-0.0008	0.0007	0.0172	55.9
-0.003	0	-0.0008	0.0105	55.9
-0.0023	-0.0015	0.0015	0.003	55.9
-0.0015	0	0.0007	-0.006	55.9
0	-0.0008	0.0007	-0.0105	55.9
0.0007	0.0007	0.0015	-0.0128	55.9
0.0007	0.0022	0.0007	-0.012	55.9
-0.0008	0.0007	0	-0.0098	55.9
-0.0038	0.0007	0.0022	-0.003	55.9
-0.0038	0.0022	0.0022	0.0037	55.8
-0.003	0.003	0.0015	0.0007	55.8
-0.003	0.0015	0.003	0.0007	55.8
-0.0023	0.003	0.0022	0.0015	55.8
-0.003	0.0037	0.0022	-0.003	55.8
-0.0046	0.0045	0	-0.0181	55.8
-0.003	0.0052	-0.0008	-0.0256	55.8
-0.0023	0.0037	-0.0015	-0.0256	55.8
-0.003	0.0022	-0.0008	-0.0256	55.8
-0.0015	0.0007	0.0007	-0.0195	55.8
-0.0038	0.0007	-0.0008	-0.0105	55.8
-0.0038	-0.0008	0.0007	-0.003	55.8
0	-0.0023	0.0015	-0.0008	55.8
0.0015	-0.0015	0.0015	0.0007	55.8
0.0015	-0.0008	0.0007	-0.0015	55.8
0.0007	0.0007	0	-0.0046	55.8
-0.0008	0.0015	-0.0008	-0.0068	55.8
-0.0015	-0.0008	-0.0008	-0.0143	55.8
-0.0015	-0.0068	-0.003	-0.0203	55.7
-0.0023	-0.0105	-0.0008	-0.0233	55.7
-0.0015	-0.0113	0.0015	-0.0225	55.7
0.0007	-0.0083	0.0015	-0.0188	55.7
0.0007	-0.0046	0.0015	-0.0181	55.7
0.0007	-0.003	0.0007	-0.015	55.7
0.0007	-0.0023	0.0007	-0.0068	55.7
0.0015	-0.003	-0.0023	0.0015	55.7
0	-0.0046	-0.003	0.0067	55.7
0.0007	-0.0038	-0.0015	0.015	55.7
0.0007	-0.0046	-0.003	0.0255	55.6
0.0015	-0.0053	-0.0015	0.0315	55.6
0.0015	-0.0053	0	0.0345	55.6
0	-0.0015	0	0.0292	55.6
0.0015	-0.0015	0	0.0217	55.6
0.0015	-0.003	0	0.0172	55.6
0.003	0.0007	0.0015	0.0127	55.6
0.0052	0.003	0.0007	0.0067	55.6
0.0045	0.006	0.0007	0.0045	55.6
0.0037	0.006	0.0022	0.006	55.6
0.0022	0.0045	0	0.009	55.5
0.003	0.0045	0.0007	0.0105	55.5
0.0037	0.003	0.0022	0.0045	55.5
0.0015	0.0022	0.0015	-0.0046	55.5
0.0015	0.0037	0.003	-0.006	55.5
0.0022	0.003	0.003	-0.0046	55.5
0.0037	0	0.0045	0	55.5
0.003	-0.0038	0.0022	0	55.5
0	-0.0046	0	-0.0023	55.5
-0.0008	-0.0038	0.0007	0.0007	55.5
-0.0015	-0.0083	0.0007	0.003	55.4
-0.0023	-0.012	0.0022	0.0075	55.4
-0.003	-0.0113	0.0015	0.0105	55.4
-0.0053	-0.0128	0.003	0.0157	55.4
-0.0053	-0.0105	0.003	0.0195	55.4
-0.0053	-0.0068	0.003	0.0165	55.4
-0.003	-0.0008	0.0037	0.0142	55.4
0.0007	0.0022	0.003	0.0112	55.4
-0.0008	0.0015	0.0022	0.0082	55.4
-0.003	0.003	0.0007	0.0045	55.4
-0.003	0.0022	0.0007	0.0007	55.3
-0.0015	0.0015	-0.0008	-0.0023	55.3
-0.0008	0.0007	0.0007	-0.003	55.3
0.0015	-0.0015	0	-0.0008	55.3
0.0015	-0.0053	0.0015	0.0007	55.3
0.0015	-0.0075	0.0015	0.003	55.3
0.0007	-0.0128	0.0007	0.0052	55.3
-0.0015	-0.0165	0.0007	0.0075	55.3
0.0015	-0.0173	0.0007	0.0082	55.3
0.0015	-0.0165	0.0015	0.003	55.3
-0.0015	-0.0143	-0.0008	-0.0008	55.3
-0.0015	-0.0143	0	-0.003	55.3
-0.0053	-0.012	-0.0015	-0.0105	55.3
-0.0068	-0.0083	-0.0008	-0.015	55.3
-0.0046	-0.0075	0.0007	-0.0105	55.3
-0.0075	-0.0046	-0.0015	-0.006	55.2
-0.0083	-0.0038	0.0015	-0.0015	55.2
-0.0091	-0.003	-0.0008	0.003	55.2
-0.0068	0.0037	-0.0008	0.0067	55.2
-0.0038	0.0067	-0.0015	0.0112	55.2
-0.0038	0.006	-0.0008	0.0142	55.2
-0.0015	0.0052	0.0015	0.0127	55.2
-0.0015	0.0022	0.0015	0.0165	55.1
-0.003	-0.0008	0	0.0232	55.1
-0.0015	-0.0023	-0.0008	0.024	55.1
-0.003	-0.0053	0.0015	0.0225	55.1
-0.0015	-0.0053	0.0022	0.0165	55.1
0	-0.0091	0.0045	0.0172	55.1
-0.0015	-0.0173	0.0037	0.0202	55.1
-0.0008	-0.0143	0.0052	0.021	55.1
0.0007	-0.0083	0.0052	0.021	55.1
-0.0008	-0.0038	0.003	0.015	55.1
-0.0023	0.0015	0.0015	0.012	55.1
-0.0015	0.0015	0.0007	0.0142	55.1
-0.0008	0.0045	0.0007	0.0165	55.1
0.0007	0.0052	0.0015	0.0217	55.1
0.0007	0.0015	0.0007	0.0217	55.1
0	0.0007	-0.0023	0.0195	55.1
0.0015	0.0015	-0.0008	0.0105	55.1
0.0022	0.0052	0.0015	0.0052	55.1
0.0015	0.0037	0.0015	0.0067	55.1
0.0007	-0.0008	0.0037	0.0045	55.1
0.0015	0.0007	0.0007	0.0045	55
-0.0008	-0.0008	0.0022	0.0052	55
-0.0015	-0.0008	0.003	0.0082	55
-0.0015	0.0007	0.003	0.0157	55
-0.003	-0.0008	0.003	0.009	55
0	-0.0015	0.0015	-0.0158	55
0.0022	-0.0038	0.0037	-0.024	55
0.003	-0.0038	0.0015	-0.0256	55
0.0037	-0.006	0.0007	-0.0293	55
0.003	-0.0068	0.0007	-0.0323	55
0.0015	-0.0046	0.0015	-0.0458	55
0.0007	-0.0038	0.0022	-0.0511	55
-0.0008	0	0.0007	-0.0525	55
0.0007	0	0	-0.0503	55
0.0015	0.0007	0	-0.0443	55
-0.0008	0.0015	0.003	-0.0368	55
-0.0015	0.003	0.0015	-0.0203	55
0	0.0075	0.003	-0.0053	55
0	0.0082	0.003	0.0052	55
-0.0008	0.0067	0.0007	0.0105	55
0	0.0067	0	0.0127	55
0.0007	0.0037	-0.003	0.0172	55
0.0007	-0.0008	-0.0015	0.0195	55
-0.0008	-0.0023	-0.0015	0.0195	55
0	-0.0015	-0.0038	0.0195	55
0.0007	-0.003	-0.003	0.0127	55
-0.0015	-0.003	-0.003	0.0075	55
0	-0.0008	-0.0053	0.0067	55
-0.0008	0	-0.0053	0.0082	55
-0.0008	0.0015	-0.0046	0.0067	55
-0.0015	0.003	-0.003	0.0045	55
-0.0015	0.0052	-0.0008	0.0067	55
-0.003	0.0052	0.0007	0.006	55
-0.0038	0.0052	0.0015	0.0052	55
-0.0023	0.0045	0.0007	0.0037	55
-0.003	-0.0008	0	0.003	55
-0.003	0	-0.0015	0.006	55
-0.0046	0.003	0	0.0105	55
-0.003	0.0052	-0.0008	0.0112	55
-0.0008	0.0082	-0.0023	0.0142	55
0	0.0082	-0.0008	0.0142	55
0.0022	0.009	-0.0008	0.0172	55
0.003	0.0082	-0.0015	0.0217	55
0.0007	0.006	-0.0015	0.0157	55
0.0007	0.0045	0.0007	0.009	55
-0.0008	-0.0008	0.0045	0.009	55
-0.0015	-0.003	0.0052	0.0135	55
0.0022	0.0007	0.0045	0.0195	55
0.0022	0.0015	0.0037	0.0187	55
0.0007	-0.0038	0.003	0.0112	55
-0.0008	-0.0083	0.0022	0	55.1
-0.0008	-0.0105	0.0037	-0.0083	55.1
0.0007	-0.0098	0.0045	-0.0091	55.1
0.0007	-0.0098	0.0045	-0.0075	55.1
-0.0008	-0.0098	0.006	-0.0053	55.1
0	-0.012	0.0052	0	55.1
-0.003	-0.0135	0.0037	-0.0008	55.1
-0.0046	-0.0128	0.0015	0.0037	55.1
-0.0053	-0.0128	0.0015	0.0067	55.1
-0.0053	-0.0105	0.0022	0.0097	55.1
-0.0083	-0.0083	0.003	0.0127	55.1
-0.0083	-0.0083	0.0015	0.0142	55.1
-0.0053	-0.0091	0.0015	0.0157	55.1
-0.0053	-0.0068	0.003	0.0112	55.1
-0.0038	-0.003	0.0037	0	55.1
-0.003	-0.003	0.0037	-0.0143	55.1
-0.0046	-0.0046	0.003	-0.021	55.1
-0.0046	-0.0053	0	-0.0248	55.1
-0.0046	-0.006	-0.0008	-0.0256	55.1
-0.003	-0.0046	0	-0.0256	55.1
-0.0053	-0.0053	-0.003	-0.0248	55.2
-0.0038	-0.0068	-0.0015	-0.0158	55.2
-0.003	-0.0075	0.0007	-0.0083	55.2
-0.0046	-0.0091	-0.0015	-0.0038	55.2
-0.0038	-0.0083	-0.0023	0.0007	55.2
-0.003	-0.0068	0.0007	0.003	55.2
-0.0015	-0.0068	0.003	0.0045	55.2
-0.0008	-0.003	0.003	0.0007	55.2
0.0007	-0.003	0.0037	0.0007	55.2
0.0022	-0.0023	0.0007	0	55.2
0.0015	-0.003	0.0015	-0.0046	55.2
0.0015	-0.0046	0.003	-0.0068	55.2
0.0007	-0.0053	0.0022	-0.0053	55.2
0.0015	-0.0053	0.003	-0.003	55.2
0.0022	-0.003	0.003	0.0015	55.2
0.003	-0.0038	0.003	0.0127	55.2
0.0045	-0.003	0.003	0.0202	55.2
0.003	-0.0046	0	0.0217	55.2
-0.0008	-0.006	-0.0008	0.0217	55.2
-0.003	-0.0068	-0.003	0.0172	55.2
-0.003	-0.0068	-0.003	0.018	55.3
-0.0015	-0.0068	0	0.0165	55.3
-0.0008	-0.0091	-0.0038	0.0142	55.3
-0.0038	-0.0068	-0.0046	0.0127	55.3
-0.003	-0.003	-0.0038	0.012	55.3
-0.0015	-0.0023	-0.0038	0.0105	55.3
-0.0008	0.0022	-0.0008	0.0075	55.3
0.0015	0.0052	0.0007	0.0045	55.3
0.0022	0.0067	0.003	-0.0023	55.3
0.0052	0.0067	0.0037	-0.0083	55.3
0.0045	0.003	0.0022	-0.006	55.3
0.0052	-0.0008	0.003	-0.0083	55.3
0.0067	-0.0008	0.0037	-0.0053	55.3
0.0045	-0.0046	0.003	0	55.3
0.0015	-0.0128	0.0022	0.0052	55.3
-0.0008	-0.015	0	0.0082	55.3
-0.0015	-0.0143	-0.0008	0.0067	55.3
-0.0023	-0.0143	0.0015	0.009	55.3
-0.0015	-0.0105	0.003	0.0067	55.3
-0.003	-0.0068	0.0045	0.0045	55.3
-0.0015	-0.003	0.0045	0.0015	55.3
0.0007	0.0022	0.003	0.003	55.3
0.0007	0.0082	0.003	-0.0008	55.3
0.0015	0.0127	0.0015	-0.0098	55.3
-0.0008	0.0157	0.0007	-0.006	55.3
0.0007	0.0142	-0.0008	-0.0015	55.3
0.0015	0.0127	-0.0015	0.0052	55.3
0.0022	0.012	0	0.009	55.3
0.0045	0.0082	0.0015	0.0112	55.3
0.0045	0.0045	0.0022	0.0127	55.3
0.003	-0.0008	0.0022	0.012	55.3
0.003	-0.003	0.0015	0.0052	55.3
0.0022	-0.0053	0.0007	-0.0053	55.3
0.0007	-0.0068	0.0015	-0.0128	55.4
0.0015	-0.0053	0.0015	-0.0128	55.4
-0.0008	-0.0038	0	-0.0015	55.4
-0.0008	-0.003	-0.0008	0.0142	55.4
0	-0.0046	0.0007	0.021	55.4
-0.0038	-0.0053	-0.0008	0.0045	55.4
-0.0046	-0.003	-0.0008	-0.0091	55.4
-0.0053	0	0.0007	-0.0068	55.4
-0.0046	0.0037	-0.0015	-0.0091	55.4
-0.003	0.0052	-0.0015	-0.0083	55.4
-0.0038	0.0045	0.0007	-0.0105	55.5
-0.0023	0.0007	0.0015	-0.0113	55.5
-0.003	-0.0008	0.0015	-0.0083	55.5
-0.0015	0	0.0015	-0.0105	55.5
-0.0015	0.0007	0.0022	-0.0068	55.5
-0.0023	0.0015	0.0007	-0.003	55.5
-0.0023	0.0007	0.0007	0.003	55.5
-0.0008	0.0022	0.0007	0.006	55.5
-0.0015	0.0007	0	0.009	55.5
-0.0038	-0.0015	-0.0015	0.0142	55.5
-0.0053	-0.0008	-0.0008	0.012	55.5
-0.0053	0.0007	0	0.0067	55.5
-0.0038	0.0007	0	-0.0023	55.6
-0.0015	-0.0015	0.0007	-0.0053	55.6
-0.0008	-0.0046	0.0015	-0.0053	55.6
-0.0015	-0.0053	0.0022	-0.0083	55.6
-0.003	-0.0083	0.003	-0.006	55.6
-0.0015	-0.0091	0.0037	-0.0053	55.6
-0.0023	-0.0068	0.0015	0	55.6
-0.003	-0.0008	0.0007	0.0112	55.6
-0.0008	0.003	0.0022	0.0195	55.6
0	0.0037	0.003	0.0232	55.6
-0.0015	0.0052	0.0022	0.0315	55.6
-0.0008	0.0052	0.0007	0.0315	55.6
-0.003	0.0007	-0.0023	0.0277	55.6
-0.0023	-0.0046	-0.0023	0.0315	55.6
-0.0008	-0.0091	-0.0008	0.0202	55.6
0	-0.012	-0.0008	0.0105	55.6
0.0015	-0.0143	0	0.0037	55.6
0	-0.0128	0	-0.0038	55.6
-0.0015	-0.0113	0.0015	-0.0023	55.6
0.0007	-0.012	0.0022	-0.0046	55.6
0.0007	-0.015	0.0037	-0.006	55.6
-0.0023	-0.0158	0.0052	-0.0098	55.6
-0.0015	-0.0143	0.003	-0.0218	55.6
-0.0015	-0.0113	0.0022	-0.024	55.6
-0.0015	-0.0053	0.0022	-0.021	55.6
-0.0008	-0.003	0.0007	-0.0181	55.7
-0.0015	-0.0015	0.0015	-0.0143	55.7
0.0007	-0.0023	0.0007	-0.012	55.7
0	-0.0046	-0.0008	-0.0091	55.7
-0.0015	-0.0038	0	-0.0113	55.7
-0.0008	-0.0046	0.0007	-0.0165	55.7
0.0007	-0.0046	0.0022	-0.0181	55.7
0.0022	-0.0023	0	-0.0195	55.7
0.0015	0.0015	0.0007	-0.0218	55.7
0	0.003	0	-0.0278	55.7
0.0015	0.0015	-0.0015	-0.0263	55.7
0.0007	-0.0008	-0.0008	-0.0218	55.7
-0.0008	-0.0008	-0.0008	-0.0158	55.7
0.0015	0.0007	0.003	-0.0046	55.7
0.0007	0.0022	0.003	0.0045	55.7
-0.0008	0.0007	0.0022	0.006	55.7
0.0007	-0.003	0.0007	-0.003	55.7
-0.0008	-0.003	-0.0008	-0.0128	55.7
0.0007	-0.0038	-0.003	-0.0165	55.7
0.0015	-0.0046	-0.003	-0.0158	55.7
0.0007	-0.0038	-0.003	-0.0158	55.7
0.0007	-0.003	-0.0023	-0.0143	55.7
0.0015	-0.0015	-0.0008	-0.0135	55.7
0	-0.0008	-0.0008	-0.0128	55.7
-0.0015	-0.0008	0.0007	-0.0098	55.7
-0.0015	-0.0008	-0.0008	-0.006	55.7
-0.003	0.0007	0	-0.0015	55.7
-0.0023	0.0022	0.0022	0.0007	55.7
-0.003	0.0037	0.0007	0.0052	55.7
-0.0038	0.0067	0.0007	0.009	55.7
-0.0023	0.0075	0.0022	0.0082	55.7
-0.0023	0.0067	0.0022	0.0067	55.7
-0.0008	0.0022	0.0015	0.0075	55.7
-0.0023	-0.0023	0.0045	0.0105	55.7
-0.0038	-0.0008	0.003	0.0157	55.7
-0.003	-0.0008	0	0.0217	55.7
-0.0015	-0.0023	0.0007	0.0247	55.7
-0.0015	-0.0015	0.0007	0.021	55.7
-0.003	-0.0023	0	0.0157	55.7
-0.003	-0.0046	-0.0008	0.012	55.7
-0.0038	-0.0038	0.0007	0.0015	55.7
-0.0046	-0.0046	0.0007	-0.0008	55.7
-0.0046	-0.0053	0.0007	0.0045	55.7
-0.0046	-0.0053	0.0007	0.006	55.7
-0.0046	-0.003	0.0015	0.009	55.7
-0.003	-0.0008	0.0022	0.0135	55.7
-0.0008	0.0007	0.0007	0.0225	55.7
0.0007	0.0007	0.0007	0.0315	55.7
0.0007	0.0015	0.0007	0.0345	55.7
0.0007	0.0007	-0.0008	0.0262	55.7
0.0007	0.0007	-0.0008	0.021	55.6
-0.0008	0.0015	-0.0015	0.0225	55.6
-0.0015	0.0007	-0.0023	0.015	55.6
0.0007	-0.0008	-0.0015	0.009	55.6
0.003	-0.0046	0.0007	0.003	55.6
0.0022	-0.006	0.0037	0	55.6
0.0037	-0.0105	0.0015	0.0007	55.6
0.0037	-0.0158	-0.0015	-0.0015	55.6
0.003	-0.0203	0.0007	0.0015	55.6
0.0022	-0.0218	0.0022	0.0015	55.6
0.0007	-0.0203	0.0015	0.0045	55.6
0	-0.0165	-0.0008	0.006	55.6
0	-0.0105	-0.0008	-0.0008	55.6
0	-0.003	-0.0008	-0.0015	55.6
-0.0008	0.0045	-0.0008	0	55.6
-0.0008	0.009	0.0007	0.0052	55.6
-0.0008	0.012	0	0.009	55.6
-0.0008	0.0135	0	0.0082	55.6
-0.0015	0.0165	0.0015	0.0007	55.6
-0.0008	0.0135	0.003	-0.0128	55.6
0.0015	0.009	0.0045	-0.0195	55.6
0.0015	0.0052	0.0045	-0.0256	55.6
-0.0008	-0.0023	0.0015	-0.0248	55.6
0	-0.0053	0.0015	-0.0203	55.6
-0.0008	-0.006	0.003	-0.021	55.6
-0.0023	-0.0075	0.0045	-0.0195	55.6
-0.0015	-0.0075	0.003	-0.0158	55.6
-0.0038	-0.0091	0.0015	-0.0158	55.6
-0.0046	-0.0091	0.0015	-0.0105	55.6
-0.003	-0.0075	0.003	-0.0015	55.6
-0.0046	-0.0068	0.003	-0.003	55.6
-0.0053	-0.0038	-0.0008	-0.003	55.6
-0.0038	-0.0008	0	0.003	55.6
-0.0038	0.0022	-0.0023	0.0052	55.6
-0.0053	0.003	-0.0046	-0.003	55.6
-0.0046	0.0015	-0.0053	-0.0105	55.6
-0.0046	-0.0015	-0.003	-0.0046	55.6
-0.0038	-0.003	0	-0.003	55.6
-0.003	-0.0053	-0.0008	0.0007	55.6
-0.0015	-0.0083	0	0.0067	55.6
0	-0.0075	0	0.0127	55.6
0	-0.0068	0.0015	0.0352	55.6
0.0007	-0.0046	0.0052	0.0577	55.6
-0.0008	-0.0046	0.0052	0.063	55.6
-0.0015	-0.0046	0.0052	0.0465	55.6
0.0007	-0.0015	0.0067	0.0352	55.6
0.0015	0.003	0.0052	0.0277	55.6
0.0037	0.0112	0.0045	0.018	55.6
0.003	0.0052	0.0045	0.0127	55.7
0.003	-0.0008	0.0045	0.0082	55.7
0.0037	0.0007	0.0052	0.0112	55.7
0.0015	-0.0015	0.003	0.0195	55.7
0.0022	-0.0015	0.0045	0.0255	55.7
0.0022	-0.0053	0.003	0.0315	55.7
0.003	-0.006	0.003	0.0345	55.7
0.0022	-0.0083	0.0015	0.0277	55.7
0.0015	-0.0128	-0.0008	0.0165	55.7
0.0022	-0.0143	0	0.012	55.7
0.0022	-0.0128	0	0.006	55.8
0.003	-0.0091	0.0015	-0.0068	55.8
0.0015	-0.0075	-0.0008	-0.0105	55.8
0.0015	-0.0038	-0.0015	-0.0173	55.8
0.0015	-0.0023	-0.0015	-0.0188	55.8
-0.0008	-0.0008	-0.0038	-0.0173	55.8
-0.0008	0	-0.0015	-0.0135	55.8
-0.0015	0.0007	-0.0008	0.0007	55.8
-0.0023	0.003	-0.003	0.027	55.8
-0.003	0.0067	-0.0038	0.042	55.8
-0.0015	0.0142	-0.0015	0.018	55.8
-0.0008	0.0127	-0.0008	-0.003	55.8
-0.0015	0.0075	0.0007	-0.0053	55.8
-0.003	0.0045	0.0022	-0.0053	55.8
-0.003	0.0022	0.0015	-0.0091	55.8
-0.0023	0.0045	0.0007	-0.0143	55.8
-0.0023	0.003	0.0007	-0.0143	55.8
-0.0038	0.0007	0.0015	-0.0143	55.8
-0.0038	-0.0008	-0.0008	-0.0143	55.8
-0.0015	-0.0015	0	-0.0128	55.8
-0.0038	-0.0015	0.0007	-0.012	55.8
-0.0046	-0.0046	0	-0.0135	55.8
-0.0046	-0.0038	0.0015	-0.0173	55.8
-0.0023	-0.0015	0.003	-0.0143	55.8
-0.003	-0.0015	0.0022	-0.012	55.8
-0.0053	-0.003	0.0007	-0.0143	55.8
-0.0038	-0.0083	-0.0008	-0.0158	55.8
-0.0038	-0.0091	0	-0.0128	55.8
-0.0046	-0.0091	-0.0015	-0.012	55.8
-0.0046	-0.0083	-0.0015	-0.0105	55.8
-0.0015	-0.006	0.0007	-0.0113	55.8
-0.0008	-0.0046	0.0015	-0.012	55.8
-0.0015	-0.003	0.0007	-0.012	55.8
0.0015	-0.003	0	-0.0083	55.8
0.0022	-0.003	-0.0008	-0.0046	55.8
0.0022	-0.003	-0.0015	-0.0053	55.8
0.003	-0.0008	-0.0008	-0.006	55.8
0.0015	0.0015	0.003	-0.0083	55.8
0.0007	0.0052	0.0037	-0.0046	55.8
0.0015	0.006	0.003	-0.0015	55.8
0.0015	0.0052	0.0015	0.0037	55.8
0.0015	0.0075	0.0015	0.009	55.8
0.003	0.0052	0.0015	0.0097	55.8
0.0052	0.003	0.0007	0.0097	55.8
0.006	-0.0008	0.0015	0.0052	55.8
0.0052	-0.0046	-0.0008	0.0067	55.8
0.0037	-0.0083	-0.0015	0.0082	55.8
0.003	-0.0105	-0.003	0.012	55.8
0.003	-0.0083	-0.0023	0.0135	55.8
0.0007	-0.0091	-0.0015	0.0127	55.8
0	-0.0098	-0.0008	0.0112	55.8
-0.0015	-0.0083	0.0015	0.0105	55.8
-0.003	-0.0083	0.0022	0.0082	55.9
-0.0046	-0.0068	0.0037	-0.0015	55.9
-0.0046	-0.0046	0.003	-0.0091	55.9
-0.0046	0.0022	0.0015	-0.012	55.9
-0.0046	0.0067	0	-0.0113	55.9
-0.0038	0.0097	0	-0.0075	55.9
-0.0023	0.012	0.0007	-0.0008	55.9
-0.0046	0.012	-0.0008	0.0067	55.9
-0.0046	0.012	0.0007	0.015	55.9
-0.003	0.012	0	0.0232	55.9
-0.003	0.009	-0.0015	0.0307	55.9
-0.0015	0.003	0.0007	0.0232	55.9
-0.0008	-0.003	0.0015	0.009	55.9
0.0007	-0.0083	0.0037	0.0045	55.9
0.0015	-0.0135	0.0045	0.0037	55.9
-0.0015	-0.0203	0.0052	0.0067	55.9
-0.0015	-0.0248	0.006	0.0007	55.9
-0.0015	-0.0278	0.0045	-0.0015	55.9
-0.0015	-0.0278	0.003	-0.0046	55.9
-0.003	-0.0256	0	-0.0098	55.9
-0.0038	-0.0203	0.0015	-0.012	56
-0.0053	-0.0181	-0.0015	-0.021	56
-0.0068	-0.015	-0.0023	-0.0248	56
-0.0068	-0.0113	0	-0.027	56
-0.003	-0.0068	0.0007	-0.0256	56
-0.0008	-0.0008	0.0007	-0.0225	56
0	0.0045	0.003	-0.0195	56
0.0015	0.0052	0.0015	-0.0158	56
0.0015	0.006	-0.0008	-0.0105	56
0.0015	0.0075	-0.0008	-0.0053	56
-0.0008	0.009	0	-0.003	56
-0.003	0.0105	0.003	0.0015	56
-0.0008	0.0112	0.0045	0.0052	56
0	0.012	0.0052	0.0067	56
0.0007	0.0127	0.0052	0.0052	56
0.0015	0.0105	0.0045	0.0067	56.1
0.0007	0.006	0.0045	0.0082	56.1
0.0015	0.0052	0.0037	0.0045	56.1
0.0015	0.006	0.0015	0.0037	56.1
0.0037	0.0045	0.0015	0.0007	56.1
0.003	0.003	0.0015	-0.0015	56.1
0.0015	0.0022	-0.0008	-0.0008	56.1
0.0007	0.0007	-0.0023	-0.003	56.1
0.0007	-0.003	-0.0015	-0.0098	56.1
-0.0008	-0.0046	-0.0015	-0.0105	56.1
-0.003	-0.0023	-0.0008	-0.0068	56.1
-0.0008	-0.0015	-0.0008	0.0015	56.1
-0.0008	-0.0015	-0.0008	0.0067	56.1
-0.0015	-0.0015	-0.0015	-0.0046	56.1
-0.0023	0	-0.0008	-0.0053	56.1
-0.0015	0	-0.0015	0.0022	56.1
-0.0015	-0.0015	-0.0023	0.003	56.1
-0.0046	-0.0023	-0.0015	0.0067	56.1
-0.003	-0.0015	-0.0008	0.0015	56.1
-0.003	-0.0015	-0.0008	-0.0008	56.1
-0.003	-0.0023	-0.0008	0.0007	56.2
-0.0008	-0.003	-0.0015	-0.0046	56.2
-0.0015	-0.003	-0.003	-0.0046	56.2
-0.0023	0.0007	-0.0023	-0.0053	56.2
-0.0015	0.0015	-0.0046	-0.0046	56.2
-0.0008	-0.0008	-0.0038	0.0015	56.2
-0.0008	-0.0023	0	0.009	56.2
-0.0015	-0.0068	0	0.0202	56.2
-0.003	-0.0091	-0.0008	0.024	56.2
-0.003	-0.0075	0.0007	0.0225	56.2
-0.0008	-0.0068	0.0015	0.0172	56.2
0.0007	-0.0083	0	0.015	56.2
0.0007	-0.0098	-0.0015	0.0195	56.2
-0.0015	-0.0113	-0.0015	0.0195	56.2
-0.0015	-0.0113	-0.0008	0.0142	56.2
0	-0.0083	0.0015	0.0082	56.2
0.0007	-0.0075	0.0037	0.006	56.2
0.0015	-0.0053	0.0045	0.0045	56.2
-0.0023	-0.0023	0.0022	0.003	56.2
-0.0015	-0.0008	0.003	0.0067	56.2
-0.0015	0.0007	0.0015	0.0067	56.2
-0.0038	0.0007	0.0022	0.0052	56.2
-0.0023	0.003	0.0052	0.0052	56.2
-0.0015	0.0045	0.0045	0.0052	56.2
-0.0015	0.0052	0.006	0.0067	56.2
-0.0046	0.0015	0.003	0.0015	56.3
-0.0046	-0.0008	0.0037	-0.0008	56.3
-0.0023	-0.0008	0.0045	0.0007	56.3
-0.0008	-0.0023	0.003	0.0037	56.3
0.0007	-0.0008	0.003	0.0045	56.3
0.0007	-0.0008	0.0015	0.003	56.3
0.0007	-0.0008	0.0022	0.0007	56.3
-0.0008	-0.003	0.0015	0	56.3
0.0007	-0.0015	0.003	-0.0008	56.3
0.0022	-0.0008	0.003	-0.0038	56.3
0.0007	0	0.0015	-0.0053	56.3
-0.0008	0.003	0.0045	-0.0083	56.3
-0.0015	0.0022	0.0052	-0.0135	56.3
-0.0038	0.0022	0.0045	-0.0195	56.3
-0.0046	0.0007	0.003	-0.0181	56.3
-0.003	0.0007	0.0045	-0.0165	56.3
0	0.0007	0.0045	-0.0165	56.3
0	0.0015	0.0037	-0.012	56.3
0.0015	-0.0008	0.003	-0.0083	56.3
0.0015	-0.003	0.0022	-0.0053	56.3
0.0015	-0.0023	0.0015	-0.0046	56.4
0.0007	-0.0053	-0.0008	-0.0015	56.4
-0.0008	-0.0083	0	-0.0008	56.4
-0.0008	-0.0068	-0.0008	-0.0015	56.4
0.0015	-0.003	0	-0.0053	56.4
0.0015	0.0015	0.0022	-0.0046	56.4
0.0007	-0.0008	0.0037	0.003	56.4
0.0015	-0.0023	0.003	0.0052	56.4
0.003	-0.003	0.003	0.009	56.4
0.003	-0.0053	0.0022	0.009	56.4
0.0015	-0.0068	-0.0008	0.0067	56.4
0	-0.0091	0.0015	0.0067	56.4
0	-0.0091	0.0007	0.012	56.4
0.0007	-0.0105	0.0015	0.0157	56.4
-0.0015	-0.0068	0.0052	0.012	56.4
-0.0023	-0.0068	0.0015	0.0067	56.4
-0.0038	-0.0075	-0.0008	0.0052	56.4
-0.0046	-0.0053	0.0007	0.0082	56.5
-0.003	-0.0046	0.0007	0.0067	56.5
-0.003	-0.003	0.0007	0.003	56.5
-0.0038	-0.003	-0.0023	0.0082	56.5
-0.0046	-0.003	0.0007	0.0142	56.5
-0.0046	-0.0046	-0.0008	0.0225	56.5
-0.003	-0.003	-0.0008	0.0247	56.5
-0.0015	-0.0015	-0.0008	0.0187	56.6
0	-0.0015	-0.0015	0.0112	56.6
0.0007	-0.0008	-0.0008	0.006	56.6
0.0015	0.0007	-0.0023	0.0052	56.6
0.0037	0.0007	-0.0008	0.006	56.6
0.0045	-0.003	-0.0015	0.0045	56.6
0.0045	-0.0053	-0.0015	0.0045	56.6
0.0022	-0.006	-0.0008	0.0082	56.6
-0.0008	-0.0053	-0.003	0.0082	56.6
0.0007	-0.006	-0.0015	0.003	56.7
0.0007	-0.0068	-0.0023	-0.0008	56.7
-0.0015	-0.0053	-0.0015	0.0007	56.7
0.0007	-0.0008	0.0015	0.0007	56.7
0	0.0007	-0.0008	0.0015	56.7
-0.0015	-0.0015	0	0.0015	56.7
-0.0015	-0.0015	0.0007	0.0015	56.7
-0.0008	0.0007	-0.0008	0.003	56.7
0	0.0022	-0.0008	0.0045	56.7
0	0.0045	0.0007	0.0015	56.7
0	0.0052	0.0045	-0.0046	56.7
-0.0008	0	0.003	-0.0105	56.8
-0.003	-0.003	-0.0008	-0.0158	56.8
-0.0038	-0.0046	-0.0015	-0.0158	56.8
-0.006	-0.0053	-0.0008	-0.0195	56.8
-0.0053	-0.0015	-0.0015	-0.027	56.8
-0.0046	-0.0008	-0.003	-0.027	56.8
-0.0053	0.0015	-0.0008	-0.0256	56.8
-0.0053	0.0045	0.0007	-0.024	56.8
-0.0038	0.0052	0	-0.0188	56.8
-0.0038	0.009	0.0007	-0.0091	56.9
-0.0015	0.0142	-0.0008	-0.003	56.9
0.0007	0.018	-0.0015	-0.0008	56.9
0.0007	0.018	-0.0008	0.003	56.9
0.0022	0.015	-0.0015	0.009	56.9
0.0022	0.0082	-0.0008	0.0157	56.9
0.0015	0.0052	0	0.0202	56.9
0.0022	0.0015	0.0007	0.0285	57
0.003	-0.0046	0.0007	0.0345	57
0.003	-0.0091	-0.0015	0.0285	57
0.0015	-0.0135	-0.0008	0.018	57
0.0015	-0.0128	0.0015	0.012	57
0	-0.0158	0.0045	0.0097	57
-0.0008	-0.0188	0.003	0.0015	57
-0.0038	-0.0181	0.0015	-0.003	57
-0.003	-0.0143	0.0015	-0.0015	57.1
-0.0008	-0.0075	-0.0008	0.0015	57.1
-0.0023	-0.0046	0	0.0112	57.1
-0.0015	-0.0023	0.003	0.0187	57.1
-0.003	-0.0015	0.003	0.0232	57.1
-0.003	-0.0038	0.0022	0.018	57.1
-0.0023	-0.0015	0.003	0.0127	57.1
-0.003	-0.0015	0.0045	0.0082	57.1
-0.0015	0.0007	0.0037	0.0037	57.1
-0.0008	0.0045	0.003	0.0007	57.1
-0.0015	0.0015	0.0022	-0.0046	57.1
-0.0008	0.0007	0.0022	-0.0046	57.1
0	0.0037	0.0015	-0.0038	57.1
0	0.0045	0.0015	-0.003	57.1
-0.0015	0.0015	0.0007	-0.0046	57.1
-0.003	0.003	0	-0.0053	57.1
-0.003	0.0015	0.0015	-0.003	57.1
-0.0008	-0.0008	0.003	0.0015	57.1
-0.0015	-0.0008	0.0007	0.0067	57.1
-0.0008	-0.0023	-0.0008	0.0052	57.1
0	-0.0008	0	0.0007	57.1
-0.0015	0.0007	0.0007	-0.0068	57.1
0.0007	0.0015	0.0022	-0.012	57.1
0	0	0	-0.0105	57.1
0.0015	0	-0.0008	-0.0105	57.1
0.003	0.0022	-0.0008	-0.0143	57.1
0.003	0.003	-0.0015	-0.0195	57.2
0.0037	0.003	-0.0008	-0.0233	57.2
0.0015	0.0015	0	-0.0233	57.2
0.0007	-0.0008	0	-0.0195	57.2
0	-0.0015	0.0015	-0.0165	57.2
-0.0008	-0.0046	0.0007	-0.0105	57.2
-0.0015	-0.0075	0.0007	-0.0083	57.2
-0.0015	-0.0053	0.003	-0.0053	57.2
-0.0008	-0.0046	0.003	0	57.2
-0.0008	-0.0008	0.003	0.0037	57.2
-0.0008	0.0007	0.0007	0.0067	57.2
-0.003	0	0.0015	0.009	57.2
-0.003	-0.0008	0.0045	0.0105	57.2
-0.0008	-0.0008	0.0037	0.012	57.3
-0.0008	0.0007	0.0037	0.0097	57.3
-0.0008	-0.0008	0.003	0	57.3
-0.0015	-0.0038	0.0015	-0.012	57.3
-0.0008	-0.0046	0.003	-0.0218	57.3
0	-0.0068	0.0037	-0.027	57.3
-0.0015	-0.0053	0.0037	-0.027	57.3
0.0015	-0.0023	0.0045	-0.024	57.3
0.0015	-0.0023	0.0052	-0.0165	57.3
0.0022	-0.0075	0.0022	-0.0105	57.3
-0.0015	-0.0128	0	-0.003	57.3
-0.0053	-0.0158	-0.0008	0.0052	57.3
-0.0038	-0.0165	0.0007	0.0112	57.3
-0.003	-0.0165	0.0007	0.0112	57.4
-0.0023	-0.0173	0	0.0067	57.4
-0.0023	-0.0173	-0.0015	0.0007	57.4
-0.003	-0.0165	0	-0.0068	57.4
-0.0023	-0.012	0.0007	-0.0098	57.4
-0.0008	-0.0053	-0.0015	-0.0075	57.4
-0.0015	0.0015	-0.003	0.0007	57.4
-0.0015	0.0052	-0.0015	0.0082	57.4
-0.0008	0.0067	-0.0015	0.012	57.4
-0.0008	0.0052	-0.003	0.0157	57.4
-0.0015	0.003	-0.0015	0.0165	57.4
-0.0008	0	0.0007	0.012	57.4
-0.0023	-0.0038	0.0007	0.0112	57.4
-0.0046	-0.0075	0.0037	0.0165	57.4
-0.0053	-0.0098	0.0007	0.0165	57.4
-0.003	-0.0083	-0.0008	0.0165	57.4
-0.003	-0.0083	-0.0015	0.0225	57.4
-0.0046	-0.0128	-0.0023	0.0277	57.4
-0.0038	-0.0091	-0.003	0.03	57.4
-0.0038	-0.0038	-0.0046	0.03	57.4
-0.0038	0	-0.0015	0.033	57.5
-0.0015	0.003	0.0007	0.0367	57.5
-0.0023	0.0037	0.0037	0.0352	57.5
-0.003	0.006	0.003	0.0255	57.5
-0.003	0.006	0.0022	0.018	57.5
-0.003	0.0052	0.0037	0.0195	57.5
-0.0015	0.0075	0.003	0.0202	57.5
0.0007	0.0075	0.0037	0.0232	57.5
0.0015	0.0045	0.0015	0.0277	57.5
0.0007	0.003	0.0007	0.0285	57.5
0.0015	0.0037	0.0007	0.0255	57.5
0.0022	0.003	0	0.0277	57.5
0.0022	0.0015	0.0007	0.027	57.5
0.0015	0.0007	0.0015	0.0165	57.5
0.0007	0.0045	0.003	0.0082	57.5
0.0015	0.0082	0.0045	-0.0053	57.5
0.0037	0.0075	0.006	-0.0068	57.5
0.0022	0.006	0.0037	0.003	57.5
0.0015	0.0067	0.0007	0.0045	57.5
0.0015	0.0045	0.0007	0.0082	57.5
0.0015	-0.0015	-0.0008	0.0052	57.5
-0.0008	-0.0046	-0.0015	-0.003	57.5
-0.0015	-0.0053	-0.0023	-0.0075	57.5
0.0007	-0.0053	-0.0008	-0.0008	57.5
0.0007	-0.0053	0	0.0112	57.5
-0.0008	-0.0091	0	0.0157	57.5
0.0007	-0.0128	-0.0008	0.0067	57.5
-0.0008	-0.012	0.0007	-0.0053	57.5
-0.0015	-0.0098	0.0015	-0.0083	57.5
-0.0008	-0.0098	0.0015	-0.012	57.5
-0.0008	-0.0091	0.003	-0.0128	57.5
-0.0008	-0.0083	0.003	-0.012	57.5
-0.0008	-0.0091	0.0015	-0.0053	57.5
-0.0008	-0.0068	0.0015	-0.0038	57.5
-0.0015	-0.0046	0.0007	-0.0083	57.5
0	-0.0038	-0.0008	-0.0105	57.5
-0.0008	-0.003	-0.0015	-0.0105	57.5
0	-0.0015	-0.0008	-0.0083	57.5
0.003	-0.0015	-0.0015	-0.0091	57.5
0.0022	0.0022	-0.003	-0.0046	57.5
0.0022	0.0037	-0.003	-0.0008	57.6
0.0015	0.003	-0.0008	-0.0015	57.6
0.0007	0.0015	-0.0015	-0.003	57.6
-0.0008	-0.0015	-0.0023	-0.0023	57.6
-0.0015	-0.0008	0.0007	0	57.6
0	-0.0023	-0.0008	-0.0008	57.6
0	-0.0015	0.0007	-0.0046	57.6
-0.0015	0.0015	0.0015	-0.0015	57.6
-0.0023	0.0022	0.0015	0.0022	57.6
-0.0046	0.0015	0.0015	-0.0015	57.6
-0.0046	0.0022	0.0007	-0.003	57.6
-0.0038	0.0037	0.0007	-0.0008	57.6
-0.0046	0.003	0.0007	0	57.6
-0.003	0.003	0.0037	-0.0008	57.6
-0.0008	0.0045	0.003	-0.0053	57.6
-0.0008	0.0045	0.0045	-0.0053	57.6
-0.0023	0.0052	0.0045	-0.0008	57.6
-0.0015	0.006	0.0022	0.0007	57.6
0	0.0045	0.0007	-0.003	57.6
-0.0015	0.003	-0.0008	-0.0068	57.6
-0.003	0.0015	0	-0.0128	57.6
0	0.0007	0	-0.015	57.6
0.0015	0.0037	0.0007	-0.0158	57.6
0.0015	0.0045	0.0007	-0.0195	57.6
0.0015	0.0067	0.0015	-0.0203	57.6
0.003	0.0082	0.0007	-0.0195	57.6
0.0022	0.0067	-0.0008	-0.0173	57.6
0.003	0.0082	0	-0.0158	57.6
0.0015	0.0052	-0.0008	-0.0053	57.6
0.0015	0.0015	0.0007	-0.0053	57.6
0.0015	-0.003	-0.0008	-0.0181	57.6
0	-0.0023	-0.0008	-0.03	57.6
0	0.003	0.0015	-0.0278	57.6
0.0015	-0.0015	0.003	-0.0181	57.6
0.0015	-0.0038	0.0045	-0.0143	57.6
0	-0.0046	0.0052	-0.0128	57.6
0.0015	-0.0038	0.0052	-0.0195	57.6
0.0022	-0.0015	0.0067	-0.021	57.6
0.0007	-0.0098	0.0045	-0.0158	57.6
0	-0.0188	0.0007	-0.0053	57.6
-0.0008	-0.0248	0	0.0067	57.6
-0.0015	-0.033	0.0007	0	57.6
-0.0015	-0.0405	0.0007	-0.0165	57.6
-0.003	-0.0413	0	-0.0188	57.6
-0.0083	-0.0405	-0.0015	-0.0165	57.6
-0.0113	-0.0383	-0.0023	-0.0068	57.6
-0.012	-0.0353	-0.0023	0.0015	57.6
-0.0128	-0.0308	-0.003	0.0045	57.6
-0.0128	-0.024	-0.0023	0.0037	57.6
-0.0105	-0.0181	0.0007	0.0052	57.6
-0.0083	-0.0105	-0.0015	0.015	57.6
-0.0091	-0.006	-0.003	0.0195	57.6
-0.0046	0.0015	-0.0023	0.0277	57.6
-0.0008	0.009	-0.0008	0.036	57.6
0.0015	0.0142	0	0.0375	57.6
0.0045	0.0157	0.0015	0.0405	57.7
0.0037	0.012	0.0015	0.0427	57.7
0.0015	0.009	0	0.0435	57.7
0.003	0.0082	0.0015	0.0345	57.7
0.0037	0.0082	0.0045	0.0292	57.7
0.0052	0.0112	0.0037	0.0232	57.7
0.0037	0.0127	0.0045	0.0195	57.7
0.0052	0.0127	0.006	0.0165	57.7
0.003	0.0127	0.006	0.018	57.7
0.0015	0.0105	0.003	0.0202	57.7
0.003	0.0105	0.0007	0.015	57.7
0	0.009	0	0.0105	57.7
0.0015	0.0082	0	0.0075	57.7
0.0015	0.0067	0.0007	0.006	57.7
0.0007	0.0045	0.0015	0.0067	57.7
0.0015	0.003	0.003	0.0075	57.7
0.0022	0.0007	0.003	0.0067	57.7
0.003	0.0022	0.0007	0.0015	57.7
0.0007	0.003	0.0015	-0.0015	57.8
-0.0008	0.003	0.0015	-0.0015	57.8
0.0007	0.0045	-0.0008	-0.003	57.8
0	0.003	-0.0015	-0.0091	57.8
-0.0015	0.0022	0.0007	-0.0128	57.8
-0.003	0.003	0	-0.0128	57.8
-0.0015	0.003	0.0007	-0.015	57.8
-0.0015	0.0022	0.0015	-0.0143	57.9
-0.0015	0.0015	0.0037	-0.0128	57.9
-0.0015	0.0015	0.0037	-0.0113	57.9
-0.0008	0.0015	0.0007	-0.0091	57.9
-0.0015	0.0015	0	-0.0053	57.9
-0.0023	0.0007	-0.0015	-0.0053	57.9
-0.003	0.0007	-0.0023	-0.0068	57.9
-0.003	0.0015	-0.003	-0.003	57.9
-0.003	-0.0008	-0.003	-0.0015	58
-0.003	0	-0.0008	0.0007	58
-0.003	-0.0008	0.0015	0.0045	58
-0.003	-0.0038	0.0007	0.006	58
-0.0015	-0.0046	0.0015	0.0082	58
-0.0008	-0.0046	0.003	0.0082	58
-0.0008	-0.0023	0.003	0.0067	58
-0.0008	-0.0023	0.0007	0.012	58
0	-0.0038	0.0007	0.015	58
0.0015	-0.003	0.0007	0.0142	58
0	-0.0046	0.0007	0.0142	58
-0.003	-0.0075	0.0015	0.0157	58
-0.0068	-0.0091	0.0015	0.015	58
-0.0053	-0.0068	0	0.0097	58
-0.0046	-0.0053	0.0007	0.003	58
-0.006	-0.0015	0.003	0.0007	58.1
-0.0053	0.0015	0.003	-0.003	58.1
-0.0046	0.0015	0.003	-0.003	58.1
-0.0038	0.0007	0.0022	0.003	58.1
-0.0046	-0.0008	0.0015	0.0037	58.1
-0.0015	-0.0008	0.003	0.0007	58.1
-0.0008	-0.0015	-0.0008	0.0007	58.1
-0.0015	-0.0053	-0.0015	0.0052	58.1
0.0007	-0.0068	0.0015	0.003	58.1
0	-0.0083	0.0015	-0.0038	58.2
0.0007	-0.0075	0.0015	-0.0113	58.2
0.0022	-0.0075	0	-0.0173	58.2
0.0015	-0.0098	0	-0.0143	58.2
0.0015	-0.0091	-0.0015	-0.0053	58.2
0.0007	-0.006	-0.0015	0.0022	58.2
0.0015	-0.0046	-0.0015	0.0045	58.2
0.0022	-0.003	0.0015	0.0067	58.3
0.0022	-0.0015	0.0015	0.0105	58.3
0.003	-0.0023	0.0015	0.012	58.3
0.0015	-0.0046	0.0007	0.012	58.3
-0.0008	-0.0053	-0.0008	0.006	58.3
0	-0.006	0	-0.0008	58.3
0.0007	-0.0038	0.0007	-0.0091	58.4
0.0015	0	0.0015	-0.0083	58.4
0.003	0.0022	0.0015	-0.0083	58.4
0.0022	0.0015	0.0015	-0.0091	58.4
-0.0008	0.0015	-0.0008	-0.0075	58.4
-0.0023	0	0	-0.0046	58.4
-0.003	-0.0015	0	-0.006	58.4
-0.0038	0	-0.0008	-0.0083	58.4
-0.0053	0.0015	0.0022	-0.0068	58.4
-0.003	-0.0008	0.0022	-0.012	58.4
-0.0015	-0.003	0.003	-0.0143	58.5
-0.003	-0.0075	0.0015	-0.0113	58.5
-0.003	-0.012	0.0007	0.0007	58.5
-0.0038	-0.0158	0.0022	0.003	58.5
-0.0046	-0.0158	0.0007	0.0007	58.5
-0.0046	-0.0128	0.0007	-0.0008	58.5
-0.0046	-0.012	-0.0008	-0.0015	58.5
-0.003	-0.0105	-0.0008	-0.003	58.5
-0.0015	-0.0105	-0.0008	-0.0038	58.5
0	-0.0128	-0.0008	0.0007	58.5
0.0007	-0.0128	-0.0015	0	58.5
-0.0015	-0.0083	-0.0015	-0.0053	58.5
0	-0.003	-0.0015	-0.0105	58.5
-0.0008	-0.0008	-0.0008	-0.0158	58.5
-0.003	0.0007	-0.0008	-0.0158	58.5
-0.003	0.0045	-0.0023	-0.0143	58.5
-0.0015	0.003	-0.0015	-0.0105	58.5
0.0015	0.0037	0	-0.0053	58.5
0.0015	0.0045	0.0022	-0.003	58.5
0.0015	0.0052	0.003	0.0022	58.5
0.003	0.0067	0.003	0.0052	58.5
0.003	0.0052	0.003	0.006	58.5
0.0045	0.0052	0.0022	0.0067	58.5
0.006	0.0067	0.0037	0.0082	58.6
0.0067	0.0067	0.0052	0.0112	58.6
0.0052	0.006	0.0045	0.009	58.6
0.0022	0.0067	0.0015	0.0022	58.6
0.0015	0.0045	0.0007	-0.0068	58.6
0.0015	0.003	0.0007	-0.012	58.6
-0.0008	0.003	0.0007	-0.012	58.6
-0.003	0.0045	0.0007	-0.0098	58.6
-0.003	0.0045	0.0007	-0.0105	58.6
-0.003	0.0045	0.0007	-0.0143	58.6
0	0.0067	0.0015	-0.0113	58.7
0.003	0.0082	0.0037	-0.006	58.7
0.0015	0.0052	0.0015	-0.0008	58.7
0.0007	0.0045	0.0015	0.0082	58.7
0.0007	0.0037	0.0045	0.0142	58.7
0.0015	0.0022	0.0045	0.015	58.7
0.0037	0	0.0037	0.0097	58.7
0.0007	-0.003	0.0007	0.0082	58.7
-0.0015	-0.0053	-0.0008	0.0082	58.7
-0.0023	-0.0083	0.0007	0.0082	58.7
-0.0015	-0.0083	-0.0008	0.0067	58.8
0	-0.0091	-0.0008	0.0045	58.8
-0.0008	-0.0098	-0.0008	0.0015	58.8
-0.0023	-0.0105	-0.0008	0.003	58.8
-0.0046	-0.0091	-0.0023	0.0097	58.8
-0.0038	-0.0068	-0.003	0.0172	58.8
-0.003	-0.0046	-0.0015	0.0232	58.8
-0.0023	-0.0015	-0.0008	0.0232	58.8
-0.0015	-0.0023	0	0.0247	58.8
-0.0015	-0.0015	0.0007	0.0255	58.8
-0.0023	-0.0015	0.0007	0.0232	58.9
0.0007	-0.0015	0.0022	0.0195	58.9
-0.0008	-0.003	0.0037	0.0135	58.9
-0.0046	-0.0015	0.0037	0.0105	58.9
-0.003	-0.0015	0.0037	0.0105	58.9
-0.003	-0.0015	0.003	0.009	58.9
-0.003	-0.0023	0.003	0.0082	58.9
-0.0023	-0.003	0.0022	0.0045	58.9
-0.0015	-0.0015	0.003	-0.0015	58.9
0.0007	0.0007	0.0015	0.0015	58.9
-0.0008	0.003	0.0015	0.0097	58.9
-0.0008	0.0007	0.0015	0.0127	58.9
0.0007	0.0015	0.0022	0.0187	58.9
-0.0008	0.0022	0.0022	0.024	58.9
0.0007	0.0015	0.0007	0.027	58.9
-0.0008	0.0015	0.0007	0.0292	58.9
-0.0008	-0.003	-0.0008	0.0255	58.9
0	-0.0046	-0.0015	0.018	58.9
0.0007	-0.006	-0.0008	0.0097	58.9
0.0007	-0.0053	0.0007	0.0015	58.9
0.0007	-0.0008	0.0022	-0.0075	58.9
0.0007	-0.0008	0	-0.0105	58.9
-0.0008	-0.0023	0	-0.0105	58.9
-0.003	-0.0015	-0.0008	-0.012	58.9
-0.0038	-0.0023	-0.0008	-0.0068	58.9
-0.003	-0.0015	-0.0008	0	58.9
-0.003	-0.0015	-0.0015	0.0022	59
-0.0053	-0.0015	-0.0008	0.0022	59
-0.0046	-0.0015	0	0.003	59
-0.0046	-0.0015	0.0007	-0.0008	59
-0.0053	-0.0046	0.0007	-0.0053	59
-0.0038	-0.0038	0.0015	-0.0075	59
-0.0053	-0.0053	0.0015	-0.0068	59
-0.0053	-0.0068	0.003	-0.0083	59
-0.0046	-0.0068	0.0022	-0.0105	59
-0.006	-0.0075	0.0022	-0.0128	59
-0.0023	-0.003	0.003	-0.0113	59
-0.0015	-0.0008	0.0022	-0.0068	59
-0.0015	0	0.0037	-0.0068	59
-0.0015	0.0037	0.0037	-0.0105	59.1
-0.0046	0.0045	0.003	-0.0105	59.1
-0.003	0.0037	0.003	-0.0098	59.1
-0.0008	0.0015	0.0007	-0.0135	59.1
0	-0.0015	0	-0.0128	59.1
-0.0008	-0.0008	0.0022	-0.012	59.1
-0.0008	-0.0015	0.0022	-0.0091	59.1
-0.0008	-0.0038	0.003	-0.0053	59.1
0	-0.003	0.0015	-0.0008	59.1
-0.0008	-0.0015	0.0007	0.0052	59.1
-0.0015	-0.003	0.0022	0.0052	59.1
0.0007	-0.003	0	0.003	59.1
0.0007	-0.0015	0.0007	-0.0008	59.1
0.0007	-0.0015	0	0	59.1
0.0015	-0.0015	-0.0015	-0.0015	59.1
0.0015	-0.0015	0.0022	-0.003	59.1
0.0007	-0.0015	0.003	-0.003	59.1
0.0015	-0.0008	0.0015	-0.003	59.1
0.0007	-0.0015	0.0015	0	59.1
-0.0008	-0.0023	0.0007	0	59.1
-0.0015	-0.0038	0.0015	0.0015	59.1
-0.0008	-0.0023	0.003	0.006	59.1
0.0007	-0.0015	0.0022	0.0075	59.1
0.0007	-0.003	0.0007	0.003	59.1
0.0007	-0.0053	-0.0015	0.0015	59.1
0	-0.0068	-0.0015	0.003	59.1
0	-0.006	-0.0008	0.0045	59.1
0.0007	-0.0068	-0.0008	0.0052	59.1
0.0007	-0.0068	0.003	0.003	59.1
0.0022	-0.0046	0.0045	0.0007	59.1
0.0022	-0.0068	0.0022	0.0037	59.1
-0.0008	-0.0091	-0.0008	0.0082	59.1
-0.0008	-0.0098	-0.0015	0.0082	59.1
-0.0008	-0.0083	-0.0008	0.0045	59.1
0.0007	-0.0068	0.0007	0.0007	59.1
0.0007	-0.0068	0	-0.0015	59.1
-0.0008	-0.0068	-0.0008	-0.0038	59.1
-0.0008	-0.0083	-0.0023	-0.0053	59.1
0.0007	-0.0083	-0.0015	-0.003	59.1
0.0007	-0.0053	-0.0015	-0.0008	59.1
0.0007	-0.003	-0.0023	0.0015	59.1
0.0007	-0.0015	-0.0008	0.0015	59.1
0	-0.0023	0	0.003	59.1
0.0015	-0.0046	0.0007	0.0067	59.1
0.0015	-0.0053	-0.0015	0.006	59.1
0	-0.0053	-0.0015	0.0052	59.1
-0.0008	-0.0068	0.0015	0.0007	59.1
-0.0008	-0.0075	-0.0015	-0.0053	59.1
-0.0008	-0.0038	-0.0008	-0.0113	59.1
-0.0008	-0.003	0.0007	-0.0158	59.1
-0.0015	-0.0038	0.0015	-0.012	59.1
-0.003	-0.003	0.003	-0.0046	59.1
-0.0015	-0.0023	0.0045	0	59.1
0	-0.0015	0.0037	0.003	59.1
-0.0008	-0.003	0.0015	0.0045	59.1
-0.003	-0.0008	0.0022	0.0067	59.1
-0.003	0	0.0022	0.012	59.1
-0.003	0.0007	0.003	0.012	59.1
-0.0015	0	0.003	0.0052	59.1
0	-0.003	0.0022	0.0052	59.1
-0.0008	-0.0023	0.0037	0.0007	59.1
0.0022	-0.0008	0.0045	-0.006	59.1
0.003	-0.0008	0.0045	-0.0046	59.1
0	0	0.003	-0.003	59.1
-0.0015	0	0.0007	-0.0008	59.1
-0.0015	0.0007	0.0007	0.0052	59.1
-0.0008	0.0007	-0.0008	0.0037	59.1
-0.0008	0.0015	0.0007	-0.003	59.1
0.0007	0.0022	0.0015	-0.006	59.1
-0.0008	0.0015	0	-0.0046	59.1
-0.0008	0.0007	-0.0008	-0.003	59.1
0.0015	-0.0008	-0.0015	-0.0023	59.1
0.0015	-0.0008	-0.0015	-0.0008	59.1
0.0022	-0.0015	-0.0023	0.0015	59.1
0.0015	-0.003	-0.0015	0.006	59.1
0.0007	-0.0046	-0.0008	0.0105	59.1
0	-0.0046	-0.0008	0.0142	59.1
-0.0008	-0.006	0.0007	0.018	59.1
0	-0.0068	0.0007	0.0225	59.1
-0.0008	-0.0046	0.003	0.021	59.1
-0.0023	-0.0046	0.0015	0.009	59.1
-0.0038	-0.003	0.0007	0.0052	59.1
-0.0053	0	-0.0008	0.0007	59.1
-0.0053	0.003	-0.003	-0.003	59.1
-0.003	0.0052	-0.0015	-0.0008	59.1
-0.003	0.0037	-0.0015	-0.003	59.1
-0.0008	0.0022	-0.0015	-0.0038	59.1
-0.0008	0.0007	0.0007	0	59.1
-0.0008	-0.0008	0.0007	0.0045	59.1
-0.0008	0.0022	0.0015	0.0075	59.1
-0.0015	0.003	0.0037	0.0067	59.1
-0.0015	0.003	0.003	0.0052	59.1
-0.0023	0.003	0.0037	0.0082	59.1
-0.003	-0.0015	0.003	0.009	59.1
-0.003	-0.0053	-0.0008	0.0067	59.1
-0.0038	-0.0053	-0.0008	0.0052	59.1
-0.003	-0.0053	-0.0008	0.0045	59.1
-0.0023	-0.0046	0	-0.0015	59.1
-0.0015	-0.0015	0.0015	-0.003	59.1
-0.0015	0.0022	0.0007	-0.0075	59.1
-0.0008	0.0045	0	-0.0091	59.1
-0.0008	0.0052	0	-0.0038	59.1
-0.0015	0.0022	0.0015	0.0007	59.1
-0.0008	-0.0008	0.0022	-0.0008	59.1
-0.0008	-0.0015	0.0007	-0.003	59.1
-0.0008	-0.003	0.0007	-0.0008	59.1
-0.0015	-0.0083	0.0015	0.0022	59.1
-0.0023	-0.0143	0.0037	0.003	59.1
0.0007	-0.0158	0.0052	-0.0008	59.1
0.0015	-0.0143	0.0045	-0.0046	59.1
0.0007	-0.0165	0.0052	-0.0098	59.1
-0.0015	-0.0173	0.0037	-0.012	59.1
-0.0015	-0.0143	0.0022	-0.0046	59.1
-0.0015	-0.0135	0.0007	0.006	59.1
-0.0023	-0.015	-0.0008	0.0082	59.1
-0.003	-0.015	0.0007	0.0015	59.1
-0.0023	-0.012	0.0007	-0.0083	59.1
-0.0015	-0.0068	0.0015	-0.015	59.1
-0.0015	-0.0023	0.0007	-0.0098	59.1
0.0007	0.0007	0.0007	-0.006	59.1
0.0022	0.0022	0.003	-0.0008	59.1
0.003	0.0052	0.0045	0.003	59.1
0.0007	0.003	0.0045	0.006	59.1
-0.0008	0.0015	0.003	0.009	59.1
-0.003	0.0015	0	0.015	59.1
-0.003	-0.0008	-0.0008	0.0165	59.1
-0.0015	0.0007	-0.0023	0.0105	59.1
-0.0023	-0.0015	-0.003	0.012	59.1
0	0.0007	-0.0046	0.0112	59.1
0	0.0015	-0.0023	0.0067	59.1
-0.0008	0.0007	0	0.0067	59.1
0.0007	0.0007	-0.0008	0.009	59.1
0.0015	0.003	-0.0015	0.0037	59.1
0.0015	0.0015	-0.0015	-0.0008	59.1
0	-0.0023	-0.003	0	59.1
0.0007	-0.0046	-0.0015	-0.0015	59.1
-0.0015	-0.0046	0	-0.0008	59.1
-0.003	-0.003	0	0.0052	59.1
-0.0023	-0.0046	0.0015	0.006	59.1
-0.0008	-0.0053	0.0015	-0.0008	59.1
-0.0008	-0.0015	0.0037	-0.0046	59.1
-0.0023	-0.0008	0.003	-0.0046	59.1
-0.0015	0	0.0007	-0.0053	59.1
0	-0.0008	0.003	-0.003	59.1
0.0007	0.0007	0.003	-0.0023	59.1
0.0015	0.003	0.0007	-0.0015	59.1
0.003	0.003	0.0007	-0.0015	59.1
0.0052	0.0045	0.0015	-0.0015	59.1
0.0052	0.0052	0.0007	0	59.1
0.003	0.0052	0.0007	0.003	59.1
0.0022	0.0067	0.0037	0.003	59.1
0.0015	0.0082	0.0022	0.0015	59.1
0.0007	0.009	0.003	-0.0008	59.1
-0.0008	0.0075	0.0037	-0.0068	59.1
-0.0015	0.0075	0	-0.003	59.1
0.0007	0.009	0.0007	-0.0008	59.1
-0.0008	0.0105	0.0007	-0.0038	59.1
-0.0023	0.0112	0	-0.0046	59.1
-0.0015	0.0105	-0.0008	-0.0053	59.1
-0.003	0.012	0.0015	-0.0068	59.1
-0.0008	0.012	0.0022	0.0007	59.1
0	0.009	0.0022	0.0135	59.1
-0.003	0.003	0.003	0.0172	59.1
-0.0008	-0.0015	0.003	0.0195	59.1
-0.0023	-0.003	0.003	0.0232	59.1
-0.0015	-0.0038	0.0015	0.0232	59.1
0.0015	-0.0053	0.0015	0.0165	59.1
0.0007	-0.0098	-0.0008	0.0052	59.1
-0.0015	-0.0128	-0.0023	0	59.1
-0.0008	-0.0165	-0.0015	-0.0008	59.1
0.0007	-0.0181	-0.0015	-0.0023	59.1
-0.0008	-0.0188	-0.0008	0.003	59.1
-0.0038	-0.0181	-0.003	0.0067	59.1
-0.003	-0.0165	-0.0023	0.003	59.1
-0.0046	-0.0165	-0.0015	-0.0038	59.1
-0.0068	-0.0143	-0.0008	-0.0105	59.1
-0.006	-0.0143	0.0007	-0.0158	59.1
-0.0068	-0.0105	-0.0008	-0.015	59.1
-0.0053	-0.0068	0.0007	-0.0128	59.1
-0.0038	-0.0038	0.0007	-0.0083	59.1
-0.0023	-0.0015	0.0015	-0.0053	59.1
-0.0015	0.0007	0.003	-0.003	59.1
-0.0008	0.0015	0.0022	-0.0023	59.1
0.0007	0.0045	0.0037	-0.0015	59.1
0.0007	0.0052	0.003	-0.0008	59.1
-0.0008	0.0037	0.0007	-0.0015	59.1
-0.0023	0.0045	0.0007	0.0045	59.1
0.0007	0.0022	0.003	0.0052	59.1
0.0022	0.0007	0.0045	0.003	59.1
0.0007	-0.0015	0.0045	0.0045	59.1
-0.0015	-0.003	0.0045	0.0022	59.1
-0.0008	-0.0015	0.0045	0.0015	59.1
0	-0.0023	0.0052	0.0022	59.1
0.0007	-0.0038	0.0052	0.0015	59.1
0.003	-0.003	0.0022	-0.0008	59.1
0.0022	-0.003	0.0022	0.0007	59.1
0.0015	-0.003	0.0015	0.003	59.1
0.0007	-0.003	0.0015	0.0052	59.1
0.0015	-0.0015	0.0015	0.0075	59.1
0.0015	-0.003	-0.0008	0.0082	59.1
0.0007	-0.003	-0.0015	0.0052	59.1
0.0015	-0.0008	-0.0008	0.0045	59.1
0.0007	-0.0023	-0.0015	0.0015	59.1
0	-0.003	0	0.0015	59.1
0	-0.003	0.0007	-0.0015	59.1
0.0007	-0.003	-0.0008	-0.003	59.1
0.0007	-0.003	-0.0008	-0.0038	59.1
0	-0.003	-0.0008	0.0007	59.1
0.0007	-0.0023	-0.0008	0.0075	59.1
-0.0008	-0.0015	-0.0008	0.012	59.1
0.0007	-0.0015	-0.0023	0.0202	59.1
0.0007	-0.003	-0.0008	0.0247	59.1
0.0007	-0.003	0.0015	0.0217	59.1
0.0007	-0.0015	0.003	0.0225	59.1
-0.003	-0.003	0.0007	0.0187	59.1
-0.0053	-0.0015	-0.0008	0.009	59.1
-0.0046	-0.0015	0	0.0045	59.1
-0.0038	-0.003	0.0007	-0.006	59.1
-0.0046	-0.0023	0.0007	-0.0113	59.1
-0.0046	0	0.0015	-0.012	59.1
-0.0053	0.0037	0.0022	-0.0128	59.1
-0.0053	0.0067	0.0037	-0.0091	59.1
-0.0046	0.0067	0.0037	-0.0083	59.1
-0.0038	0.003	0.003	-0.0046	59.1
-0.0008	0.0007	0.0015	-0.0008	59.1
-0.0008	-0.0008	0.0007	0.0007	59.1
-0.0023	-0.0023	0.0007	-0.0023	59.1
-0.0015	-0.0023	-0.0008	-0.0008	59.1
-0.003	-0.0015	-0.0015	0	59.1
-0.0008	0.0007	0	0.0007	59.1
0	0.0015	-0.0008	0.0007	59.1
0.0007	-0.0008	0	-0.0008	59.1
0	-0.0008	0.0037	0.0007	59.1
0	-0.0015	0.0037	0.0015	59.1
-0.0008	-0.0053	0.0037	0.0037	59.1
-0.0008	-0.0098	0.0022	0	59.1
0.0007	-0.0105	0.0022	-0.0038	59.1
0.0007	-0.0098	0.0037	-0.0068	59.1
0.0015	-0.0083	0.003	-0.0091	59.1
0.003	-0.0068	0.0007	-0.0068	59.1
0.0015	-0.006	0.0007	-0.0053	59.1
-0.0008	-0.0046	0.0015	-0.0038	59.1
-0.0015	-0.0038	0.0007	-0.0015	59.1
-0.0008	-0.003	-0.0015	-0.0008	59.1
-0.0008	-0.0015	-0.0008	0.0007	59.1
-0.0015	-0.003	-0.0008	0.0022	59.1
-0.003	-0.0015	0	0.003	59.1
-0.0046	-0.0015	-0.0008	0.0015	59.1
-0.0046	-0.003	0.0007	0.0045	59.1
-0.0023	-0.0015	0.0015	0.0037	59.1
-0.0015	-0.0008	0.0015	0.0022	59.1
-0.003	-0.0015	0	0.003	59.1
-0.003	-0.0046	-0.0008	0.003	59.1
-0.0015	-0.006	0.0007	0.0015	59.1
-0.0015	-0.0068	-0.0008	0	59.1
-0.0015	-0.0046	0.0007	-0.003	59.1
-0.0038	-0.0015	0.0022	-0.0015	59.1
-0.0015	0.0015	0	0.0007	59.1
0.0007	0.0052	0.0015	0.0045	59.2
-0.0008	0.0082	0.0015	0.009	59.2
0.0015	0.0127	0.0007	0.009	59.2
0.0007	0.0142	0.0015	0.003	59.2
0.0015	0.0105	0.0015	-0.0023	59.2
0.003	0.006	0.0015	-0.0068	59.2
0.003	0.0045	0.003	-0.0083	59.2
0.0052	0.0037	0.0037	-0.0091	59.2
0.003	0.0037	0.0015	-0.0105	59.2
-0.0008	0.0015	0.0015	-0.006	59.2
0	-0.0008	0.0015	0.009	59.2
-0.0015	0.0015	0.0007	0.0202	59.2
-0.0023	0.003	-0.0015	0.024	59.2
-0.0023	0.0045	-0.0008	0.0217	59.2
-0.0038	0.0045	0.0007	0.009	59.2
-0.0015	0.0082	0.0045	0.0015	59.2
-0.0008	0.006	0.0052	0.0045	59.2
-0.003	-0.0023	0.0015	0.0097	59.2
-0.003	-0.0083	0.0015	0.0022	59.2
-0.0023	-0.0135	0.0015	-0.0008	59.2
-0.0008	-0.015	0.0015	0.0007	59.2
-0.0008	-0.015	0.0007	0.0007	59.2
-0.0023	-0.0165	-0.0008	0.009	59.2
0.0007	-0.0188	-0.0008	0.0105	59.2
-0.0008	-0.0181	-0.0008	0.0052	59.2
-0.0046	-0.0173	-0.0008	-0.003	59.2
-0.003	-0.0173	-0.0015	-0.0091	59.2
-0.0015	-0.0143	-0.0015	-0.0075	59.2
-0.003	-0.012	-0.0038	-0.0053	59.2
-0.003	-0.0105	-0.003	-0.003	59.2
-0.0015	-0.0068	-0.0008	0.0022	59.2
-0.0008	-0.0075	-0.0008	0.0052	59.2
-0.0008	-0.006	0.0007	0.0015	59.2
-0.0008	-0.003	0	-0.0015	59.2
0.0007	-0.0015	0.0007	-0.0046	59.2
0	0.0015	0.0015	-0.0053	59.2
0	0.0052	0.0007	-0.0046	59.2
0.0022	0.0052	0	-0.0053	59.2
0.0007	0.003	0.0007	-0.0053	59.2
0.0007	0.003	0.0015	-0.0053	59.2
0.0015	0.003	0.0007	-0.0046	59.2
0	-0.0015	-0.0008	-0.0068	59.2
-0.0008	-0.0046	0.0015	-0.0091	59.2
0	-0.0053	0.0015	-0.0046	59.2
0.0015	-0.0038	0.003	-0.0008	59.2
0.0015	0.0045	0.0007	-0.0015	59.2
0	0.012	0.0007	-0.0008	59.2
0.0015	0.0135	0.0007	0.0015	59.2
0.0015	0.0142	-0.0008	0.0007	59.2
0.0015	0.0165	0	-0.0008	59.2
0.0015	0.0165	0.0007	-0.0008	59.2
0	0.0165	0.0007	0.0015	59.2
0.0007	0.0165	0.003	0.0015	59.2
-0.0008	0.012	0.0045	0.0007	59.2
-0.0008	0.0052	0.006	0.0015	59.2
0.0007	-0.003	0.0045	0.0045	59.2
-0.0008	-0.0075	0.0022	0.0045	59.2
-0.0008	-0.0083	0.0022	0.012	59.2
-0.0008	-0.0083	0.0015	0.0157	59.2
-0.0008	-0.0098	0.0022	0.0112	59.2
-0.0008	-0.0068	0.0007	0.0142	59.2
-0.0008	-0.003	-0.0008	0.027	59.2
0.0015	-0.0083	0.003	0.0352	59.2
0.0007	-0.0128	0.0015	0.0292	59.2
-0.0008	-0.0181	0.0015	0.0082	59.2
-0.0038	-0.015	0	-0.0015	59.2
-0.006	-0.0113	-0.0008	0.0007	59.2
-0.006	-0.0105	-0.0008	-0.0046	59.2
-0.0068	-0.0105	-0.003	-0.0068	59.2
-0.006	-0.0143	-0.0015	-0.0075	59.2
-0.0053	-0.012	-0.0015	-0.0038	59.2
-0.0075	-0.0046	-0.0015	-0.0023	59.2
-0.0105	-0.0008	-0.003	-0.003	59.2
-0.0091	0.0015	-0.0008	-0.0015	59.2
-0.0046	0.0015	0.0015	0.0007	59.2
-0.003	-0.0023	0	0.0045	59.2
-0.0023	-0.0053	0.0007	0.0082	59.2
-0.0008	-0.0053	0	0.0067	59.2
0.0015	-0.0015	0.0007	0.009	59.2
0.0022	0.003	0.0015	0.0195	59.2
0.003	0.012	0.0022	0.009	59.2
0.0052	0.0307	0.0015	-0.0015	59.2
0.006	0.0315	0	-0.0038	59.2
0.0052	0.018	0.0007	-0.0046	59.2
0.006	0.012	0.0007	0.003	59.2
0.0067	0.0082	0.0015	0.0037	59.2
0.0045	-0.0008	0.0022	0.0015	59.2
0.003	-0.0158	0.0015	0.0015	59.2
-0.0008	-0.027	0.0007	0.0007	59.2
-0.003	-0.0353	0.0007	0.0007	59.2
-0.0008	-0.0428	0.0007	-0.0015	59.2
-0.003	-0.048	0.0007	-0.0098	59.2
-0.0038	-0.045	0.0015	-0.0188	59.2
-0.0053	-0.0368	0.0015	-0.0218	59.2
-0.0083	-0.0315	-0.0008	-0.0233	59.2
-0.0105	-0.0225	-0.0015	-0.0233	59.2
-0.0091	-0.0091	-0.0023	-0.0218	59.2
-0.0053	-0.0023	-0.0023	-0.0233	59.2
-0.0053	0.0022	-0.0023	-0.0218	59.2
-0.0046	0.0052	-0.003	-0.0181	59.2
-0.0046	0.0067	0	-0.0165	59.2
-0.0023	0.012	0.0007	-0.0143	59.2
-0.0008	0.018	0	-0.0091	59.2
0.0007	0.021	0	0.0007	59.2
0.0022	0.0202	-0.0015	0.009	59.2
0.0037	0.018	-0.0008	0.0157	59.2
0.006	0.0157	0	0.0292	59.2
0.0045	0.0142	0.0015	0.0345	59.2
0.003	0.0157	0.0007	0.0277	59.2
0.0022	0.0127	0.0007	0.0262	59.3
0.0015	0.012	0.0045	0.024	59.3
0.0052	0.0127	0.0052	0.0142	59.3
0.006	0.0112	0.0045	0.0015	59.3
0.0045	0.009	0.006	-0.0068	59.3
0.0045	0.0052	0.0052	-0.003	59.3
0.003	0.0022	0.0045	-0.0068	59.3
0.0015	-0.0015	0.0075	-0.012	59.3
0.0007	-0.0046	0.0067	-0.0008	59.3
0.0007	-0.0053	0.0052	0.0067	59.3
0.0022	-0.0053	0.0037	0.0052	59.3
0.0015	-0.0105	0.0022	0.0067	59.3
-0.0008	-0.0165	0.0015	0.0052	59.3
-0.003	-0.0181	0.0007	0.0045	59.4
-0.0046	-0.0165	0.0007	0.0015	59.4
-0.0038	-0.0135	0.0007	-0.0075	59.4
-0.003	-0.0098	0.0022	-0.0091	59.4
-0.0046	-0.003	0.0015	-0.0091	59.4
-0.0046	0.0007	0.0015	-0.0075	59.4
-0.0053	0.0022	0.0007	-0.0068	59.4
-0.0053	0.0045	-0.0008	-0.0068	59.4
-0.003	0.0052	-0.0008	0.0007	59.4
-0.003	0.0075	-0.0008	0.0127	59.4
-0.0015	0.0142	0.0007	0.027	59.4
-0.0008	0.0202	0.0007	0.033	59.4
0	0.0217	0.0022	0.0255	59.5
0.0015	0.024	0.0007	0.009	59.5
0.0022	0.0202	-0.0008	0.0067	59.5
0.0037	0.009	-0.0015	0.0082	59.5
0.003	-0.0038	-0.0053	0.0112	59.5
0.0022	-0.015	-0.0046	0.0105	59.5
0.0015	-0.024	-0.0046	-0.0038	59.6
0.0015	-0.0308	-0.0046	-0.0091	59.6
0.0007	-0.0308	-0.0038	-0.0158	59.6
0.0015	-0.0338	-0.0015	-0.0218	59.6
0.003	-0.0293	0.0007	-0.0203	59.6
0.0007	-0.0165	0.0015	-0.0203	59.6
-0.0038	-0.0075	0.0022	-0.0091	59.6
-0.006	0.003	0.0007	0.0067	59.7
-0.0046	0.0135	0.0022	0.0157	59.7
-0.0008	0.0202	0.0007	0.0172	59.7
-0.0008	0.021	0.0015	0.024	59.7
0.003	0.018	0.003	0.027	59.7
0.003	0.012	0.0015	0.0135	59.7
0.0022	0.0082	0.0045	0.0022	59.8
0.0022	-0.0008	0.0037	0.0045	59.8
0.0007	-0.0083	0.003	0.012	59.8
0.0007	-0.0128	0.0052	0.012	59.8
-0.0008	-0.0128	0.003	0.0105	59.8
-0.0015	-0.0143	0.0022	0.0105	59.8
-0.0053	-0.0278	0	-0.0023	59.8
-0.0105	-0.039	0	0.0045	59.8
-0.0135	-0.0405	0	0.015	59.9
-0.0143	-0.0398	0	0.0135	59.9
-0.0128	-0.0368	0	-0.0008	59.9
-0.0105	-0.0293	0.0007	-0.0135	59.9
-0.0068	-0.027	0.0022	-0.0053	59.9
-0.006	-0.0256	0	-0.006	59.9
-0.0053	-0.015	-0.0008	-0.0083	60
-0.003	-0.0083	0.0015	0.0015	60
-0.0015	-0.0008	0	0.0067	60
-0.0015	0.003	-0.0023	-0.0053	60
-0.0015	0.003	-0.003	-0.0098	60
-0.0015	0.0045	-0.0015	-0.0046	60
-0.0015	0.0045	-0.003	-0.0053	60.1
-0.0015	0.009	-0.003	-0.0023	60.1
-0.0015	0.0127	-0.0015	0.0015	60.1
0.0007	0.015	0	0.0045	60.1
0.0037	0.0157	0.0022	-0.0008	60.1
0.003	0.015	0.0022	-0.0083	60.2
0.0015	0.0135	0.0022	-0.0128	60.2
0.0037	0.0127	0.003	-0.0158	60.2
0.0052	0.0127	0	-0.0105	60.2
0.0052	0.0142	-0.0008	-0.0046	60.2
0.006	0.015	0.0007	0.0015	60.2
0.0052	0.0127	0.003	0.0082	60.3
0.0045	0.012	0.0037	0.0142	60.3
0.0052	0.0097	0.0022	0.0127	60.3
0.0052	0.006	0.003	0.0135	60.3
0.006	0.0022	0.0007	0.024	60.3
0.0045	-0.0015	-0.0023	0.0225	60.3
0.003	-0.003	-0.0015	0.0187	60.3
0.0022	0	-0.0008	0.0127	60.3
-0.0015	0.0067	0.0007	0.0045	60.3
0.0007	0.0142	0.003	0.0037	60.3
0.0007	0.0217	0.0022	0.0045	60.3
-0.0008	0.021	0.0007	0.0037	60.3
-0.0015	0.0127	0.0015	-0.0053	60.3
-0.0008	0.0037	0.0015	-0.0091	60.3
0.0007	-0.003	0.0007	-0.0083	60.3
-0.0008	-0.0135	0.0007	-0.006	60.3
-0.0008	-0.0225	0.0015	-0.0023	60.3
-0.0015	-0.03	0.0022	-0.0015	60.3
-0.0046	-0.0353	0.0037	-0.0068	60.4
-0.0053	-0.0315	0.0045	-0.0128	60.4
-0.0038	-0.0233	0.0045	-0.0143	60.4
-0.0023	-0.0143	0.0052	-0.0143	60.4
-0.003	-0.0075	0.0052	-0.0105	60.4
-0.0046	-0.006	0.003	-0.0128	60.4
-0.0023	-0.0015	0.0015	-0.0128	60.4
0.0007	0.0015	0.0007	-0.0046	60.4
-0.0008	0.006	-0.0008	0.0045	60.4
-0.0038	0.0067	-0.0008	0.0075	60.4
-0.003	0.0075	-0.0008	0.0015	60.4
-0.0015	0.0105	0	0.0007	60.4
-0.0015	0.0067	-0.0008	0.0142	60.4
-0.0015	0.006	-0.0008	0.027	60.4
-0.003	0.0052	-0.0008	0.0255	60.4
-0.003	0.0067	-0.0008	0.0247	60.4
-0.003	0.006	0	0.0195	60.4
-0.0008	0.006	0.0007	0.0097	60.4
0.0015	0.0067	0.0007	0.0045	60.4
0.0022	0.0082	0.0007	-0.0046	60.4
0.0022	0.0105	0	-0.0105	60.4
-0.0008	0.0067	-0.0008	-0.0105	60.4
-0.0008	0.0052	-0.003	-0.0053	60.4
-0.0008	0.003	-0.003	0.0015	60.4
-0.003	-0.0015	-0.003	0.0052	60.4
-0.003	0.0015	-0.0023	-0.0008	60.4
-0.003	-0.0008	-0.0023	0.0007	60.4
-0.003	-0.0053	-0.0015	0.003	60.4
-0.003	-0.0046	-0.0008	-0.0008	60.4
-0.003	-0.0015	0	-0.0091	60.4
-0.0023	-0.0023	0.0015	-0.0105	60.4
-0.003	-0.0015	0.0037	0.0022	60.4
-0.0023	0	0.003	0.0135	60.4
-0.0046	-0.003	0.0022	0.018	60.3
-0.0046	-0.0068	0.003	0.0142	60.3
-0.003	-0.006	0.0022	0.0157	60.3
-0.003	-0.0053	-0.0008	0.0195	60.3
-0.003	-0.003	0.0007	0.0165	60.3
-0.003	0.0007	0.003	0.0082	60.3
0.0007	-0.0008	0.0052	0.0015	60.3
0.0022	-0.0015	0.0052	-0.0053	60.3
0.003	-0.0008	0.0052	-0.012	60.3
0.0015	-0.0015	0.0082	-0.012	60.3
0.0007	0	0.0067	-0.0128	60.3
0.0015	0.0015	0.0045	-0.0068	60.3
0.0007	-0.0015	0.0037	-0.0038	60.3
0.0007	-0.003	0.0022	0.0007	60.3
0.0007	-0.0023	0.0015	0.006	60.3
0.0015	-0.0008	0.003	0.0075	60.3
0.0015	-0.0008	0.0015	0.0067	60.3
0.0015	-0.0015	0.0015	0.0045	60.3
0.0015	-0.0008	0.0045	0.0045	60.2
0.0022	-0.0008	0.0037	0.0022	60.2
0.003	-0.0008	0.0015	0.0007	60.2
0.0015	0.0007	0.0007	0.0015	60.2
0.0007	0.0022	-0.0015	0.003	60.2
0.0007	0.0007	-0.0008	0.0022	60.2
0.0007	-0.0008	-0.0008	0.0022	60.2
-0.0008	-0.003	-0.0008	0.003	60.2
-0.0023	-0.006	-0.0015	0.0022	60.2
-0.0023	-0.0068	-0.0046	0.0045	60.2
-0.0023	-0.0053	-0.0046	0.006	60.1
-0.003	-0.0068	-0.0023	0.0082	60.1
-0.003	-0.0083	-0.0038	0.006	60.1
-0.0046	-0.0083	-0.0046	0.003	60.1
-0.003	-0.0068	-0.003	-0.0015	60.1
-0.0008	-0.0038	-0.0015	-0.0053	60.1
0	-0.003	-0.0008	0.0015	60
-0.0008	-0.003	-0.0008	0.0067	60
-0.0015	-0.0046	-0.0008	0.003	60
-0.0038	-0.0075	-0.0015	0	60
-0.0053	-0.0105	-0.0023	0.0015	60
-0.0068	-0.0128	-0.0023	0.0045	59.9
-0.0046	-0.0113	0	0.0052	59.9
-0.0008	-0.0046	0	0.0052	59.9
0.0007	-0.0015	0.0015	-0.0008	59.9
0	-0.0015	0.0015	0.0007	59.9
-0.0023	-0.0008	0.0015	0.0067	59.8
-0.0015	-0.0015	0.0022	0.009	59.8
-0.0008	0.0015	0.003	0.006	59.8
0.0007	0.003	0.003	0.006	59.8
0.0007	0.0052	0.0045	0.0067	59.8
0.0007	0.009	0.0052	0.0007	59.8
0.0007	0.0075	0.006	0.0022	59.7
-0.0008	0.006	0.0052	0.0022	59.7
0	0.0015	0.0052	0.0022	59.7
-0.003	-0.0023	0.0067	0.0045	59.7
-0.0038	-0.0068	0.0052	0.0037	59.7
0	-0.0098	0.006	0.0037	59.7
-0.0015	-0.012	0.0052	0.003	59.7
-0.0046	-0.0083	0.0022	0.003	59.7
-0.0046	-0.003	0.0007	-0.0008	59.7
-0.0038	-0.0008	0.0007	-0.003	59.7
-0.0023	0.0037	0.0007	-0.0046	59.6
-0.0015	0.0007	0.0015	-0.0053	59.6
-0.0015	-0.0105	0.0007	-0.0046	59.6
-0.0015	-0.0113	0.0007	-0.0023	59.6
-0.0015	-0.0046	0.0015	-0.0015	59.6
-0.0008	-0.0015	0.0007	-0.0008	59.6
-0.0015	0.003	-0.0008	-0.0038	59.6
0.0007	0.006	0.0007	-0.0053	59.6
0.003	0.0097	0.0015	-0.0038	59.5
0.0022	0.012	0.0015	-0.0038	59.5
0.0022	0.009	0.0007	-0.0038	59.5
0.0022	0.0082	0.0007	-0.0038	59.5
0.0015	0.0075	-0.0008	-0.0075	59.5
0.0007	0.0075	0	-0.0083	59.5
0.003	0.0052	-0.0015	-0.003	59.4
0.0015	0.0045	-0.0023	-0.0015	59.4
0.0007	0.0045	-0.003	0.0007	59.4
0.0015	0.0022	-0.003	0	59.4
0.0015	0	-0.0038	-0.0023	59.4
0.0015	-0.0023	-0.0053	0.0045	59.4
-0.0015	-0.0046	-0.003	0.0142	59.3
-0.0008	-0.0053	-0.0008	0.0157	59.3
0.0007	-0.0068	-0.0008	0.009	59.3
-0.0008	-0.0083	-0.0008	0.009	59.3
-0.0015	-0.0098	-0.0015	0.018	59.3
-0.0023	-0.0158	-0.003	0.018	59.2
-0.003	-0.0188	-0.0046	0.0082	59.2
-0.0023	-0.015	-0.003	0.0015	59.2
-0.0023	-0.0083	-0.003	-0.0046	59.2
-0.0008	-0.0053	-0.003	-0.0053	59.1
0.0007	-0.003	-0.0023	-0.0053	59.1
0.0007	-0.0008	-0.0015	-0.0053	59.1
-0.0008	-0.0015	0.0007	-0.003	59.1
-0.0015	-0.003	0.0007	-0.0023	59
0	-0.0068	0.0015	-0.0023	59
0.0007	-0.006	0.0022	-0.0068	59
-0.0008	-0.0046	-0.0008	-0.0046	59
-0.0008	-0.0046	-0.0023	-0.003	58.9
-0.0015	-0.0046	-0.0015	-0.0023	58.9
-0.0023	-0.0038	-0.0008	-0.0008	58.9
-0.0015	-0.0015	0.0007	-0.0008	58.9
0.0007	-0.0008	-0.0008	0.0015	58.9
0.0015	-0.003	0.0015	0.006	58.8
-0.0008	-0.0015	0.0007	0.0082	58.8
-0.0008	-0.0008	0.0045	0.0075	58.8
0.0007	-0.0023	0.0067	0.0067	58.8
0	-0.0038	0.0052	0.0052	58.7
0.0007	-0.0038	0.0067	0.0045	58.7
0.0007	-0.0023	0.0052	0.0045	58.7
0	-0.0008	0.0067	0.0007	58.7
0.0007	-0.0008	0.006	-0.0008	58.6
-0.0008	-0.0008	0.0037	-0.0015	58.6
-0.0015	-0.0008	0.0045	0.0007	58.6
-0.0023	0	0.0022	0.003	58.5
-0.003	-0.0008	0.0007	0.0037	58.5
-0.003	-0.0008	0.0015	0.0052	58.5
-0.0038	-0.0023	0.0007	0.0052	58.4
-0.0038	-0.0015	-0.0008	0.0052	58.4
-0.0015	-0.0008	-0.0008	0.0037	58.4
-0.0015	-0.0015	0.003	0.003	58.3
-0.0008	0.0007	0.0022	0.0015	58.3
0.0007	0	0.0007	0.0007	58.3
0.0007	-0.0008	0.0015	0.003	58.2
0.0007	-0.0015	0.0007	0.0015	58.2
0	-0.0015	0.0015	0.0007	58.2
-0.0015	0	0.003	0.0007	58.1
-0.0008	-0.0038	0.003	0.0007	58.1
-0.0008	-0.0046	0.0045	0.0007	58
-0.0008	-0.0046	0.0022	0.0052	58
-0.0008	-0.0053	0.0007	0.0097	58
-0.0015	-0.006	0.0007	0.0112	57.9
-0.003	-0.0053	-0.0015	0.0082	57.9
-0.003	-0.0068	0	0.0075	57.9
-0.003	-0.0068	0.0007	0.009	57.8
-0.0046	-0.0083	0	0.0082	57.8
-0.0053	-0.012	0.0015	0.0097	57.7
-0.003	-0.012	0.003	0.009	57.7
-0.003	-0.012	0.0045	0.009	57.7
-0.0046	-0.0105	0.0052	0.009	57.6
-0.003	-0.0091	0.0045	0.0082	57.6
-0.0038	-0.0075	0.003	0.0082	57.6
-0.0046	-0.0046	0.0007	0.0067	57.5
-0.0023	-0.0015	0.0007	0.0037	57.5
-0.003	0.0015	0.0022	-0.0008	57.4
-0.0008	0.0015	0.0007	-0.003	57.4
0	0.003	0.0007	-0.0023	57.3
-0.0008	0.0135	0.0007	-0.0015	57.3
-0.0008	0.0172	0.0007	-0.0008	57.3
0.0007	0.0142	0	-0.0015	57.2
0.0007	0.0135	0.0007	-0.0015	57.2
-0.0008	0.0105	0.0015	-0.003	57.1
0.0015	0.0075	0.0015	-0.0015	57.1
0.0022	0.0067	0.003	0.0007	57.1
0.003	0.0045	0.0007	0	57.1
0.003	0.0052	0.0007	0.003	57
0.0015	0.003	0.0007	0.0045	57
0.003	0.0007	0	0.0045	56.9
0.0007	0	0.0007	0.0045	56.9
0.0007	-0.0015	0.0007	0.0037	56.9
0	-0.0023	0.0015	0.0015	56.8
-0.003	-0.0046	-0.0008	-0.0015	56.8
-0.0023	-0.0083	-0.0015	-0.0023	56.7
-0.0038	-0.0068	0.0007	-0.003	56.7
-0.0046	0.0015	0.0007	-0.0046	56.7
-0.0023	0.0052	0.0015	-0.0068	56.7
-0.0015	0.003	0.0015	-0.0068	56.6
-0.003	0.0007	-0.0008	-0.0068	56.6
-0.0038	-0.0015	-0.0008	-0.006	56.5
-0.0046	-0.0038	0	-0.0068	56.5
-0.0023	-0.0068	-0.0008	-0.0075	56.5
-0.0008	-0.0091	0.0007	-0.0053	56.4
-0.0008	-0.0098	0.0007	-0.0046	56.4
0.0015	-0.0098	0.003	-0.0046	56.4
0.003	-0.0075	0.003	-0.0038	56.4
0.0045	-0.0068	0.0007	0.0007	56.3
0.0052	-0.0083	0.0015	0.003	56.3
0.0045	-0.0098	0.0007	0.0022	56.3
0.0022	-0.0105	0.0015	0.003	56.3
0.0022	-0.0128	0.0007	0.0045	56.2
0.0007	-0.0105	-0.0008	0.0075	56.2
0.0007	-0.0083	0.0015	0.0067	56.2
0	-0.0068	0.0022	0.0075	56.2
-0.0015	-0.0075	0.0007	0.0067	56.2
-0.0015	-0.0105	0.0015	0.006	56.2
-0.0023	-0.0083	0.0007	0.0067	56.2
-0.0046	-0.0068	0.0015	0.006	56.1
-0.0053	-0.003	0.0022	0.0082	56.1
-0.0053	0	0.0007	0.006	56.1
-0.0053	0.0015	0	0.0022	56.1
-0.0053	0.0007	-0.0015	0.003	56
-0.0068	-0.0008	-0.0008	0.0045	56
-0.0053	-0.0015	-0.003	0.003	56
-0.0038	-0.0015	-0.003	0.003	56
-0.0015	-0.0015	0.0007	-0.0008	56
-0.0008	-0.0038	-0.0015	-0.006	56
-0.0015	-0.0046	-0.003	-0.0068	56
0.0015	-0.0053	-0.0023	-0.0075	56
0.0022	-0.0053	-0.0015	-0.0075	56
0.0007	-0.0053	-0.0038	-0.0068	56
0.0007	-0.0053	-0.003	-0.0083	56
0.0007	-0.0068	-0.0008	-0.0098	56
0.0007	-0.0068	-0.003	-0.0091	56
0.0007	-0.0068	-0.0023	-0.0083	56
0.0015	-0.006	-0.0008	-0.0091	56
0.0007	-0.0053	0.0007	-0.0105	56
0.003	-0.0038	0.003	-0.0128	55.9
0.0037	-0.0038	0.0022	-0.0128	55.9
0.0015	-0.006	0.0015	-0.012	55.9
0	-0.0053	0.003	-0.012	55.9
-0.0008	-0.0053	0.003	-0.012	55.9
-0.0015	-0.0068	0.003	-0.0128	55.9
-0.0023	-0.0068	0.0022	-0.0143	55.9
-0.0015	-0.0068	0.003	-0.0105	55.9
-0.0015	-0.003	0.0007	-0.0098	55.9
-0.0015	0.0007	0.0007	-0.0083	55.9
-0.0008	0.0015	0.0015	-0.0075	55.9
-0.0015	0	0.003	-0.0068	55.9
-0.0015	-0.0008	0.003	-0.0083	55.9
-0.0008	0	0.003	-0.0068	55.9
0.0015	-0.0008	0.0015	-0.0023	55.9
0.0007	-0.003	-0.0008	-0.006	55.9
-0.0008	-0.0046	0.0007	-0.0046	55.9
0.0015	-0.0008	0.0015	0	55.9
0.0037	-0.0008	0.0015	0.0015	55.9
0.0045	-0.0008	0.003	0.0022	55.9
0.0022	-0.0015	0.003	0.0015	55.9
0.0007	-0.0053	0.0015	0.0015	55.9
0	-0.0053	0.0007	0	55.9
0	-0.0053	0.0022	0.0015	55.9
0	-0.0046	0.0022	0.003	55.9
0.0007	0.0007	0.0007	0.003	55.9
-0.0008	0.0037	0.0007	0.0052	55.9
-0.0008	0.0052	0.0022	0.0067	55.9
0	0.0052	0.0015	0.0067	56
-0.0015	0.0037	0.0015	0.0075	56
-0.0008	0.0045	0.0015	0.0082	56
-0.0008	0.0045	0.0022	0.0105	56
-0.0015	0.0045	0.0022	0.0165	56
-0.0008	-0.0008	0.0022	0.0202	56
-0.0015	-0.003	0.0007	0.0172	56
-0.0015	-0.003	0.0007	0.012	56
-0.0015	-0.0008	0.0015	0.0067	56
-0.0015	0.0007	0.0007	0.0082	56
-0.0008	0.0015	0.0007	0.012	56.1
0.0015	0.003	0.0007	0.0135	56.1
0.0015	0.003	0.003	0.0142	56.1
-0.003	0.003	0.0037	0.0135	56.1
-0.003	0.0015	0.0037	0.0052	56.1
-0.003	0.0015	0.0022	-0.0015	56.1
-0.0046	0.0015	0.003	0.0007	56.1
-0.0068	-0.0015	0.0015	0.0007	56.1
-0.006	-0.0053	-0.0008	0.0015	56.1
-0.0046	-0.0046	0.0007	0.003	56.1
-0.0046	-0.003	0.0007	0.0075	56.1
-0.0023	-0.003	0.0015	0.0165	56.1
-0.0008	-0.003	0.003	0.0195	56.2
-0.0008	-0.0023	0.003	0.018	56.2
-0.0008	-0.0015	0.003	0.0157	56.2
-0.0008	-0.0008	0.0007	0.009	56.2
-0.0008	0.0007	0.0007	0.0052	56.2
-0.0008	-0.0008	0.0007	0.0045	56.2
-0.0015	-0.0015	0.0007	0.0037	56.2
-0.0015	-0.0015	-0.0008	0.003	56.2
-0.0015	-0.0038	-0.0015	0.0037	56.2
-0.003	-0.0046	0	0.0052	56.2
-0.0023	-0.0046	0	0.006	56.2
-0.0015	-0.0038	0.0007	0.006	56.2
-0.0015	-0.0023	0.0007	0.0045	56.2
-0.0008	-0.0008	0.0007	0.0067	56.2
-0.003	0.0007	-0.0008	0.0052	56.2
-0.003	-0.0008	0.0007	0.003	56.2
-0.0023	-0.0015	0.0007	0.0037	56.2
-0.003	-0.0023	0.0015	0.0045	56.2
-0.0046	-0.0015	0.003	0.006	56.2
-0.0015	0.0007	0.0037	0.0052	56.2
0	0.0015	0.0045	0.003	56.2
0	0.0022	0.0015	0.003	56.2
0.0022	0.0007	0	0.0015	56.2
0.003	0.0015	-0.0008	0.0007	56.2
0.003	0	-0.003	0.0007	56.2
0.003	0	-0.0023	-0.0008	56.2
0.003	0.0007	0.0015	-0.0008	56.2
0.003	-0.0015	0.0015	0.0022	56.2
0.0022	-0.003	0	0.0037	56.2
0.0015	-0.0046	0	0.0052	56.2
0.0015	-0.0068	0	0.0075	56.3
0.0007	-0.0068	0.003	0.0082	56.3
0.0007	-0.0075	0.003	0.009	56.3
0.0007	-0.0053	0.0007	0.0082	56.3
0	-0.0015	0	0.0082	56.3
0	-0.0008	0.0007	0.0075	56.3
-0.0023	-0.003	0.0007	0.0052	56.3
-0.003	-0.0038	0.0015	0.0067	56.3
-0.003	-0.0023	0.0015	0.0067	56.3
-0.0038	-0.0008	0	0.0067	56.3
-0.0023	0.0007	0	0.0067	56.3
-0.0008	0.0007	0.0007	0.0052	56.3
-0.0015	-0.0015	0.0015	0.0022	56.3
-0.0015	-0.0015	0.0015	-0.0008	56.3
-0.0023	-0.0008	-0.0008	-0.0023	56.3
-0.0008	-0.0008	-0.0015	-0.0068	56.3
0.0007	-0.0008	-0.0015	-0.012	56.3
-0.0008	-0.0038	-0.0038	-0.012	56.3
-0.0015	-0.0023	-0.0046	-0.0135	56.3
-0.0015	0.0015	-0.0038	-0.0135	56.3
0.0007	0.0045	-0.003	-0.012	56.3
0	0.0045	-0.003	-0.0105	56.3
0.0015	0.006	-0.0023	-0.0068	56.3
0.003	0.0045	-0.003	-0.0053	56.3
0.0007	0.0007	-0.003	-0.0023	56.3
0.0007	-0.0008	-0.0038	-0.0015	56.3
0.0022	-0.0023	-0.0046	0.0015	56.3
0.0037	-0.0015	-0.003	-0.0008	56.3
0.0045	-0.0023	-0.0008	-0.0038	56.3
0.003	-0.003	0.0022	-0.0038	56.3
0.0022	-0.0075	0.0045	-0.0046	56.3
0.0022	-0.0091	0.0037	-0.0053	56.3
0.0015	-0.0083	0.003	-0.0068	56.3
0.0007	-0.0083	0.003	-0.0068	56.3
0.0007	-0.0068	0.003	-0.006	56.3
0.0007	-0.0091	0.003	-0.0046	56.3
-0.0008	-0.0098	0.0037	-0.0015	56.3
-0.0008	-0.0098	0.0052	-0.0008	56.3
-0.0038	-0.012	0.0045	-0.003	56.3
-0.0053	-0.0105	0.0045	-0.0053	56.3
-0.0046	-0.0105	0.0045	-0.0038	56.3
-0.0046	-0.0091	0.003	-0.003	56.3
-0.003	-0.0083	0.0015	-0.0015	56.3
-0.0046	-0.0075	0.0007	-0.0015	56.3
-0.0053	-0.0068	0	-0.0008	56.3
-0.003	-0.0053	0	0.003	56.3
-0.0038	-0.0038	0.0007	0.0052	56.3
-0.003	-0.0038	0.0015	0.0075	56.3
-0.0023	-0.0015	0.0015	0.0067	56.3
-0.0023	0.0015	0.0015	0.006	56.3
-0.0008	0.0015	0.003	0.003	56.3
-0.0008	0.003	0.003	0.0015	56.3
-0.0008	0.003	0.0015	-0.0008	56.3
-0.003	0.0045	0.0015	-0.0023	56.3
-0.0023	0.0037	-0.0008	0	56.3
-0.0015	0.0015	-0.0015	0.0015	56.3
-0.0015	0.0007	0	0.003	56.3
-0.0015	0.0007	0.0007	0.0022	56.3
-0.0015	0	0.0007	0.0037	56.3
-0.0008	-0.0008	0.0022	0.003	56.3
0.0007	0.0007	0.003	-0.0015	56.3
-0.0008	0.0022	0.0015	-0.0046	56.3
-0.0008	0.0015	0.003	-0.0053	56.3
0.0007	-0.0008	0.003	-0.0083	56.3
-0.0008	0.0007	0.0045	-0.0053	56.3
-0.0015	0.0015	0.0037	-0.0053	56.2
-0.0008	-0.0008	0.0045	-0.0046	56.2
-0.0015	-0.003	0.0045	-0.0015	56.2
-0.0015	-0.0038	0.0007	-0.0015	56.2
-0.0008	-0.0046	0.0015	0.0007	56.2
-0.0023	-0.0068	0.0007	0.0007	56.2
0	-0.0083	0.0007	0.0007	56.2
0.0007	-0.0091	0.0015	-0.0015	56.2
0	-0.0105	0.0007	-0.0046	56.2
0.0007	-0.0113	-0.0008	-0.0023	56.2
0.003	-0.0091	-0.0015	-0.0053	56.3
0.0007	-0.0068	-0.0023	-0.0083	56.3
0.0007	-0.0068	-0.0023	-0.0105	56.3
0	-0.0053	-0.0008	-0.0113	56.3
-0.003	-0.003	-0.0015	-0.0105	56.3
-0.0023	-0.0015	-0.0008	-0.0068	56.3
0.0007	-0.0015	-0.0015	-0.0046	56.3
0	-0.003	-0.0008	-0.0046	56.3
-0.0015	-0.0015	-0.0015	-0.003	56.3
-0.0008	-0.0015	-0.003	0.0037	56.3
-0.0015	-0.0015	-0.003	0.0067	56.3
-0.003	-0.0015	-0.0015	0.0105	56.3
-0.0038	-0.003	0	0.012	56.3
