File Name: 9Nmar.log
Channel 1: 'RF', 5343 values, engineering units: mV, no filters.
Channel 2: 'BF', 5343 values, engineering units: mV, no filters.
Channel 3: 'VM', 5343 values, engineering units: mV, no filters.
Channel 4: 'ST', 5343 values, engineering units: mV, no filters.
Channel 5: 'FX', 268 values, engineering units: deg, no filters, extrapolated from 50 to 1000 samples per second.

-0.003	0.0007	0.0045	-0.0046	43.7
-0.0015	0.0022	0.0022	-0.0038	43.8
-0.0008	0.0045	0	-0.003	43.9
0	0.0067	0.0015	-0.0038	43.9
0.0007	0.0067	0	-0.003	44
0.0007	0.0052	-0.0015	-0.0015	44.1
0.0015	0.0015	-0.0015	-0.0023	44.1
0.0015	-0.0046	0.0015	-0.0046	44.1
0	-0.0105	0.0022	-0.003	44.2
0.0007	-0.0113	0.0015	-0.003	44.3
-0.0008	-0.0075	0.0007	-0.0015	44.3
0	0	-0.0015	-0.003	44.4
0	0.003	0.0007	-0.0023	44.5
-0.0015	0.0045	0.0015	0	44.5
-0.0008	0.006	0.0037	0.0015	44.5
-0.0015	0.0052	0.006	0.0015	44.6
-0.0008	0.0067	0.0075	0.0015	44.7
0	0.009	0.006	0.0007	44.7
-0.0008	0.0105	0.003	-0.0008	44.8
-0.0008	0.009	0.003	0.0015	44.9
-0.0015	0.0067	0.0037	0.0022	44.9
-0.0008	0.0045	0.0045	0.0022	44.9
0.0007	0.0045	0.003	0.0015	45
0.0007	0.0052	0.0037	0.0007	45
-0.0008	0.003	0.003	0.0007	45
-0.0015	-0.0008	0.003	0.0015	45
-0.0015	-0.0038	0.0045	0.0007	45
0	-0.006	0.0045	-0.0008	45
0.0007	-0.0105	0.0045	-0.003	45.1
0.0007	-0.015	0.0037	-0.0046	45.1
-0.0008	-0.0165	0.0007	-0.0046	45.1
0.0007	-0.012	-0.0008	-0.0053	45.1
0.0015	-0.0083	-0.0008	-0.0068	45.1
0	-0.0068	-0.0008	-0.0083	45.2
0.0007	-0.0038	-0.0008	-0.0075	45.2
0.0022	0.0015	-0.0015	-0.0053	45.2
0.0015	0.0045	-0.0015	-0.0068	45.2
0.0015	0.006	-0.0023	-0.0053	45.3
0.0015	0.0082	-0.0015	-0.0053	45.3
0.0007	0.0105	-0.003	-0.0068	45.3
0	0.012	-0.003	-0.0068	45.3
-0.0008	0.0105	-0.003	-0.0083	45.3
0	0.0097	-0.003	-0.0075	45.3
-0.0015	0.0105	-0.0008	-0.0068	45.3
-0.0015	0.0105	-0.0015	-0.0075	45.3
-0.0008	0.012	-0.0038	-0.0075	45.2
-0.0008	0.0097	-0.0038	-0.0083	45.2
-0.0015	0.003	-0.0023	-0.0083	45.2
-0.0008	-0.0015	-0.0015	-0.006	45.1
-0.0008	-0.0008	-0.0008	-0.0053	45.1
-0.0023	-0.0046	0.0007	-0.0038	45.1
-0.003	-0.0068	0.0015	-0.0015	45
-0.0015	-0.0053	0.0015	-0.0015	45
-0.003	-0.0046	0.0015	-0.0008	45
-0.0053	-0.003	-0.0008	0.0015	45
-0.0046	0	0.0007	0.0007	45
-0.0038	0.0022	0.0022	-0.0015	44.9
-0.0038	0.0015	0.0015	-0.0015	44.9
-0.0046	0.003	0.003	-0.0015	44.9
-0.0046	0.0052	0.003	-0.0008	44.9
-0.0053	0.006	0.003	0.0007	44.8
-0.0053	0.003	0.0007	0.0015	44.8
-0.0053	0.0037	-0.0015	0.0015	44.7
-0.0046	0.0052	-0.0023	-0.0008	44.6
-0.0038	0.0052	-0.0038	-0.0015	44.5
-0.0023	0.0052	-0.0015	-0.0015	44.5
-0.003	0.0052	-0.0008	-0.0023	44.4
-0.0038	0.0082	-0.0008	-0.0008	44.4
-0.0038	0.009	-0.003	-0.0008	44.3
-0.003	0.0075	-0.0015	-0.0008	44.2
-0.0038	0.0045	-0.0008	-0.0008	44.1
-0.0053	0.0022	-0.0023	0	44.1
-0.0046	0.0052	-0.0008	0.0015	44.1
-0.0038	0.0052	-0.0008	0.0007	44
-0.0053	0.0067	-0.0015	0	43.9
-0.0046	0.0075	-0.0008	0.0022	43.8
-0.003	0.0075	-0.0015	0.003	43.8
-0.003	0.0097	-0.0046	0.003	43.7
-0.0015	0.0142	-0.0053	0.003	43.6
-0.0023	0.012	-0.003	0.003	43.6
-0.003	0.009	-0.0023	0.003	43.5
-0.0015	0.0112	0.0007	0.0022	43.4
-0.0015	0.009	0.0015	0.003	43.3
-0.0008	0.009	0.0007	0.0037	43.2
0	0.009	0.0015	0.0037	43.2
0	0.0082	0.0022	0.0015	43.1
-0.0008	0.0067	0.0022	0.003	43
0	0.0037	0.0022	0.0037	42.9
0.0015	0.0045	0.0022	0.0045	42.8
0.0007	0.003	0.0015	0.0037	42.7
0.0015	-0.0015	0.0022	0.0045	42.7
-0.0015	0.0007	0.0045	0.006	42.6
-0.0008	0.0022	0.0052	0.0037	42.5
-0.0015	0.0007	0.0052	0.0045	42.4
-0.0046	-0.0015	0.0037	0.003	42.3
-0.003	-0.0023	0.0007	0.0022	42.3
-0.003	-0.003	0	0.003	42.2
-0.0046	-0.0046	-0.0008	0.0015	42.1
-0.0046	-0.0053	-0.0008	0.0007	42
-0.0046	-0.003	0.0015	0	41.9
-0.0053	-0.003	0.0007	0.0007	41.8
-0.0046	-0.0046	0.003	-0.003	41.7
-0.0015	-0.0046	0.0015	-0.0046	41.6
-0.003	-0.0046	0.0015	-0.003	41.5
-0.003	-0.0083	0.0007	-0.0046	41.4
-0.0015	-0.0105	0.0007	-0.0053	41.3
0	-0.0091	0	-0.0046	41.1
0.0015	-0.0083	0	-0.0046	41
0.0007	-0.0091	0	-0.0046	40.9
0	-0.0098	-0.0015	-0.003	40.8
0	-0.0098	-0.0008	-0.003	40.7
0.0007	-0.0091	0.0007	-0.003	40.5
0.0007	-0.0083	-0.0008	-0.0038	40.5
0.0007	-0.0083	-0.0015	-0.0023	40.3
0.0022	-0.0091	-0.003	-0.003	40.2
0.0015	-0.0113	-0.0008	-0.0053	40.1
0	-0.0158	-0.0015	-0.0053	40
-0.0008	-0.0181	-0.0008	-0.0046	39.9
-0.0015	-0.0188	0	-0.0046	39.7
-0.0015	-0.0195	0.0007	-0.0046	39.6
-0.003	-0.0203	0.0015	-0.003	39.5
-0.0046	-0.0225	0.0007	-0.0053	39.3
-0.003	-0.0195	0.0015	-0.006	39.2
-0.003	-0.0181	0.0007	-0.0038	39
-0.0015	-0.0143	0.0015	-0.0046	38.8
-0.003	-0.0083	0.0007	-0.0015	38.6
-0.0015	-0.003	-0.003	-0.0015	38.5
-0.0008	0.003	-0.0046	-0.0015	38.3
-0.0015	-0.0015	-0.0068	-0.0008	38.2
0.0007	-0.0158	-0.0068	-0.003	38
0	-0.0128	-0.006	-0.0046	37.8
-0.0015	-0.0143	-0.0053	-0.0053	37.7
-0.003	-0.0165	-0.0053	-0.0023	37.5
-0.003	-0.0053	-0.0053	0	37.3
-0.0008	-0.0083	-0.006	-0.0008	37.2
-0.0008	-0.012	-0.006	0	37
-0.0015	-0.0098	-0.0053	-0.0008	36.9
-0.0015	-0.0083	-0.003	0.0015	36.7
-0.0008	-0.006	-0.0023	0.0067	36.5
-0.0015	0.0105	-0.0008	0.0105	36.4
-0.0023	0.0202	0	0.0135	36.1
-0.0046	0.0007	-0.0015	0.0045	36
-0.0046	-0.0158	-0.0023	-0.0008	35.7
-0.0038	-0.0128	-0.0015	0	35.5
-0.0038	-0.0091	0.0007	-0.0046	35.3
-0.0046	-0.0105	0.0007	-0.003	35.1
-0.0053	-0.0143	0.003	-0.003	34.9
-0.0046	-0.0158	0.0015	-0.003	34.6
-0.0046	-0.0256	0.0007	-0.0053	34.5
-0.0053	-0.042	0	-0.0091	34.2
-0.006	-0.0458	0	-0.0083	34
-0.0053	-0.0405	0.0007	-0.0046	33.8
-0.0038	-0.0285	-0.0008	0.0007	33.6
-0.0046	0.0022	0	0.0045	33.4
-0.0038	0.039	0.0007	0.0052	33.2
-0.0015	0.0367	0.0037	0.0045	32.9
0.0015	0.0802	0.0045	0.0075	32.7
0.003	0.1537	0.003	0.0127	32.5
0.0022	0.0952	0.0045	0.003	32.3
0.003	0.0097	0.003	-0.0113	32.1
0.0007	0	0.003	-0.0091	31.8
0.0007	0.0105	0.0045	-0.0038	31.6
0	0	0.0037	-0.0046	31.4
-0.003	-0.0038	0.003	-0.0083	31.1
-0.0015	-0.0091	0.0007	-0.0135	30.9
-0.0008	-0.0143	-0.0008	-0.0165	30.6
-0.0008	-0.0105	0.0015	-0.0158	30.4
-0.0015	-0.006	0.003	-0.0143	30.2
-0.0015	0.003	0.0045	-0.0083	29.9
-0.0015	0.0127	0.0037	0.0015	29.7
0.0015	0.048	0.003	0.0067	29.4
0.0022	0.0705	0.0037	0.009	29.2
0.0015	0.0382	0.0007	0.0165	29
0.0015	-0.0068	-0.0015	0.0202	28.7
-0.0008	-0.0278	-0.0015	0.009	28.5
-0.003	-0.0068	-0.0008	-0.0015	28.3
-0.003	0.0465	-0.0008	0.0015	28
-0.0023	0.0577	-0.0008	0.003	27.8
-0.0008	0.0172	-0.0015	0	27.5
-0.0015	0.0007	-0.0023	0.0037	27.3
-0.0015	0.0052	-0.0015	0.0045	27
-0.003	-0.0053	-0.0015	0.0022	26.8
-0.0046	-0.027	0	0.0075	26.5
-0.0023	-0.0383	0.0015	0.006	26.3
0	-0.0518	0.0022	-0.003	26
0.003	-0.1013	0.003	-0.015	25.7
0.0015	-0.1343	0	-0.0173	25.5
0.0007	-0.1178	-0.0023	-0.0023	25.2
0	-0.063	-0.0015	0.009	25
-0.0023	-0.0158	0	0.021	24.7
-0.003	-0.0158	0.0022	0.018	24.4
-0.0046	-0.0293	0.0045	0.012	24.2
-0.0038	0.0322	0.0045	0.0285	23.9
-0.003	0.2017	0.0045	0.0292	23.7
-0.0046	0.249	0.0015	0.0052	23.4
-0.006	0.1087	-0.003	-0.0248	23.1
-0.0053	-0.0098	-0.0046	-0.027	22.9
0.0007	-0.0225	-0.0046	-0.0248	22.6
0.003	0.0202	-0.003	-0.024	22.4
0.0007	0.0165	-0.003	-0.0128	22.1
-0.003	-0.0533	-0.0015	-0.0158	21.8
-0.0083	-0.0878	-0.0008	-0.0113	21.6
-0.0075	-0.075	-0.0015	0.003	21.3
0.0015	0.0337	-0.0015	0.0225	21.1
0.0082	0.1447	-0.0015	0.0262	20.9
0.0105	0.0877	-0.0038	0.0195	20.6
0.0127	0.0097	-0.0046	0.0045	20.4
0.0067	-0.0346	-0.0068	-0.0128	20.2
-0.0008	-0.0353	-0.0053	-0.0068	19.9
-0.003	0.0225	-0.0046	-0.0128	19.7
-0.0083	-0.0008	-0.0053	-0.0203	19.4
-0.0083	-0.048	-0.0023	-0.0181	19.2
-0.0053	-0.0593	-0.0015	-0.015	18.9
-0.0015	-0.0293	0.003	-0.0068	18.7
0.0007	-0.012	0.0067	0.0007	18.5
-0.003	-0.0405	0.0045	0.0082	18.2
-0.0083	-0.0308	0.0067	0.0075	18
-0.0046	-0.0368	0.006	-0.0135	17.8
-0.003	-0.057	0.0045	-0.0353	17.5
-0.0083	-0.0398	0.0045	-0.0308	17.3
-0.0083	0.021	0.003	-0.0015	17
-0.0113	0.0082	0.003	0.0075	16.8
-0.0135	-0.0765	0.0045	-0.003	16.6
-0.0105	-0.0285	0.0082	0.0082	16.4
-0.0068	0.0675	0.009	0.0307	16.2
-0.0068	0.129	0.0105	0.0465	16
-0.0068	0.0952	0.0075	0.0307	15.8
-0.0015	0.0615	0.003	0.006	15.6
0.0015	0.0607	0.0007	-0.0023	15.4
0.0015	-0.042	-0.0008	-0.006	15.2
0.0052	-0.0856	-0.0008	-0.0105	14.9
0.0082	-0.1335	-0.0015	-0.0158	14.8
0.0075	-0.1365	-0.003	-0.0053	14.5
0.003	-0.1073	-0.0053	-0.0105	14.4
0	-0.1103	-0.0053	-0.012	14.1
-0.0015	-0.0398	-0.0015	-0.0083	13.9
-0.0015	0.0502	-0.0008	-0.012	13.7
-0.0046	0.102	0.0007	-0.0135	13.5
-0.0068	0.0127	0.0037	-0.012	13.3
-0.0053	-0.0091	0.0075	-0.006	13.1
-0.0068	0.0157	0.0052	-0.0173	12.8
-0.012	-0.003	0.0007	-0.0256	12.7
-0.0105	-0.003	-0.0015	-0.0233	12.5
-0.0015	0.0037	-0.0068	-0.0068	12.3
0.0105	0.0772	-0.0091	0.018	12.2
0.0172	0.0637	-0.0098	0.0345	12
0.012	0.0157	-0.0091	0.0495	11.8
0.0052	0.006	-0.0098	0.054	11.7
0.0007	-0.0218	-0.0083	0.033	11.5
-0.003	-0.0765	-0.0046	0.0135	11.3
-0.0053	-0.0878	-0.0008	0.0112	11.1
-0.0053	-0.0353	0.0007	-0.0091	11
-0.0068	-0.0346	-0.0046	-0.0203	10.8
-0.0158	-0.0256	-0.0075	-0.0218	10.6
-0.0173	0.039	-0.0083	-0.0203	10.4
-0.0158	0.039	-0.0068	-0.0135	10.3
-0.0158	-0.0675	-0.0046	-0.012	10.1
-0.0135	-0.09	-0.003	-0.015	9.9
-0.0128	-0.0706	-0.0015	-0.0218	9.8
-0.0091	-0.0533	0.0007	-0.0195	9.6
-0.0046	0.0142	0.0037	-0.0188	9.4
0.0007	0.0712	0.0052	-0.0165	9.3
0.0067	0.1485	0.003	0.009	9.1
0.0127	0.153	0.0015	0.0307	9
0.0172	0.0975	0.003	0.0277	8.9
0.018	0.024	0.003	0.0315	8.7
0.0165	-0.024	0.0022	0.0337	8.6
0.0157	-0.0105	-0.0008	0.0247	8.5
0.0202	-0.003	0.0015	0.0165	8.3
0.0165	0.0172	0.0052	0.0067	8.2
0.0037	-0.0346	0.006	0.0045	8
-0.0083	-0.0691	0.0067	0.0045	7.9
-0.0143	0.006	0.0045	-0.0023	7.7
-0.0143	0.0765	-0.0008	-0.012	7.6
-0.0128	0.099	0	0.0007	7.5
-0.0105	0.0277	-0.0008	0.012	7.3
-0.012	-0.042	-0.003	0.0067	7.2
-0.0165	-0.0443	-0.003	-0.003	7.1
-0.0203	-0.0263	-0.003	-0.0008	6.9
-0.0233	-0.0105	-0.003	0.0067	6.8
-0.0195	-0.0256	-0.0023	-0.0068	6.6
-0.0113	-0.0293	-0.0008	-0.0091	6.6
-0.0038	-0.0098	0.0022	-0.003	6.4
0.009	0.0577	0.0045	-0.0015	6.3
0.0165	0.0945	0.0052	0.018	6.3
0.0105	0.0555	0.0067	0.024	6.1
-0.0023	-0.039	0.0067	-0.0188	6
-0.012	-0.1178	0.0045	-0.0413	5.9
-0.0075	-0.1305	0.0052	-0.0346	5.8
0.0007	-0.1335	0.006	-0.027	5.7
0.0165	-0.0143	0.0075	-0.0023	5.6
0.03	0.0787	0.009	0.0082	5.5
0.0127	0.0937	0.0127	0.0082	5.4
-0.0038	0.1455	0.018	0.0067	5.3
-0.0083	0.0862	0.0142	0.0105	5.2
-0.0128	0.06	0.003	0.0015	5.1
-0.0105	0.1177	-0.0053	-0.0165	4.9
-0.0128	0.0435	-0.012	-0.0218	4.9
-0.0195	-0.0773	-0.0181	-0.0308	4.8
-0.0098	-0.0413	-0.0195	-0.021	4.6
0.0105	0.0045	-0.0165	-0.0053	4.5
0.0067	0.03	-0.0143	0.0165	4.5
-0.0053	0.1125	-0.0165	0.0465	4.4
-0.0105	0.1515	-0.0173	0.0397	4.3
-0.0046	0.072	-0.0083	0.0052	4.3
0.0105	-0.0593	0.0052	-0.0195	4.2
0.0142	-0.0691	0.0082	-0.0443	4.1
0.0157	-0.1118	0.0015	-0.0608	4
0.0142	-0.1035	0.0007	-0.0503	4
0.0067	-0.0593	-0.0008	-0.0413	3.9
0.0045	-0.0758	-0.0053	-0.0353	3.8
0.003	-0.0953	-0.0068	-0.039	3.7
0.006	-0.1163	-0.0015	-0.033	3.7
0.0007	-0.0293	0.0075	-0.0053	3.6
-0.0015	0.0382	0.0127	0.0195	3.6
0.0015	0.0592	0.0157	0.0502	3.5
-0.0015	0.0525	0.0127	0.0637	3.4
-0.0075	0.0795	0.0052	0.063	3.3
-0.0158	0.1035	0.0015	0.0885	3.2
-0.0113	0.0577	0.0015	0.0802	3.2
-0.003	-0.0225	0.003	0.0405	3.1
0.0015	-0.0878	0.0022	0.012	3.1
0.0037	-0.0803	0.0007	-0.0023	3.1
-0.0098	-0.0915	0.0007	-0.0083	3
-0.0143	-0.1013	0.0007	-0.0203	3
0.0067	-0.0675	-0.0008	-0.0195	2.9
0.018	0.039	0.0015	-0.024	2.9
0.024	0.1237	0.0015	-0.0361	2.9
0.0195	0.0592	0.0007	-0.0436	2.8
-0.0008	-0.0181	0.0052	-0.0503	2.8
-0.0075	-0.0233	-0.0015	-0.039	2.8
-0.0128	-0.0495	-0.0105	-0.0225	2.7
-0.0181	-0.0578	-0.015	-0.003	2.7
-0.0165	-0.0263	-0.0098	0.021	2.7
-0.0098	0.012	-0.0008	0.0382	2.6
-0.0015	0.0765	0.0052	0.0495	2.6
-0.0015	0.1387	0.018	0.063	2.6
-0.006	0.093	0.0165	0.0502	2.6
-0.012	0.024	0.009	0.0142	2.5
-0.0105	0.0345	0.0067	-0.0008	2.5
-0.0158	-0.0083	-0.0015	-0.0091	2.4
-0.024	-0.0353	-0.0053	-0.021	2.5
-0.0225	-0.0465	-0.012	-0.0263	2.5
-0.012	-0.075	-0.0158	-0.0263	2.6
0.0142	-0.0518	-0.0181	-0.021	2.6
0.033	-0.0525	-0.0188	-0.0225	2.7
0.021	-0.0721	-0.0181	-0.033	2.7
0.003	-0.0975	-0.0188	-0.0353	2.8
-0.0068	-0.0833	-0.0195	-0.0181	2.8
0	-0.0158	-0.0293	0.0015	2.9
0.0135	0.042	-0.03	0.009	2.9
0.045	0.0442	-0.0188	0.0157	3
0.1117	0.0187	-0.003	0.0187	3
0.1162	0.057	0.009	0.0277	3.1
0.0382	0.0952	0.0112	0.0292	3.1
-0.0113	0.0795	0.012	0.018	3.2
-0.045	0.0255	0.0075	0.0217	3.2
-0.0728	0.0075	0.0202	0.006	3.3
-0.0893	-0.0008	0.027	-0.0091	3.3
-0.0893	-0.0135	0.021	0.0045	3.4
-0.054	0.0247	0.0195	0.0045	3.4
-0.0398	0.042	0.0067	0.0142	3.5
-0.033	-0.0233	0.0045	0.0165	3.6
-0.0173	-0.0856	0.0015	0.0082	3.6
-0.0008	-0.0653	-0.0105	0.0067	3.7
0.0127	-0.0893	-0.0203	-0.0053	3.8
0.03	-0.1006	-0.0181	-0.0285	3.9
0.0367	-0.0728	-0.0023	-0.0458	4
0.0105	-0.0368	0.012	-0.0315	4
-0.0263	0.084	0.0202	-0.015	4.1
-0.0458	0.1132	0.0135	-0.0023	4.2
-0.0428	0.0675	0	0.0045	4.3
-0.0285	0.1102	0.0022	0.009	4.4
-0.0015	0.0787	0.0082	0.009	4.5
0.0082	-0.0046	-0.0053	0.003	4.5
-0.0008	-0.0465	-0.0135	-0.0053	4.6
0	-0.1028	-0.0068	-0.0203	4.7
0.0037	-0.0675	0.0007	-0.0135	4.8
0.0052	-0.048	0.003	-0.0165	4.8
0	-0.0691	0.0007	-0.0315	4.9
0.0105	-0.057	0.0052	-0.0256	5
0.0307	-0.057	0.0082	-0.006	5
0.0442	-0.0383	0.018	0.009	5.1
0.0637	-0.0615	0.0142	0.0112	5.1
0.0637	-0.0825	0.0007	0.018	5.2
0.042	0.0082	0.009	0.0142	5.3
0.0067	0.1245	0.0082	0.021	5.3
-0.0293	0.168	-0.0038	0.0465	5.3
-0.0233	0.165	-0.0046	0.021	5.4
-0.0165	0.0495	-0.0015	-0.0608	5.4
-0.039	-0.135	-0.003	-0.1028	5.5
-0.057	-0.1913	0.0015	-0.0856	5.5
-0.0405	-0.15	0.0112	-0.0728	5.6
-0.0053	-0.0773	0.0165	-0.0743	5.6
0.0262	-0.0788	0.0262	-0.0563	5.7
0.0367	-0.0046	0.048	0.0022	5.8
0.0112	0.2917	0.0457	0.0667	5.8
-0.0083	0.4372	0.0127	0.1335	5.8
-0.0181	0.3165	-0.0083	0.156	5.9
-0.0233	0.1567	-0.027	0.0952	5.9
0.003	0.0202	-0.0436	0.0292	6
0.0555	-0.0533	-0.0436	0.0007	5.9
0.15	-0.0308	-0.0308	-0.0053	5.9
0.213	-0.039	-0.0128	-0.012	5.8
0.1087	-0.0653	-0.0158	-0.0143	5.7
-0.0225	-0.096	-0.0323	-0.021	5.6
-0.078	-0.1088	-0.0383	-0.0165	5.6
-0.1283	-0.1411	-0.0233	0.0007	5.5
-0.1253	-0.1785	-0.0023	-0.0008	5.4
-0.093	-0.1673	0.0195	-0.03	5.3
-0.0645	-0.147	0.042	-0.0323	5.3
-0.0615	-0.0578	0.0472	-0.0083	5.2
-0.0735	0.0315	0.045	0.0195	5.1
-0.0233	0.0727	0.0292	0.0382	5
0.039	0.2107	0.012	0.0352	4.9
0.0682	0.3195	0.0105	0.0292	4.9
0.0495	0.1147	0.024	0.0082	4.8
-0.0053	-0.0225	0.0315	0.003	4.7
-0.0533	-0.0165	0.024	0.003	4.6
-0.0533	-0.0938	0.0255	-0.0203	4.6
-0.0195	-0.1043	0.0225	-0.0428	4.5
-0.006	-0.0825	0.0015	-0.0578	4.5
0.003	-0.0293	-0.0083	-0.0488	4.4
0.0112	0.039	-0.0128	-0.0158	4.3
0.0202	0.0735	-0.0083	0.0165	4.3
0.0187	0.0795	-0.003	0.0397	4.2
-0.0038	0.0442	-0.0053	0.0517	4.1
-0.0165	0.0292	0.0165	0.0532	4.1
-0.027	0.069	0.0285	0.0487	4
-0.0105	0.024	0.0127	0.0315	4
0.0217	-0.0465	0.0067	0.0285	3.9
0.0195	-0.0338	0.0105	0.0322	3.9
-0.0128	-0.0346	0.0082	0.021	3.8
-0.0443	-0.0293	0.0105	0.0067	3.7
-0.0578	-0.0346	-0.0015	-0.0015	3.7
-0.0181	-0.0375	-0.0083	0	3.6
0.0292	-0.0353	0.0165	0.003	3.6
-0.0008	-0.033	0.027	0.0007	3.5
-0.0555	-0.0263	0.012	-0.003	3.5
-0.0818	-0.0323	-0.0165	-0.0053	3.4
-0.057	-0.024	-0.039	-0.0068	3.3
-0.0218	-0.0248	-0.027	-0.0128	3.4
-0.0218	-0.0218	-0.0218	-0.012	3.6
0.0022	-0.0143	-0.024	-0.0091	3.7
0.0307	-0.012	-0.0195	-0.0068	3.9
0.072	-0.0075	-0.0135	-0.0075	4
0.099	-0.0083	-0.0068	-0.0128	4.1
0.09	-0.015	-0.012	-0.0188	4.3
0.1155	-0.0158	-0.0105	-0.0218	4.4
0.108	-0.0188	-0.0105	-0.0225	4.5
0.0652	-0.0248	-0.0188	-0.0233	4.7
0.0202	-0.0181	-0.0256	-0.0278	4.9
-0.0165	-0.0113	-0.0315	-0.0293	5
-0.021	-0.0143	-0.0233	-0.0278	5.1
-0.0233	-0.0263	-0.0158	-0.024	5.3
-0.0053	-0.012	-0.006	-0.0023	5.4
-0.0068	0.0142	0.003	0.0105	5.5
-0.0188	0.0352	0.0007	0.0202	5.7
-0.0188	0.0555	-0.0098	0.0255	5.8
-0.0248	0.0577	-0.0203	0.018	6
-0.0181	0.0727	-0.0135	0.0315	6.1
-0.0195	0.0427	-0.0091	0.0292	6.3
-0.0181	-0.0068	-0.0053	-0.012	6.5
-0.012	-0.0413	-0.0053	-0.0495	6.7
-0.0135	-0.0788	-0.0128	-0.0473	6.8
-0.0023	-0.0346	-0.015	-0.03	7
0.0067	0.0592	-0.0181	-0.0046	7.2
0	0.0982	-0.0143	0.0232	7.3
-0.0008	0.0547	-0.0053	0.021	7.5
-0.0068	0.048	0.0045	0.0045	7.7
-0.012	0.0157	0.0015	-0.0091	7.9
-0.0008	-0.0436	-0.0046	-0.0008	8
0.0007	-0.0113	-0.0083	0.009	8.2
-0.0053	0.009	-0.0143	0.0165	8.4
-0.0098	-0.0083	-0.0218	0.0292	8.5
-0.0068	-0.0308	-0.0278	0.033	8.7
0.0022	-0.0173	-0.0285	0.0225	8.9
0.012	-0.0046	-0.0233	0.003	9
0.012	-0.0143	-0.0083	-0.0195	9.2
0.0022	-0.024	0.0037	-0.0353	9.4
0.0007	-0.0128	-0.0008	-0.033	9.6
0.0022	-0.0083	-0.0135	-0.0346	9.6
0.0037	-0.0135	-0.0248	-0.033	9.7
-0.003	-0.0098	-0.0233	-0.0308	9.7
0.0165	-0.0203	-0.0128	-0.0293	9.8
0.0772	-0.024	-0.0135	-0.0256	9.8
0.0855	-0.042	-0.0203	-0.0278	9.9
0.0382	-0.0383	-0.024	-0.0293	9.9
0	-0.0233	-0.0233	-0.0278	9.9
-0.0555	-0.0181	-0.0128	-0.0233	10
-0.1058	-0.0008	0.0022	-0.0248	10.1
-0.1193	0.0217	0.021	-0.0293	10.1
-0.1178	0.0622	0.0367	-0.024	10.2
-0.1148	0.0772	0.036	-0.021	10.2
-0.0743	0.0292	0.045	-0.024	10.3
0.0045	-0.024	0.0465	-0.0203	10.3
0.0315	-0.0338	0.0262	-0.012	10.3
0.024	-0.039	0.0052	-0.0068	10.4
0.0255	-0.0443	0.0022	-0.0015	10.4
0.0232	-0.0338	0.0315	0.0007	10.5
0.0397	0.048	0.0472	0.0015	10.5
0.036	0.1312	0.0427	0.0007	10.5
0.006	0.0285	0.0255	0.0045	10.4
-0.0165	-0.054	-0.003	0.0082	10.3
-0.027	-0.0233	-0.0105	0.0052	10.2
-0.0128	-0.045	-0.003	-0.0046	10.1
0.009	-0.0315	0.0082	-0.0105	10
0.0382	0.0022	0.0112	-0.0075	9.9
0.0585	0.0517	0.0015	-0.006	9.9
0.0457	0.0562	-0.0046	-0.0046	9.8
0.0202	-0.0105	-0.0158	-0.0068	9.7
0.0045	-0.0233	-0.024	-0.0075	9.6
0.0052	-0.0263	-0.0143	-0.003	9.5
0.009	-0.0203	0.0015	-0.0008	9.4
0.0052	-0.0181	0.009	0.003	9.4
0	-0.0218	0.0082	0.0052	9.3
-0.003	-0.0165	0.0105	0.006	9.2
-0.0068	-0.0225	0.0127	0.0015	9.1
-0.0105	-0.0203	0.0105	-0.0068	9
-0.0098	-0.0263	0.0052	-0.0053	8.9
-0.0113	-0.0165	0.0052	-0.003	8.8
-0.0105	-0.0046	0.0067	0.003	8.8
-0.0105	-0.0008	0.009	0.0217	8.7
-0.0098	0.0052	0.0105	0.0337	8.7
-0.003	-0.006	0.0067	0.0202	8.6
0.003	-0.03	0.0082	-0.0015	8.6
0.0045	-0.0458	0.0082	0.0015	8.5
0.0007	-0.0285	0.006	0.018	8.5
-0.0038	-0.0181	0.0052	0.0217	8.5
-0.0046	0.0045	0.0052	0.0382	8.4
-0.0023	0.0862	0.0067	0.0622	8.4
-0.0046	0.1552	0.0082	0.0712	8.4
-0.003	0.126	0.006	0.057	8.3
-0.0083	0.0547	0.0045	0.0375	8.3
-0.0181	0.0232	0.0037	0.0307	8.2
-0.0165	0.0052	0.0037	0.024	8.2
-0.012	-0.0046	0.0015	0.0142	8.1
-0.0075	-0.003	0.003	0.0007	8.1
-0.0091	0.0067	0.003	-0.0038	8.1
-0.0128	0.0292	-0.0008	0	8
-0.0075	0.0412	-0.0046	0.0105	7.9
0.003	0.0352	-0.0105	0.0187	7.9
0.0195	0.039	-0.0098	0.009	7.9
0.0262	0.0292	0.0045	0.0082	7.9
0.0105	0.0097	0.0105	0.0127	7.9
-0.0203	0.003	0.0067	0.0105	7.9
-0.0368	-0.0203	-0.0015	0.0127	7.9
-0.0158	-0.0346	-0.0068	0.0172	7.8
0.0097	-0.0248	-0.0068	0.0172	7.8
0.0075	-0.0188	-0.0075	0.012	7.8
0.003	-0.024	-0.0038	0.0045	7.8
-0.006	-0.024	-0.0015	0	7.8
-0.0075	-0.0203	-0.0046	-0.0038	7.7
0.0007	-0.0188	-0.0053	-0.0083	7.7
0.0082	-0.0143	-0.0038	-0.012	7.7
0.0157	-0.0165	0.0007	-0.0143	7.7
0.0045	-0.0105	0.0007	-0.012	7.7
-0.0046	-0.0046	-0.0023	-0.0098	7.6
0.0082	0.003	-0.003	-0.0113	7.6
0.0157	0.0142	-0.0046	-0.0128	7.6
-0.0068	0.0195	-0.0091	-0.0128	7.6
-0.0361	0.0195	-0.0128	-0.012	7.6
-0.0563	0.0172	-0.0135	-0.0091	7.7
-0.0578	0.0165	-0.012	-0.0068	7.7
-0.0293	0.0127	-0.0091	-0.0083	7.8
-0.0098	0.0112	-0.0105	-0.0128	7.9
0.0015	0.0097	-0.0098	-0.0128	7.9
0.0105	0.0105	-0.0113	-0.0105	8
0.0112	0.0157	-0.0128	-0.0083	8.1
0.0157	0.0097	-0.0105	-0.0075	8.1
0.0142	-0.003	-0.0046	-0.0083	8.2
0.0157	-0.006	-0.003	-0.003	8.2
0.0165	-0.003	0.0007	-0.0023	8.3
0.0127	0.003	0.0052	-0.0023	8.4
0.0082	0.003	0.006	-0.0008	8.4
0.0052	-0.0068	0.0082	-0.0008	8.5
0.0052	0.0052	0.0082	-0.003	8.5
0.0045	0.009	0.0067	-0.0053	8.6
0.0015	-0.0158	0.0067	-0.0053	8.6
-0.003	-0.0165	0.0045	0.0007	8.7
-0.0053	-0.0113	0.0045	0.0015	8.8
-0.006	-0.0105	0.003	-0.0046	8.8
-0.0068	-0.0075	-0.003	-0.0068	8.8
-0.0046	-0.0091	-0.0038	-0.0098	8.9
0.0022	-0.0053	-0.0015	-0.0083	8.9
0.0187	-0.0015	-0.0008	-0.0075	8.9
0.0307	-0.0038	-0.0008	-0.012	8.9
0.024	-0.0053	0.0015	-0.0143	9
0.0052	-0.0053	0.0015	-0.0135	9
-0.0053	-0.0053	0.0022	-0.0113	9
-0.0046	-0.0053	0.003	-0.012	9
-0.0038	-0.0008	0	-0.0098	9
-0.0053	0.0045	-0.0023	-0.0091	9.1
-0.0046	0.0045	-0.0015	-0.0098	9.1
-0.0053	-0.0008	0.0015	-0.0105	9.1
0	-0.0015	0.0037	-0.0091	9.1
0.0105	-0.0023	0.0082	-0.0075	9.2
0.009	-0.0046	0.0127	-0.0083	9.2
0	-0.0038	0.0105	-0.006	9.2
0.0037	-0.0008	0.0052	-0.0053	9.2
0.0105	0.003	0.0022	-0.003	9.3
0.009	0.0007	0.0045	-0.003	9.2
0.003	0.0015	0.0037	-0.0038	9.2
-0.006	0.0015	0.0015	-0.0038	9.1
-0.0098	-0.003	-0.003	-0.003	9
-0.0105	-0.0053	-0.0038	-0.0008	9
-0.0135	-0.0091	-0.0015	-0.0008	8.9
-0.0173	-0.012	0	-0.0015	8.8
-0.0278	-0.012	0.0045	0	8.8
-0.0533	-0.0113	0.0052	-0.0008	8.7
-0.0465	-0.0098	0.0052	0	8.6
-0.003	-0.0091	0.0045	0.0015	8.5
0.009	-0.012	0.006	0.0015	8.5
0.0015	-0.0143	0.009	0.0015	8.5
-0.0008	-0.0158	0.0112	0.0052	8.4
-0.003	-0.015	0.006	0.009	8.3
0.003	-0.012	0	0.0067	8.2
-0.0008	-0.0105	-0.0015	0.0022	8.1
0	-0.0091	-0.0046	0.0007	8.1
0.0022	-0.0075	-0.0015	-0.0008	8.1
0.0007	-0.006	0.0022	-0.0015	7.9
-0.003	-0.0083	0.0022	0.003	7.9
-0.0053	-0.0113	0.0082	0.0082	7.8
0.0015	-0.0143	0.0165	0.009	7.7
0.0052	-0.015	0.0142	0.0037	7.6
0.0105	-0.015	0.0082	0.0067	7.5
0.0217	-0.0165	0.009	0.0067	7.4
0.0202	-0.0181	0.0052	0.0015	7.3
0.0075	-0.0165	-0.0015	0.0022	7.2
0.0075	-0.0143	-0.0083	0.0015	7.2
0.0157	-0.0188	-0.0128	0.0007	7.1
0.0157	-0.0218	-0.015	0	7
0.012	-0.0225	-0.0105	-0.0008	6.9
0.003	-0.0256	-0.003	-0.0008	6.8
-0.0038	-0.0278	-0.0068	-0.003	6.7
-0.0053	-0.0278	-0.0105	-0.0038	6.7
-0.006	-0.0248	-0.0091	-0.0023	6.6
-0.0053	-0.0218	-0.003	-0.0023	6.5
-0.0053	-0.0195	-0.0008	-0.0023	6.4
-0.0046	-0.0128	0	-0.0015	6.3
-0.0053	-0.0105	0.0007	-0.0023	6.2
-0.0083	-0.0128	-0.0015	-0.0038	6.2
-0.0053	-0.0083	-0.0015	-0.003	6.1
-0.0053	-0.003	-0.003	-0.0008	6.1
-0.006	-0.0015	-0.0038	-0.0015	6.1
-0.0046	0.003	-0.0008	-0.0015	6
-0.0023	0.0105	-0.0023	0.0007	6
-0.0015	0.0187	-0.0023	0.0007	5.9
-0.0023	0.027	-0.0015	0.0015	5.9
-0.003	0.036	-0.0015	-0.0015	5.9
-0.0046	0.0427	0.0007	-0.0046	5.8
-0.0015	0.0502	-0.0008	-0.0046	5.8
-0.0015	0.0577	-0.0023	-0.0046	5.8
-0.0038	0.06	-0.0038	0.003	5.8
-0.006	0.06	-0.0046	0.0105	5.7
-0.0128	0.0555	-0.003	0.018	5.7
-0.012	0.0487	-0.0008	0.0172	5.6
0.0067	0.0457	0.0007	0.0067	5.6
0.0202	0.0397	-0.0023	0.0007	5.6
0.0157	0.033	-0.0038	-0.0053	5.5
0.0112	0.0277	-0.0038	-0.0046	5.4
-0.0105	0.0255	-0.0023	-0.003	5.4
-0.042	0.0195	0.0007	-0.0038	5.4
-0.0548	0.0127	0.0045	0.0007	5.4
-0.0346	0.0082	0.006	0.0015	5.3
-0.0098	0.0045	0.006	0.0022	5.3
-0.0053	0.0015	0.0045	0.0007	5.3
0.0015	-0.003	0.003	0.0007	5.2
0.0015	-0.0091	0.0022	0.0045	5.2
0.0015	-0.0143	0.0007	0.0045	5.2
0.003	-0.0165	0.0022	0.0015	5.1
0.0022	-0.0158	0.0015	-0.0068	5.1
0.0067	-0.0173	0.003	-0.0128	5
0.006	-0.0181	0.0022	-0.0135	5
0.009	-0.0165	-0.0008	-0.0128	5
0.0082	-0.0143	-0.0008	-0.0083	4.9
0.006	-0.0165	-0.0023	-0.003	4.9
0.003	-0.024	-0.0015	-0.0015	4.9
0	-0.0308	-0.003	-0.0023	4.9
-0.0008	-0.0353	-0.0023	-0.003	4.8
-0.0008	-0.0361	-0.0015	-0.0015	4.7
0.0007	-0.03	-0.0015	0	4.7
0.0007	-0.0248	0	0.0037	4.7
-0.0015	-0.0195	-0.0023	0.0067	4.6
-0.0015	-0.0128	-0.0015	0.0067	4.6
-0.0008	-0.0091	-0.0008	0.0067	4.5
-0.0015	-0.0046	-0.0046	0.009	4.5
-0.0008	-0.0015	-0.0053	0.0067	4.5
-0.003	-0.0008	-0.0038	0.003	4.5
-0.0105	0	-0.0046	0.0022	4.4
-0.0158	0.0007	-0.0053	0	4.4
-0.0128	0.0015	-0.0053	-0.0015	4.3
-0.0068	0.0015	-0.0053	-0.0008	4.3
-0.003	0.003	-0.0015	-0.0008	4.2
0.0022	0.0052	0	-0.0023	4.2
0.0052	0.0067	0.0007	-0.0015	4.1
0.0052	0.0045	0.0022	-0.0015	4.1
0.0067	0	0.0037	-0.0008	4.1
0.0105	-0.0015	0.003	-0.003	4
0.0127	0.0007	0.0015	-0.003	4
0.0135	0.0007	0.003	-0.003	3.9
0.012	-0.0023	0.003	-0.0038	3.9
0.0015	-0.0068	0.0015	-0.003	3.9
-0.0053	-0.0053	-0.0008	-0.0046	3.8
-0.0053	-0.003	-0.0008	-0.0015	3.7
-0.003	-0.0053	-0.0008	-0.0015	3.7
-0.003	-0.0113	-0.0008	-0.0046	3.6
-0.0046	-0.0113	-0.003	-0.0046	3.6
-0.003	-0.0091	-0.0023	-0.0053	3.6
-0.0015	-0.0083	0.0007	-0.0038	3.5
-0.003	-0.0053	0.0007	-0.0038	3.4
-0.0038	-0.003	-0.0015	-0.003	3.4
-0.0046	-0.0023	-0.0008	-0.003	3.3
-0.0046	-0.0023	0.0015	-0.003	3.3
-0.0038	0.0007	0.0022	-0.0008	3.2
-0.0053	0.0067	0.0022	-0.003	3.2
-0.0068	0.009	0.0022	-0.0038	3.1
-0.0075	0.009	0.0015	0.0015	3.1
-0.0075	0.0127	0.0007	0.0015	3
-0.006	0.0165	0.0045	0.0015	3
-0.0075	0.0202	0.0067	0.0022	2.9
-0.0075	0.0247	0.0067	0.0052	2.9
-0.0068	0.027	0.0082	0.0067	2.8
-0.0083	0.027	0.0067	0.003	2.7
-0.0053	0.0262	0.0037	0.0007	2.6
0	0.024	0.0015	0.0015	2.6
0.0112	0.0225	0.0007	0.0045	2.5
0.0097	0.0217	0.0007	0.0022	2.5
-0.0015	0.0225	-0.0008	0.0007	2.4
0	0.0195	-0.0008	0.0007	2.3
0.0007	0.015	0.0007	-0.003	2.2
-0.0008	0.0127	0.0007	-0.0075	2.2
0	0.0135	0.0007	-0.0098	2.2
0	0.0127	0.003	-0.0113	2.1
0.0007	0.0067	0.0022	-0.0046	2
-0.0015	0.0052	0.0022	-0.0038	1.9
-0.0046	0.0022	0.003	-0.0038	1.9
-0.0015	-0.0015	0.003	0	1.8
0.0007	-0.0053	0.0015	0.0007	1.8
-0.0015	-0.0083	-0.0015	0.0022	1.7
-0.0083	-0.0091	0.0007	0	1.6
-0.0158	-0.0105	0.003	0	1.6
-0.012	-0.006	0.0007	-0.0015	1.5
0.0045	-0.003	0.0007	-0.0008	1.4
0.0067	-0.0015	-0.0015	0.0015	1.4
0.0045	0.0007	-0.0038	0.0007	1.3
0.0045	0.0022	-0.003	0.0007	1.3
-0.0068	0.0052	-0.0053	-0.0008	1.2
-0.0128	0.0037	-0.0068	0.0007	1.2
-0.0098	0.0052	-0.0053	0.0015	1.1
-0.0053	0.0082	-0.0046	0.003	1
-0.0053	0.0075	-0.0046	0.0015	1
-0.0053	0.009	-0.0053	0.0007	0.9
-0.0038	0.0097	-0.0046	0.003	0.9
-0.003	0.009	-0.0038	0.0015	0.8
-0.0023	0.0067	-0.003	0.0007	0.7
-0.0023	0.0015	-0.0015	0.0007	0.7
-0.0015	-0.0023	0.0007	-0.0015	0.6
-0.0015	-0.0046	-0.0015	-0.0008	0.6
0.0007	-0.0023	-0.0023	-0.0008	0.5
0.0022	0.0007	-0.0015	-0.0015	0.4
0	-0.0023	-0.0008	0	0.4
-0.0023	-0.0046	0.0015	-0.0008	0.4
-0.0053	-0.0053	0.0015	-0.0015	0.4
-0.0091	-0.0053	0.0015	-0.0015	0.4
-0.0083	-0.0053	0.0022	-0.0008	0.3
0.0007	-0.0046	0.003	-0.0038	0.3
0.0105	-0.006	0.0022	-0.0046	0.3
0.0157	-0.0075	0.0015	-0.003	0.3
0.018	-0.0105	0.0015	-0.0038	0.2
0.0172	-0.0105	0.0022	-0.0008	0.2
0.0127	-0.0105	0.003	-0.0015	0.2
-0.0053	-0.012	0.003	-0.0008	0.1
-0.0308	-0.0128	0.0037	-0.0015	0.1
-0.039	-0.0135	0.0015	-0.003	0.1
-0.0233	-0.0143	0.0037	0	0.1
-0.0046	-0.0165	0.0052	-0.0008	0
0.0022	-0.0158	0.0045	-0.0008	0
0.0075	-0.0143	0.003	-0.0023	0
0.0082	-0.0105	-0.0008	-0.0015	0
0.0112	-0.0083	-0.0023	-0.0023	-0.1
0.0082	-0.0098	-0.0046	-0.0015	-0.1
-0.0053	-0.0075	-0.0046	-0.0023	-0.1
-0.0008	-0.0038	-0.0023	-0.0038	-0.1
-0.0008	-0.003	-0.0008	-0.0015	-0.1
-0.0008	-0.0015	-0.0015	0.0007	-0.1
0.0015	-0.0008	-0.0008	0.003	-0.1
0.0007	0.0015	0.0007	0	-0.2
0.003	0.0015	-0.0008	0	-0.2
-0.0008	0.0037	-0.003	0.0007	-0.2
-0.0008	0.0067	-0.0046	-0.0008	-0.2
-0.003	0.009	-0.0046	-0.0008	-0.2
-0.0038	0.0105	-0.0046	-0.0038	-0.3
-0.0046	0.012	-0.0053	-0.0046	-0.3
-0.0046	0.012	-0.0046	-0.0053	-0.3
-0.0023	0.009	-0.0046	-0.003	-0.3
-0.0046	0.0082	-0.0046	-0.0008	-0.3
-0.0038	0.006	-0.0015	-0.0015	-0.4
-0.0015	0.0015	-0.0008	-0.0023	-0.4
0.0007	-0.0015	-0.0023	-0.003	-0.4
0.0007	-0.0053	-0.0046	-0.0053	-0.5
-0.0008	-0.0083	-0.0023	-0.0068	-0.5
0	-0.0083	-0.0015	-0.0053	-0.5
0.0007	-0.0105	0.0015	-0.0038	-0.5
0.0007	-0.012	0.0045	-0.0023	-0.5
0.0015	-0.0098	0.003	0.0007	-0.5
0.003	-0.0053	0.0022	0.003	-0.5
-0.0023	-0.0053	0.0015	0.0037	-0.5
-0.0068	-0.0083	0.0007	-0.0008	-0.5
-0.0075	-0.0091	0.0015	-0.0023	-0.5
-0.0075	-0.012	0.003	-0.0023	-0.5
-0.006	-0.0165	0.0045	-0.0008	-0.5
-0.0075	-0.0203	0.0052	0.0007	-0.5
-0.0068	-0.024	0.0052	0.0015	-0.5
0.0007	-0.0285	0.0067	0.0007	-0.5
0.0037	-0.0278	0.0067	-0.0008	-0.5
0.0022	-0.0263	0.0075	0.0007	-0.5
-0.0008	-0.0203	0.006	0.003	-0.5
-0.0008	-0.0195	0.0022	0.0007	-0.5
-0.0015	-0.0181	0.0015	-0.003	-0.5
-0.0015	-0.0165	-0.0008	-0.0046	-0.5
-0.0015	-0.0195	-0.003	-0.0046	-0.5
-0.0015	-0.0158	-0.0046	-0.0046	-0.5
-0.0015	-0.0128	-0.0053	-0.0038	-0.5
-0.0023	-0.0091	-0.0038	-0.0008	-0.5
-0.0015	-0.0046	-0.0046	0.0007	-0.5
-0.0015	-0.0008	-0.0038	0	-0.5
0.0007	0.003	-0.0046	-0.0008	-0.5
0	0.0067	-0.003	-0.0008	-0.5
-0.003	0.0105	0	-0.0008	-0.5
-0.0023	0.0112	0	-0.0015	-0.5
-0.0008	0.0112	0	-0.0008	-0.5
-0.0008	-0.0008	-0.0008	0	-0.5
-0.003	-0.0788	-0.0015	0.0007	-0.5
-0.003	-0.222	-0.0015	0.0007	-0.5
-0.0023	-0.2858	-0.0038	0.0015	-0.5
-0.0015	-0.2655	-0.0023	0.003	-0.5
-0.003	-0.2468	-0.0015	0.0022	-0.5
-0.003	-0.1988	-0.0008	0.006	-0.5
-0.0008	-0.1575	0.0007	0.0067	-0.5
0.003	-0.1155	0	0.0067	-0.5
0.0045	-0.0721	0.003	0.0075	-0.5
0.0075	-0.042	0.0045	0.0045	-0.5
0.0142	-0.0046	0.0045	0.0045	-0.5
0.0067	0.0217	0.0052	0.0037	-0.5
-0.0046	0.051	0.0037	-0.0008	-0.4
-0.0038	0.0727	0.0015	-0.003	-0.4
-0.0046	0.0892	0.0015	-0.0046	-0.4
-0.0046	0.1012	0.0022	-0.0053	-0.4
-0.003	0.1095	0.0022	-0.0068	-0.4
-0.0046	0.117	0.0022	-0.0068	-0.4
-0.0023	0.1177	0.0022	-0.0023	-0.4
-0.0015	0.1207	0.0045	0.0052	-0.4
-0.0015	0.1222	0.0067	0.0067	-0.4
-0.0023	0.1222	0.0052	0.0045	-0.4
-0.0015	0.1222	0.003	0.0082	-0.4
-0.0008	0.12	0.0015	0.0045	-0.4
0.0007	0.114	0.0037	0.0007	-0.4
-0.0008	0.1065	0.0022	-0.0015	-0.4
-0.0008	0.1005	0.0007	-0.003	-0.4
-0.0015	0.0915	-0.0008	-0.003	-0.4
-0.0038	0.0862	-0.0015	-0.0068	-0.4
-0.003	0.0802	-0.0023	-0.0091	-0.4
-0.0015	0.0735	-0.003	-0.012	-0.3
-0.0015	0.0712	-0.0046	-0.0091	-0.3
-0.0008	0.0675	-0.0053	-0.006	-0.3
-0.0008	0.057	-0.0038	-0.0008	-0.3
-0.0023	0.0502	-0.003	0.0015	-0.3
-0.0046	0.0465	-0.0023	0.0007	-0.3
-0.0046	0.0427	-0.0023	0.003	-0.3
-0.006	0.0367	-0.003	0.0022	-0.3
-0.0068	0.033	-0.0038	0	-0.3
-0.0075	0.0322	-0.0015	0.0007	-0.3
-0.0046	0.0285	-0.0023	0.003	-0.2
-0.0008	0.0225	-0.0046	-0.0008	-0.2
0.0007	0.0157	-0.0015	-0.0008	-0.2
-0.0015	0.0127	-0.0008	0.0015	-0.2
-0.0023	0.012	-0.0008	-0.0008	-0.2
-0.003	0.0075	-0.0015	-0.0015	-0.2
-0.0038	0.0052	-0.0023	-0.0015	-0.2
-0.0008	0.0015	-0.0023	-0.0015	-0.2
-0.0008	-0.0008	-0.0015	-0.0015	-0.2
-0.0008	-0.0023	-0.0008	-0.0015	-0.2
-0.006	-0.0046	0.0007	-0.003	-0.2
-0.0128	-0.0091	0.003	-0.0023	-0.1
-0.0068	-0.0128	0.0045	-0.0038	-0.1
0.0015	-0.0143	0.003	-0.0046	-0.1
-0.0008	-0.0181	0.0015	-0.003	-0.1
0	-0.0181	0	-0.0023	-0.1
-0.0015	-0.0181	0.0007	-0.0023	-0.1
-0.0046	-0.0218	-0.0015	-0.003	-0.1
-0.0068	-0.024	-0.0008	-0.0046	-0.1
-0.0053	-0.027	-0.0008	-0.006	-0.1
-0.0008	-0.0293	-0.0008	-0.006	-0.1
-0.0015	-0.0278	0	-0.0046	-0.1
-0.0008	-0.0293	0.0007	-0.003	-0.1
-0.0023	-0.0293	0.0015	0	-0.1
-0.0046	-0.024	0	0	0
-0.0008	-0.0218	0	-0.0008	0
0.0082	-0.0181	0.0007	-0.0008	0
0.0105	-0.0158	-0.0008	-0.0008	0
0	-0.0158	-0.0008	-0.0015	0
-0.0075	-0.0143	-0.0008	-0.0015	0
-0.0105	-0.0091	0	0.0007	0
-0.0075	-0.006	0.0015	0.0007	0
0.0015	-0.0068	0.0015	-0.0015	0
-0.0008	-0.0068	0.003	-0.0015	0
-0.0091	-0.0083	0.003	0	0
-0.0068	-0.0068	0.003	0	0
-0.0038	-0.0046	0.0007	0.0007	0
-0.003	-0.0015	0	0.0007	0
0.0067	0.0007	0.0037	0.0007	0
0.0105	0.0007	0.0037	0.0007	0
0.003	0.0007	0.0045	0	0
-0.0008	0.0052	0.0045	-0.0015	0
-0.0015	0.0075	0.0007	-0.0015	0
-0.003	0.006	0.0022	-0.0008	0
-0.0008	0.003	0.0015	-0.0008	0.1
-0.0015	-0.0023	0.0015	0	0.1
-0.0038	-0.006	0.0007	-0.0015	0.1
-0.0046	-0.0075	-0.0008	-0.0015	0.1
-0.0046	-0.0091	-0.0008	0	0.1
-0.0046	-0.0068	-0.0015	0.0015	0.1
-0.0038	-0.0083	-0.003	0.0007	0.1
-0.003	-0.0083	-0.006	0	0.1
-0.003	-0.0023	-0.0046	-0.0008	0.1
-0.0015	0.0015	-0.003	-0.0038	0.1
0.0007	0.003	-0.0046	-0.0046	0.1
0.0007	0.0052	-0.003	-0.003	0.2
-0.0008	0.0075	-0.0023	-0.0008	0.2
0	0.009	-0.003	0.0007	0.2
0.003	0.0067	-0.0015	0.0037	0.2
0.0037	0.003	0.0015	0.006	0.2
0.003	-0.0015	0.0007	0.0045	0.2
0.0007	-0.003	-0.003	0.0037	0.2
0.0007	-0.003	-0.0015	0.003	0.2
-0.0023	-0.0053	-0.0015	0.0045	0.2
-0.003	-0.0053	-0.0015	0.0037	0.2
-0.0023	-0.0068	-0.0023	0.0022	0.3
-0.0046	-0.0083	-0.0008	0.0022	0.3
-0.003	-0.0068	-0.0008	0.0007	0.3
-0.0023	-0.0091	0.0022	0.0007	0.3
-0.0046	-0.0105	0.0037	-0.0015	0.3
-0.0046	-0.0098	0.003	-0.0008	0.3
-0.0038	-0.0083	0.003	0.0015	0.3
-0.003	-0.0083	0.0022	0.0015	0.3
-0.0015	-0.012	0.0022	0.0015	0.3
-0.0015	-0.0173	0.0015	0	0.3
0.0022	-0.021	0.0015	-0.0015	0.4
0.0045	-0.0181	0.003	-0.0008	0.4
0.0022	-0.012	0.003	-0.0015	0.4
0	-0.0113	0.0015	-0.0023	0.4
-0.0023	-0.012	0.0007	-0.0015	0.4
-0.003	-0.0128	0.0022	-0.003	0.4
-0.0038	-0.0158	0.0015	-0.0015	0.4
-0.003	-0.0165	-0.0008	-0.0023	0.4
-0.0038	-0.0143	-0.0023	-0.003	0.4
-0.0053	-0.012	-0.003	0.0007	0.4
-0.0046	-0.0105	-0.0015	0.0015	0.4
-0.003	-0.012	-0.0015	0	0.4
-0.0015	-0.015	-0.0015	-0.0015	0.4
-0.0015	-0.0195	-0.0008	-0.0015	0.4
-0.0046	-0.021	-0.0023	-0.0008	0.5
-0.0091	-0.0218	-0.0068	0.0007	0.5
-0.003	-0.0195	-0.0083	0.0007	0.5
0.009	-0.015	-0.0046	0	0.5
0.0127	-0.0105	-0.0015	0.0007	0.5
0.0015	-0.006	0.003	-0.0023	0.6
-0.0068	-0.0023	0.0045	-0.0015	0.6
-0.003	-0.0008	0.003	-0.0015	0.6
-0.0046	-0.003	0.003	-0.003	0.6
-0.0015	-0.0053	-0.0008	-0.0015	0.6
-0.0008	-0.003	-0.0023	-0.003	0.7
-0.0015	-0.0015	0.0015	-0.0023	0.7
-0.0008	0.003	0.0015	-0.0023	0.7
-0.0008	0.0082	0.0015	-0.0015	0.7
0.0007	0.012	0.003	-0.0015	0.7
-0.0015	0.0165	0.0015	-0.003	0.8
-0.0023	0.0195	0.003	-0.003	0.8
-0.0015	0.021	0.003	-0.0046	0.8
-0.0023	0.0217	0.0007	-0.0068	0.8
-0.003	0.0187	-0.0015	-0.0053	0.8
-0.0046	0.0142	-0.0015	-0.0015	0.9
-0.0046	0.0135	-0.0008	-0.003	0.9
-0.0046	0.012	-0.0008	-0.0023	0.9
-0.003	0.0127	0	-0.0015	0.9
-0.0053	0.0105	-0.0008	-0.0015	0.9
-0.0053	0.012	-0.0015	-0.0023	0.9
-0.0008	0.018	-0.0023	-0.003	0.9
0.0037	0.0195	-0.0038	-0.003	0.9
0.0015	0.0202	-0.003	-0.003	1
-0.0038	0.0202	-0.0023	-0.0023	1
-0.0046	0.0202	-0.0023	-0.0015	1
-0.0038	0.0135	-0.0015	0.0015	1
-0.003	0.0127	-0.0008	0.0015	1
-0.0023	0.012	-0.0015	0.0015	1
-0.0038	0.0067	-0.003	0.0022	1.1
-0.0015	0.0015	-0.0023	0.0022	1.1
-0.0023	-0.003	-0.003	0.0007	1.1
-0.0038	-0.0053	-0.0046	-0.0008	1.1
-0.003	-0.0098	-0.003	-0.0008	1.1
0	-0.0105	-0.0015	-0.0015	1.1
0.0015	-0.0128	-0.0023	0	1.2
0.0007	-0.0173	0	0.0007	1.2
-0.003	-0.0181	-0.0008	0.0007	1.2
-0.0105	-0.0165	-0.003	-0.0008	1.3
-0.0083	-0.0128	-0.0023	-0.003	1.3
-0.0008	-0.0083	-0.0008	-0.0023	1.3
0.0105	-0.006	0	-0.003	1.3
0.0262	-0.006	-0.0008	-0.0015	1.3
0.03	-0.0046	-0.0008	0.0015	1.3
0.0247	-0.0038	0.0015	0.0015	1.3
0.0142	-0.006	0.0015	-0.0015	1.4
-0.0083	-0.0105	0.0007	-0.0008	1.4
-0.0323	-0.0143	0.003	0	1.4
-0.0346	-0.0143	0.0052	0.0007	1.5
-0.0256	-0.0158	0.0082	0.0015	1.5
-0.015	-0.0113	0.009	0.0007	1.5
-0.0046	-0.006	0.0075	-0.0008	1.5
0	-0.006	0.0052	-0.0008	1.6
-0.0053	-0.003	0.003	-0.0015	1.6
-0.0105	-0.0015	0.0015	-0.0023	1.6
-0.0075	0	0.003	-0.0015	1.7
-0.0053	0.0045	0.003	-0.0008	1.7
-0.0015	0.0052	0.0037	0.0007	1.8
0.0015	0.0067	0.0037	0.003	1.8
0.0022	0.0067	0.0015	0.0015	1.8
0.003	0.006	0.0007	0.0007	1.9
0.0007	0.0052	-0.0015	0.0015	1.9
0	0.0022	-0.003	-0.0015	2
0	0.0007	-0.0015	0	2
-0.0015	0.0022	-0.0008	0	2
-0.003	-0.0008	-0.0015	-0.003	2.1
-0.0023	-0.0023	-0.0008	-0.003	2.1
-0.0015	-0.0023	-0.003	-0.0015	2.2
-0.0038	-0.0038	-0.0038	-0.0015	2.2
-0.003	-0.006	-0.003	-0.0023	2.2
-0.0015	-0.006	-0.003	-0.003	2.3
-0.0023	-0.0038	-0.003	-0.0038	2.3
-0.003	-0.0038	-0.0038	-0.0046	2.4
-0.0023	-0.0015	-0.0038	-0.0046	2.4
-0.0015	-0.0015	-0.0046	-0.003	2.5
-0.0008	-0.0015	-0.0023	-0.0023	2.5
-0.0015	-0.0053	-0.0008	-0.0015	2.6
-0.0038	-0.0098	0.0015	-0.0015	2.6
-0.003	-0.0113	0.0022	-0.0015	2.6
-0.003	-0.0113	0.0007	-0.0023	2.7
-0.0053	-0.012	0.003	-0.0023	2.7
-0.0083	-0.012	0.0007	-0.0008	2.8
-0.0083	-0.012	0	-0.0015	2.8
-0.0053	-0.0113	-0.0008	-0.003	2.9
-0.0015	-0.0083	-0.0008	-0.0015	3
0.003	-0.003	0.0015	-0.003	3
0.0075	-0.003	0.0007	-0.0015	3.1
0.0165	-0.0053	0.0007	-0.0008	3.1
0.0217	-0.0075	-0.0008	-0.0023	3.1
0.0202	-0.0075	-0.0015	-0.003	3.2
0.018	-0.0098	0.003	-0.003	3.2
0.0052	-0.012	0.0052	-0.003	3.3
-0.0053	-0.0143	0.0037	-0.003	3.3
-0.0075	-0.0158	0.0007	-0.003	3.4
-0.0091	-0.0165	-0.003	-0.003	3.4
-0.0091	-0.0181	-0.0038	-0.0023	3.5
-0.0091	-0.012	-0.0053	-0.0015	3.6
-0.0068	-0.0083	-0.0068	-0.0008	3.6
-0.0068	-0.0075	-0.0053	0.0015	3.7
-0.0083	-0.0053	-0.0046	0.0022	3.8
-0.0091	-0.0023	-0.0038	0.0015	3.8
-0.0091	-0.0015	-0.0053	0.0022	3.9
-0.0083	-0.0008	-0.0015	0.0022	4
-0.0105	-0.0015	0.0007	0.0045	4
-0.006	0	0.0015	0.003	4.1
-0.0083	0.0045	0.0052	0.0015	4.1
-0.0128	0.0067	0.0075	0.003	4.2
-0.0143	0.009	0.0097	0.0007	4.3
-0.0128	0.0112	0.0112	0.0007	4.4
-0.0075	0.0142	0.0105	0.0015	4.4
-0.0008	0.018	0.0082	-0.0008	4.5
0.003	0.0165	0.0067	-0.0008	4.5
-0.0008	0.012	0.0015	0.0007	4.6
0.0075	0.0105	-0.0038	0.003	4.7
0.0315	0.0082	-0.003	0.003	4.8
0.054	0.0052	0.0037	0.0015	4.9
0.042	0.0015	0.003	-0.0023	4.9
0.009	-0.0038	0	-0.0068	5
-0.0053	-0.0068	-0.0015	-0.0083	5.1
-0.0128	-0.0091	-0.0038	-0.0068	5.2
-0.0135	-0.0068	-0.0038	-0.0046	5.3
-0.0105	-0.003	-0.0046	-0.0038	5.3
-0.0091	-0.0015	-0.0015	-0.0015	5.4
-0.0068	-0.0023	-0.0015	-0.0015	5.5
-0.0075	-0.0015	-0.006	-0.0008	5.6
-0.0053	0.0022	-0.0075	-0.0008	5.7
-0.003	0.0052	-0.0075	-0.0015	5.8
-0.0015	0.009	-0.0068	-0.0008	5.8
-0.003	0.012	-0.0068	0.0007	5.9
-0.0023	0.0127	-0.0068	0.0015	6
-0.0015	0.012	-0.0068	0.0015	6.1
-0.0008	0.0105	-0.0053	0.0007	6.2
-0.0015	0.009	-0.0053	0.0015	6.3
-0.0023	0.009	-0.0046	0.003	6.3
-0.0038	0.0067	-0.003	0.0022	6.4
-0.0038	0.0052	-0.003	0.0022	6.6
-0.0046	0.0037	-0.003	0.0045	6.7
-0.0068	0.0022	-0.0015	0.003	6.8
-0.0068	0.0022	0.0007	0.0045	6.9
-0.0068	0.0015	0.0007	0.0045	7
-0.006	0.0015	0.003	0.0007	7.2
-0.006	0.0007	0.0045	0.0007	7.2
-0.006	0	0.0045	0.0022	7.4
-0.0038	-0.0008	0.006	0.003	7.5
-0.0015	-0.0053	0.0067	0.0037	7.6
0.0022	-0.0091	0.0045	0.0037	7.7
0.0052	-0.0083	0.003	0.0045	7.8
0.0052	-0.0075	0.003	0.0037	7.9
0.0007	-0.0098	0.003	0.0015	8.1
-0.0008	-0.0128	0.0015	0	8.1
0.0015	-0.0135	0.0007	-0.0008	8.3
0.0052	-0.0105	0.003	0.0015	8.4
0.0037	-0.0068	0.0045	0.0015	8.5
-0.0015	-0.0008	0.0045	0	8.6
-0.0038	0.003	0.003	0.0007	8.7
-0.0053	0.006	0.0007	0.0015	8.9
-0.0068	0.0105	0.0007	0	9
-0.0046	0.012	-0.0008	0.0007	9.2
-0.003	0.0135	0.0007	0	9.4
-0.0046	0.0142	0	0.0007	9.5
-0.003	0.0142	0.0015	0.0015	9.6
-0.003	0.0127	0.0045	0.0007	9.8
-0.003	0.009	0.003	-0.0008	9.9
-0.0015	0.0067	0.003	-0.0008	10.1
-0.003	0.0037	0.003	0.0007	10.2
-0.0038	0.0052	0.0007	0.0015	10.4
-0.0046	0.0067	-0.0008	0.0007	10.5
-0.0053	0.006	-0.0008	0.0007	10.7
-0.0068	0.0067	-0.0015	0.0007	10.8
-0.003	0.0075	-0.0046	0	11
-0.0046	0.0082	-0.0068	-0.0008	11.1
-0.0038	0.0082	-0.006	-0.0015	11.2
-0.0015	0.0052	-0.0038	-0.0023	11.4
-0.0015	0.003	-0.0008	-0.0015	11.6
-0.0015	0.0015	0.003	-0.0023	11.7
-0.0046	0.0007	0.0045	-0.0023	11.9
-0.0075	-0.0008	0.0037	-0.0023	12.1
-0.0046	-0.0008	0.003	0.0007	12.3
0.0007	-0.0008	0.0067	0.0015	12.5
0.0022	-0.003	0.009	0	12.7
0.0015	-0.0015	0.006	0.003	12.9
0.0052	-0.0008	0.003	0.0015	13.1
0.0105	-0.0023	0.0022	0.0015	13.3
0.0105	-0.003	0.006	0.003	13.5
0.009	-0.003	0.0045	0.003	13.6
0.0052	-0.003	0.0015	0.003	13.8
0	-0.0046	0.0022	0	14
-0.0015	-0.0046	0.0022	-0.0015	14.2
-0.003	-0.0038	0.0015	-0.0015	14.4
-0.006	-0.0053	0	-0.0015	14.6
-0.006	-0.0075	-0.0008	-0.0008	14.8
-0.0046	-0.0083	-0.0008	-0.0015	15
-0.003	-0.0083	-0.003	-0.0008	15.2
-0.0046	-0.0083	-0.0068	-0.0023	15.3
-0.0046	-0.0075	-0.0075	-0.0008	15.6
-0.0015	-0.0046	-0.0083	0.0022	15.8
0.0022	-0.0038	-0.0038	0.0022	16
0.0067	-0.0046	-0.003	0.0015	16.2
0.0045	-0.0053	-0.003	0.0007	16.5
0	-0.0053	0	-0.0008	16.6
-0.003	-0.003	-0.0015	-0.0008	16.9
-0.0053	-0.0023	-0.0008	-0.003	17.1
-0.0038	-0.0015	0.0015	-0.003	17.3
-0.0038	0.0007	0.0015	-0.003	17.5
-0.0008	0.0015	0.0015	-0.0046	17.8
-0.0008	0.0045	0.0007	-0.0038	18
-0.003	0.0067	-0.003	-0.0046	18.2
-0.003	0.009	-0.006	-0.0068	18.4
-0.0023	0.0067	-0.0068	-0.0068	18.7
-0.0023	0.0082	-0.0053	-0.0053	18.9
-0.0008	0.0105	-0.003	-0.0053	19.1
-0.0008	0.0082	-0.003	-0.0053	19.3
-0.003	0.009	0	-0.006	19.5
-0.003	0.009	-0.0008	-0.0046	19.8
-0.0015	0.006	-0.0008	-0.003	20
-0.0015	0.0052	-0.0015	-0.0046	20.2
-0.003	0.0037	-0.0053	-0.0046	20.5
-0.0038	0.003	-0.0046	-0.0023	20.7
-0.0015	-0.0008	-0.006	-0.0015	21
-0.0023	-0.0046	-0.0053	-0.0015	21.2
-0.003	-0.0046	-0.0068	-0.0008	21.5
-0.0046	-0.0053	-0.0135	-0.0015	21.7
-0.006	-0.0053	-0.0128	-0.003	22
-0.0046	-0.0046	-0.0068	-0.0046	22.3
-0.0046	-0.0083	-0.0046	-0.0023	22.5
-0.0038	-0.0128	-0.0015	-0.0015	22.8
-0.0038	-0.0165	0.0015	-0.003	23
-0.003	-0.0165	0.003	-0.0015	23.3
-0.0023	-0.0165	0.0045	-0.0015	23.5
-0.003	-0.0158	0.003	-0.003	23.8
-0.003	-0.0105	0.003	-0.0008	24
-0.0038	-0.0068	-0.0008	-0.0008	24.3
-0.003	-0.0046	-0.0053	-0.0008	24.5
-0.0023	-0.0015	-0.0038	-0.0015	24.7
-0.003	0.003	-0.0015	-0.003	25
-0.0015	0.006	-0.0008	-0.0046	25.2
-0.0015	0.0052	0	-0.0046	25.5
-0.0015	0.0045	0.0007	-0.0053	25.7
-0.0015	0.0037	0.0007	-0.0053	25.9
-0.0008	0.003	0	-0.0053	26.1
0	0.0045	0.0007	-0.0053	26.4
-0.0008	0.0052	0.0007	-0.0046	26.6
0	0.0052	0.0022	-0.0046	26.9
-0.0015	0.0052	0.003	-0.0046	27.1
-0.003	0.0037	0.003	-0.0023	27.4
-0.003	0	0.0037	-0.0023	27.6
-0.0015	-0.0046	0.0022	-0.0015	27.8
-0.0015	-0.0091	0.0015	-0.0023	28.1
-0.0023	-0.0128	0.0015	-0.003	28.3
-0.003	-0.0128	-0.0008	0	28.5
-0.003	-0.0128	-0.0015	0.0015	28.8
-0.0038	-0.012	0	0.0015	29
-0.0046	-0.0105	-0.0008	0	29.2
-0.0046	-0.012	0.0007	-0.0008	29.5
-0.0038	-0.0143	0.0007	0.0015	29.7
-0.0038	-0.015	0.0022	0.0015	29.8
-0.0038	-0.0143	0.0037	-0.0008	30
-0.0046	-0.0158	0.0045	-0.0023	30.2
-0.003	-0.0173	0.0052	-0.0015	30.4
-0.0015	-0.021	0.0045	-0.0008	30.6
-0.003	-0.024	0.003	-0.0008	30.7
-0.003	-0.0256	-0.0008	-0.0008	30.9
-0.003	-0.0256	-0.0008	-0.0008	31.1
-0.0023	-0.024	0.0007	0	31.3
-0.0015	-0.0218	0.0022	0.0015	31.5
-0.0023	-0.0181	0.0052	0	31.7
-0.0038	-0.0158	0.0067	-0.0008	31.9
-0.0053	-0.0143	0.0082	0	32
-0.0038	-0.0135	0.009	-0.0015	32.2
-0.003	-0.015	0.0082	-0.003	32.4
-0.003	-0.0135	0.0075	-0.0046	32.6
-0.0046	-0.0091	0.0037	-0.0053	32.8
-0.0046	-0.0038	0.0037	-0.0068	32.9
-0.003	0.0037	0.0045	-0.0075	33.1
-0.0008	0.009	0.0022	-0.0068	33.3
0	0.0105	0.0037	-0.006	33.4
0.0015	0.0105	0.0015	-0.006	33.5
0.0022	0.0097	0.0015	-0.0068	33.6
0.0007	0.009	0.0022	-0.0046	33.7
0	0.0082	0.0015	-0.0038	33.9
0	0.0067	0.0022	-0.0046	34
0	0.0075	0.0022	-0.0053	34.1
0.0007	0.0097	0.0037	-0.0038	34.3
-0.0008	0.0105	0.0022	-0.0015	34.4
-0.0015	0.0082	0.0007	0.0007	34.5
-0.0015	0.0067	-0.0015	0.003	34.6
-0.0008	0.0045	-0.0008	0.0022	34.8
-0.0008	0.003	-0.0008	0.003	34.9
0.0007	0.003	0	0.003	35.1
0.0007	0.0015	-0.003	0.0015	35.2
0	0.0007	-0.0046	0.0007	35.3
-0.0015	-0.0015	-0.0008	-0.0008	35.4
-0.003	0.0022	-0.0008	-0.0015	35.5
-0.003	0.0067	-0.0008	-0.0015	35.7
-0.0038	0.0105	0.0007	-0.0015	35.8
-0.0023	0.0105	0.0007	-0.0015	36
-0.0038	0.0105	0	-0.0015	36.1
-0.003	0.0112	0	-0.0023	36.2
-0.0015	0.0097	0.0007	-0.0015	36.4
-0.0015	0.0097	-0.0015	-0.003	36.5
-0.003	0.0075	-0.0008	-0.0053	36.7
-0.003	0.0082	-0.0015	-0.0046	36.8
-0.003	0.009	0.0007	-0.0038	36.9
-0.003	0.0075	0.0022	-0.0023	37.1
-0.0015	0.0045	0.0015	-0.0008	37.2
0	0.0037	0.003	-0.0015	37.3
0.0015	0.0022	0.0022	-0.0015	37.5
0.0007	0.0015	0.0015	-0.0046	37.6
0.0015	0.0037	0.0015	-0.0068	37.8
0.0022	0.0052	0.0007	-0.0083	37.9
0.0007	0.006	0	-0.0105	38.1
0.0022	0.0105	0	-0.0075	38.2
0.0045	0.012	-0.0015	-0.003	38.3
0.0045	0.0127	-0.0038	0.0007	38.5
0.0037	0.0142	-0.0046	0.0015	38.6
0.0022	0.0142	-0.0053	0.0015	38.7
0.0007	0.0142	-0.0068	0.0007	38.9
0.0007	0.0142	-0.0046	0.003	39
-0.0008	0.012	-0.003	0.0037	39.2
-0.0008	0.0097	-0.0046	0.003	39.3
-0.0015	0.009	-0.0038	0.0037	39.5
-0.0015	0.0112	-0.0038	0.0067	39.6
-0.0023	0.0135	-0.003	0.0075	39.7
-0.0038	0.0127	-0.0015	0.0097	39.9
-0.0038	0.0127	-0.0015	0.0142	40
-0.0023	0.012	-0.0023	0.015	40.1
-0.003	0.012	-0.003	0.0187	40.3
-0.0053	0.012	-0.0038	0.0217	40.4
-0.006	0.0082	-0.003	0.0247	40.6
-0.0068	0.0097	-0.0015	0.027	40.7
-0.006	0.009	-0.0015	0.024	40.9
-0.0075	0.0067	-0.0008	0.0232	41
-0.0053	0.0045	-0.0015	0.0232	41.1
-0.003	0.0015	0	0.021	41.3
-0.0023	0.0007	-0.0015	0.018	41.4
-0.0015	-0.0008	-0.0053	0.015	41.4
-0.0023	-0.003	-0.0053	0.0127	41.5
-0.0015	-0.003	-0.0046	0.0105	41.6
0	-0.0053	-0.003	0.0082	41.7
0.0007	-0.006	-0.0038	0.0052	41.8
0.0007	-0.0075	-0.003	0.0045	41.9
-0.0008	-0.0091	-0.0008	0.0015	42
0	-0.0053	-0.0015	-0.0023	42.1
-0.0008	-0.0023	-0.0038	-0.0015	42.2
-0.0015	-0.003	-0.0015	-0.0023	42.3
-0.003	-0.006	-0.0008	-0.0015	42.3
-0.0046	-0.0091	-0.0023	-0.0015	42.4
-0.0053	-0.0128	-0.0015	-0.0015	42.5
-0.0046	-0.012	-0.0008	-0.0015	42.6
-0.0038	-0.0068	-0.0015	-0.0015	42.7
-0.003	-0.0038	-0.0008	-0.0008	42.8
-0.003	-0.0038	0	-0.003	42.9
-0.003	-0.0038	0	-0.003	43
-0.0008	-0.0046	0	-0.0046	43.1
-0.0008	-0.006	-0.0008	-0.006	43.1
0.0007	-0.0053	0	-0.0015	43.1
0.0007	-0.0023	-0.0023	-0.0008	43.1
-0.0015	-0.0023	-0.0015	-0.0015	43.2
-0.0008	0.0007	-0.0015	-0.0008	43.2
0.0007	0.0007	-0.0008	-0.003	43.2
0.0007	0.0045	0.0007	-0.0023	43.3
-0.0008	0.0067	-0.0008	-0.0023	43.3
-0.0015	0.0067	-0.0008	-0.0046	43.3
-0.0015	0.0052	0.0022	-0.0046	43.4
-0.0046	0.0045	0.0045	-0.0046	43.4
-0.0046	0.0015	0.0045	-0.003	43.4
-0.0038	0	0.0052	-0.003	43.4
-0.0015	-0.0008	0.0067	-0.003	43.5
-0.0015	-0.0046	0.0067	-0.003	43.5
-0.0015	-0.0053	0.0067	-0.0023	43.5
-0.0008	-0.0046	0.0067	-0.003	43.6
-0.0008	-0.006	0.0045	-0.003	43.6
-0.0008	-0.006	0.0052	-0.003	43.6
-0.0015	-0.0068	0.0052	-0.0046	43.6
0.0007	-0.0083	0.0052	-0.0046	43.6
0.0007	-0.0098	0.0052	-0.006	43.6
-0.0008	-0.0143	0.0037	-0.0075	43.6
-0.0015	-0.0165	0.0022	-0.0075	43.7
-0.0023	-0.0165	0.003	-0.0053	43.7
-0.003	-0.0181	0.0067	-0.0046	43.7
-0.0046	-0.0203	0.006	-0.0053	43.7
-0.003	-0.021	0.006	-0.0075	43.7
-0.0046	-0.0233	0.003	-0.0091	43.7
-0.0038	-0.0218	0.0007	-0.0075	43.7
-0.003	-0.0195	0.0015	-0.0075	43.7
-0.0023	-0.0203	0.0022	-0.0075	43.7
-0.0023	-0.0218	0.003	-0.0083	43.7
-0.0015	-0.0203	0.0022	-0.0068	43.7
-0.0008	-0.0181	0.003	-0.0046	43.7
-0.0008	-0.0143	0.003	-0.0053	43.7
0	-0.0075	0.0052	-0.006	43.8
-0.0008	-0.003	0.0052	-0.0068	43.8
0.0007	0.0007	0.0045	-0.0046	43.8
-0.0008	0.003	0.0015	-0.0053	43.8
-0.0008	0.0022	-0.0008	-0.0068	43.8
-0.0008	0.0045	0.0007	-0.006	43.8
0	0.0082	-0.0008	-0.006	43.8
0.0015	0.0097	-0.0008	-0.0068	43.8
-0.0008	0.0105	0	-0.006	43.8
0	0.0112	0.0015	-0.006	43.8
-0.0015	0.0105	-0.0008	-0.0083	43.7
-0.0008	0.0105	-0.0015	-0.0068	43.7
-0.0008	0.0105	-0.0015	-0.0083	43.7
-0.0008	0.0112	-0.003	-0.0075	43.7
0.0007	0.0127	-0.0015	-0.0068	43.7
0	0.012	-0.003	-0.0068	43.7
-0.0008	0.0127	-0.003	-0.0075	43.7
-0.0015	0.0127	-0.0046	-0.0091	43.6
-0.003	0.0127	-0.0053	-0.0075	43.6
-0.0015	0.012	-0.0038	-0.0083	43.6
-0.0015	0.009	-0.003	-0.0075	43.6
-0.0015	0.0082	-0.003	-0.0075	43.6
-0.0008	0.0052	-0.0046	-0.006	43.6
-0.0015	0.003	-0.003	-0.0053	43.6
-0.0023	0.0045	-0.0015	-0.0053	43.6
-0.0015	0.0112	-0.0023	-0.006	43.5
-0.0008	0.0135	-0.0046	-0.0068	43.4
0	0.0142	-0.0046	-0.0083	43.3
0.0007	0.0165	-0.003	-0.0091	43.3
0.0007	0.0157	-0.0015	-0.0083	43.2
0	0.0127	-0.0008	-0.006	43.1
-0.0008	0.012	-0.0015	-0.0053	43.1
-0.0046	0.0105	-0.0015	-0.0046	43
-0.0053	0.0105	-0.0008	-0.003	43
-0.0046	0.0105	-0.0015	-0.0046	42.9
-0.0046	0.0067	-0.0015	-0.003	42.8
-0.0053	0.003	0.0007	-0.0023	42.8
-0.0038	0.0007	0.0007	-0.003	42.7
-0.003	-0.0023	-0.0008	-0.0023	42.7
-0.0053	-0.0046	0.0007	-0.0023	42.6
-0.0038	-0.006	0.003	-0.0008	42.5
-0.0015	-0.0091	0.0022	0.0007	42.5
-0.0023	-0.0105	0.003	0.0007	42.4
-0.0023	-0.012	0.0037	0.0022	42.3
-0.0008	-0.015	0.003	0.0007	42.3
-0.0008	-0.0158	0.0015	0.0007	42.1
-0.0008	-0.015	0.0007	0.0007	42
0.0007	-0.0128	0.0007	-0.0008	41.9
0.0007	-0.0143	0.0007	-0.0015	41.8
0	-0.0143	0.003	-0.0015	41.7
-0.0008	-0.0135	0.0015	0.0007	41.6
-0.0008	-0.0128	0.0015	-0.0008	41.4
0.0007	-0.0128	0	0.0007	41.3
0.0007	-0.015	0	0.0007	41.2
-0.0015	-0.0165	0.0007	0.0007	41.1
-0.003	-0.0181	0	0.0007	41
-0.0038	-0.0158	0.0007	0.003	40.9
-0.003	-0.015	0.0015	0.0037	40.8
-0.0008	-0.0158	0.003	0.003	40.6
-0.0008	-0.0128	0.003	0.0045	40.5
-0.0015	-0.0083	0.0015	0	40.5
-0.0023	-0.003	0	-0.0038	40.3
-0.0023	-0.0008	-0.0008	-0.0046	40.2
-0.003	0.0015	0.0007	-0.0053	40
-0.003	0.0037	0.0007	-0.0068	40
-0.0023	0.0045	0.0015	-0.0053	39.9
-0.0015	0.0082	0	-0.0046	39.8
-0.0015	0.009	-0.0008	-0.0046	39.6
-0.0015	0.0052	-0.0008	-0.0023	39.6
-0.0015	0.0037	-0.0015	-0.0015	39.4
-0.0015	0.0045	-0.0015	-0.003	39.3
-0.0008	0.0045	-0.0015	-0.003	39.2
-0.0015	0.006	-0.0008	-0.0015	39.1
-0.0015	0.006	-0.0023	-0.0008	39
-0.003	0.0052	-0.0046	0	38.9
-0.003	0.0037	-0.0038	0.0007	38.8
-0.003	0.0015	-0.0053	0.0015	38.6
-0.003	-0.0008	-0.0068	0.0015	38.6
-0.0008	-0.0008	-0.0053	0	38.4
-0.0008	0.0015	-0.003	0.0007	38.3
-0.0015	0.0045	0.0015	0	38.2
-0.0015	0	0.0022	0.0007	38.1
-0.0023	-0.0173	0.0045	0.0015	38
-0.0038	-0.021	0.0045	0.0037	37.8
-0.003	-0.003	0.0045	0.0045	37.8
-0.0015	0.0015	0.003	0.0052	37.6
-0.003	-0.0015	0.0007	0.0052	37.4
-0.0023	-0.0023	0	0.0052	37.3
-0.0023	-0.0053	0	0.003	37.2
-0.003	-0.0091	0	0.0015	37
-0.0015	-0.0113	-0.0015	0.003	36.9
-0.0023	-0.012	-0.0023	0.0007	36.7
-0.0015	-0.0128	-0.0023	-0.0015	36.6
-0.003	-0.0091	-0.0023	0.003	36.4
-0.003	-0.0023	-0.0008	0.0082	36.3
-0.0015	0.0037	0.0007	0.0127	36.2
-0.003	0.0157	0	0.0195	36
-0.0015	0.027	-0.0008	0.0225	35.9
-0.0015	0.0285	-0.0008	0.0157	35.7
-0.0015	0.0367	-0.0008	0.0105	35.6
-0.0015	0.0307	-0.0015	0.0112	35.5
-0.0015	-0.0008	-0.0008	0.0045	35.3
-0.0015	-0.0143	0.0007	0.003	35.1
-0.003	-0.0165	0.0007	0.0015	35
-0.0023	-0.0181	-0.0015	0	34.8
-0.0046	-0.021	-0.0015	-0.0015	34.6
-0.0053	-0.033	0	-0.0053	34.4
-0.003	-0.0405	-0.0008	-0.0038	34.2
-0.003	-0.0458	-0.0008	-0.0008	34.1
-0.0015	-0.0263	-0.0023	0.003	33.9
-0.0008	0.018	-0.0015	0.003	33.7
-0.0008	0.0052	0.0007	0.0015	33.5
0	-0.0338	0.0007	0.0022	33.3
0.0007	0.0082	0.0015	0.0052	33.1
0.0022	0.0802	0.0007	0.012	32.9
0.0015	0.0922	0.0007	0.0195	32.8
0.0007	0.075	-0.0015	0.018	32.5
-0.0008	0.0825	-0.0008	0.015	32.4
-0.0015	0.018	-0.0008	0.0052	32.2
0.0007	-0.03	-0.0008	-0.0023	32
0	-0.0091	-0.0023	-0.0015	31.8
-0.0015	-0.0128	0	-0.0053	31.6
-0.0038	-0.003	0.0007	-0.0075	31.4
-0.0046	-0.0158	0.0007	-0.0053	31.2
-0.0046	-0.0181	-0.0008	0.0007	31
-0.0053	-0.0195	-0.0008	-0.0015	30.7
-0.0046	-0.0256	0.0015	-0.0105	30.5
-0.0046	-0.0248	0.003	-0.0143	30.2
-0.0053	-0.033	0.0037	-0.0181	30
-0.0068	-0.024	0.0015	-0.0165	29.7
-0.0053	-0.0278	0.0015	-0.0128	29.4
-0.003	-0.0188	0.0015	-0.0053	29.2
-0.0015	0.0067	0.0015	0.012	28.9
-0.0008	0.0202	0	0.0165	28.7
-0.0015	0.0015	-0.0038	0.0142	28.4
-0.0008	-0.0046	-0.003	0.015	28.2
0.0015	-0.003	-0.0023	0.0165	27.9
0.003	-0.033	-0.0008	0.009	27.7
0.0022	-0.0638	0.0007	-0.012	27.4
-0.0015	-0.0555	-0.0008	-0.0128	27.2
-0.0038	0.0037	-0.0015	-0.0015	26.9
-0.003	0.0517	-0.0008	-0.0015	26.6
-0.003	0.0427	-0.0015	-0.0046	26.4
0	0.0142	-0.0023	-0.0023	26.1
0.0037	0.0285	-0.0015	0.003	25.9
0.0037	0.0225	-0.0023	0.003	25.6
0.0052	0	-0.003	0	25.3
0.0067	-0.021	-0.0015	-0.0038	25.1
0.0037	-0.0593	0	-0.0068	24.7
0.0007	-0.0691	0.0015	-0.0105	24.5
-0.0038	-0.0615	0.0007	-0.0128	24.2
-0.0091	-0.0473	-0.0008	-0.0113	23.9
-0.0113	-0.0495	-0.0008	-0.0195	23.7
-0.0098	-0.0645	-0.0046	-0.0233	23.4
-0.0105	-0.042	-0.0046	-0.0158	23.1
-0.0098	0.0442	-0.003	-0.0015	22.9
-0.0091	0.165	-0.0008	0.0157	22.6
-0.012	0.1762	0.0007	0.0187	22.3
-0.0105	0.0975	-0.0046	0.0135	22
-0.0046	0.0622	-0.0053	0.009	21.7
0	0.048	-0.003	0.0052	21.5
0.0022	0.0967	0	0.009	21.2
0.0045	0.0862	0.0037	0.009	20.9
0.0052	-0.0023	0.0037	-0.0008	20.6
0.003	-0.0181	0.0007	-0.0128	20.4
0.0022	-0.0195	0	-0.012	20.1
0	-0.0008	-0.0015	-0.0083	19.8
-0.0046	0.0082	-0.003	-0.0128	19.6
-0.0068	0.0465	0.0007	-0.0188	19.3
-0.0091	0.0247	0.0007	-0.0293	19.1
-0.0083	-0.078	0.0015	-0.0458	18.8
-0.0038	-0.1215	0.0037	-0.0533	18.5
0.0007	-0.1515	0.0037	-0.054	18.3
0.0015	-0.1688	0.0022	-0.0563	18
0	-0.192	-0.0008	-0.0518	17.8
-0.0015	-0.195	-0.0015	-0.039	17.5
-0.003	-0.15	-0.0008	-0.0165	17.2
-0.0015	-0.003	0.0045	0.0112	17
-0.0008	0.243	0.0067	0.0487	16.7
0.0015	0.309	0.0045	0.078	16.4
-0.0015	0.2055	0.0037	0.057	16.2
-0.003	0.1072	0.0037	0.0375	15.9
-0.0038	0.0915	0.006	0.0472	15.7
-0.0105	0.1072	0.0067	0.0277	15.3
-0.0143	0.03	0.0067	0.0075	15.2
-0.006	0.0577	0.0082	0.009	14.9
0.0045	0.0892	0.006	0.0255	14.7
0.009	0.0442	0.003	0.033	14.4
0.0097	0.0225	-0.0008	0.0045	14.2
0.0075	-0.042	-0.0023	0.0015	14
0.0045	-0.012	-0.003	0.0165	13.8
0.0052	-0.0143	-0.0008	0.027	13.5
0.009	-0.0488	0.003	0.0202	13.3
0.0127	-0.0668	0.0037	-0.0195	13
0.0082	-0.0975	0.003	-0.0308	12.8
0.0007	-0.0788	-0.0008	-0.0233	12.6
-0.003	-0.1058	-0.0008	-0.0233	12.4
-0.0105	-0.1013	0.0015	-0.015	12.1
-0.0098	-0.0878	-0.0008	-0.012	11.9
-0.0053	-0.0645	-0.003	-0.0068	11.7
-0.0046	-0.0038	-0.0015	-0.0053	11.4
-0.0046	0.0427	0.0015	-0.0015	11.2
-0.0046	0.0292	0.0015	-0.0015	11
-0.0046	0.0345	-0.0008	-0.0083	10.7
-0.0068	0.0877	-0.0008	-0.0105	10.6
-0.0053	-0.0105	-0.0008	-0.0113	10.4
-0.0053	-0.0593	0.0015	-0.012	10.2
-0.006	-0.0593	0.0007	-0.0135	10
-0.0091	-0.0765	0	-0.0091	9.8
-0.0075	-0.0413	0.0015	-0.0053	9.6
-0.0053	-0.0495	0.0015	0	9.4
-0.006	-0.0165	0.0007	0.0082	9.3
-0.0053	0.0165	-0.0038	0.0112	9.1
-0.0083	0.0255	-0.0046	0.0052	8.9
-0.0113	-0.0548	-0.0046	-0.0015	8.7
-0.012	-0.1125	0.003	-0.0008	8.5
-0.0128	-0.0735	0.0067	-0.0015	8.3
-0.0135	-0.066	-0.0008	-0.0068	8.1
-0.0113	-0.0525	-0.0046	-0.0038	8
-0.0083	-0.054	-0.0091	-0.003	7.8
-0.0083	-0.0218	-0.0068	-0.0038	7.6
-0.006	-0.0008	-0.006	0.0007	7.4
-0.0046	0.0052	-0.0068	0.0082	7.2
0.0015	0.033	-0.0068	0.0232	7
0.0037	0.0645	-0.0068	0.033	6.9
0.0015	0.114	-0.0046	0.0315	6.7
0.0037	0.1155	-0.006	0.0202	6.6
0.0052	0.123	-0.0046	0.0172	6.5
0.003	0.1117	-0.003	0.0232	6.3
0.0015	0.0952	-0.003	0.0127	6.2
0.0037	0.0832	-0.0023	0.0015	6
-0.003	0.0217	-0.0008	-0.0023	5.9
-0.0128	0.0142	0.0015	-0.0113	5.8
-0.0173	0.0067	0.0015	-0.0091	5.6
-0.012	-0.0083	0.0045	-0.0046	5.5
-0.003	-0.0068	0.0082	0.0015	5.3
-0.0008	-0.0278	0.0112	0.0067	5.2
0.003	-0.012	0.0127	0.0075	5.1
0.0015	0	0.0105	0.0067	4.9
-0.003	-0.0143	0.0075	-0.0038	4.8
-0.012	-0.0465	0.0045	-0.0091	4.6
-0.0143	-0.0428	0.003	-0.0135	4.5
-0.0083	-0.0405	-0.0015	-0.0278	4.4
-0.0098	-0.0113	-0.0023	-0.0361	4.2
-0.006	0.0555	-0.003	-0.0368	4.1
-0.0046	0.0052	-0.0038	-0.0375	4.1
-0.0038	0.018	-0.0008	-0.0278	4
0.0022	0.1215	0.0052	-0.0128	3.9
0.006	0.1912	0.0067	0.0037	3.9
0.0045	0.1942	0.0037	0.0195	3.8
-0.0015	0.1335	0.0022	0.03	3.7
-0.0008	0.1185	0	0.0652	3.6
0.0045	0.0915	0.0045	0.0817	3.6
0.0142	0.0412	0.006	0.0427	3.5
0.0157	-0.0346	0.0007	0.012	3.4
0.0142	-0.0765	-0.0023	-0.003	3.3
0.015	-0.0953	-0.003	-0.0195	3.3
0.0105	-0.1163	-0.0015	-0.0233	3.2
0.0127	-0.0856	-0.0046	-0.0091	3.1
0.0195	-0.0721	-0.0068	-0.003	3.1
0.0165	-0.0608	-0.0053	-0.0015	3
0.0037	-0.0721	-0.0068	0.0067	2.9
-0.0068	-0.0765	-0.0068	0.0045	2.8
-0.006	-0.0721	-0.0068	-0.0091	2.7
-0.0053	-0.0668	-0.0023	-0.0091	2.7
-0.0046	-0.045	-0.003	-0.006	2.6
-0.0015	-0.0585	-0.0038	-0.0113	2.6
0.0045	-0.0706	-0.0015	-0.0225	2.6
0.0052	-0.0706	0.0007	-0.042	2.6
0.0007	-0.1028	-0.0015	-0.0608	2.5
-0.003	-0.114	-0.003	-0.0593	2.5
-0.0105	-0.0653	0.0007	-0.0511	2.5
-0.0105	-0.0278	0.006	-0.057	2.4
-0.0053	-0.0443	0.0067	-0.0668	2.4
-0.0046	-0.0668	0.0045	-0.0518	2.3
-0.0046	-0.042	0.0052	-0.0046	2.3
-0.0038	-0.0706	0.0165	0.0457	2.3
-0.0015	-0.0511	0.024	0.0712	2.2
0.0007	0.054	0.0142	0.0585	2.2
0.006	0.0382	0.003	0.018	2.2
0.0067	-0.0105	-0.0053	-0.0046	2.1
0.0082	-0.0585	-0.0105	0.009	2.1
0.0075	-0.063	-0.012	0.0255	2.1
0.0022	0.1005	-0.0083	0.024	2
0.0067	0.3007	-0.0008	0.0315	2
0.0067	0.2332	-0.0068	0.0135	2
0.0007	-0.0361	-0.012	-0.012	2
0.003	-0.0383	-0.0091	-0.0098	2
0	0.0315	-0.0038	-0.024	2.1
-0.0158	0.0817	-0.0008	-0.0105	2.1
-0.0248	0.2527	-0.0008	0.0187	2.1
-0.0225	0.2955	-0.0023	0.03	2.1
-0.0083	0.087	-0.0083	0.0345	2.1
0.0187	-0.0436	-0.0091	0.0067	2.2
0.0405	-0.027	-0.0091	-0.0158	2.2
0.0382	-0.0458	-0.0068	0.0075	2.2
0.0255	0.0037	-0.0008	0.0195	2.2
0.0112	-0.0608	-0.0008	0.009	2.2
0.009	-0.0405	0.0022	0.003	2.2
0.0097	-0.042	0.0015	-0.0128	2.2
-0.0046	-0.1253	-0.003	-0.0105	2.2
-0.0218	-0.0706	-0.0046	0.003	2.2
-0.0405	-0.093	-0.0015	0.0165	2.3
-0.0368	-0.0578	0.006	0.0082	2.3
-0.0218	-0.0765	0.0105	-0.0083	2.4
-0.0218	-0.1238	0.012	-0.0098	2.5
-0.0181	-0.078	0.009	-0.0225	2.6
-0.012	-0.0458	0.0082	-0.0203	2.6
0.0015	-0.0458	0.0045	-0.0068	2.7
0.0157	-0.0465	-0.0023	0.0232	2.8
0.0225	-0.0203	-0.0075	0.0457	2.9
0.0255	0.0277	-0.0053	0.0292	3
0.0195	0.144	0.0045	0.018	3.1
0.0045	0.168	0.0127	-0.0075	3.1
-0.0158	0.0382	0.0105	-0.0593	3.2
-0.027	-0.0863	0.0037	-0.1013	3.3
-0.0023	-0.1155	-0.003	-0.1103	3.4
0.0675	-0.1238	-0.0046	-0.0818	3.5
0.093	-0.0998	0.0052	-0.03	3.6
0.0352	-0.0503	0.0082	0.012	3.6
0.0007	-0.0398	0.006	0.0262	3.7
-0.0195	-0.0203	0.0015	0.027	3.8
-0.048	0.0555	-0.0046	0.054	3.9
-0.0608	0.222	-0.0053	0.099	4
-0.0713	0.192	-0.0068	0.0697	4
-0.0608	0.0315	-0.0083	-0.033	4.1
-0.0615	-0.0338	-0.012	-0.0878	4.1
-0.0668	-0.0473	-0.0105	-0.0758	4.2
-0.0458	0.0922	-0.0083	-0.0315	4.3
-0.0203	0.0877	-0.0008	0.0187	4.3
0.003	-0.039	0.0022	0.0315	4.4
0.021	-0.0233	-0.0053	0.0277	4.4
0.0352	0.084	-0.012	0.0105	4.5
0.0367	0.1357	-0.0195	-0.0083	4.5
0.0247	-0.0091	-0.0165	-0.0218	4.6
0.0142	-0.0518	-0.0128	-0.057	4.7
0.0022	-0.0158	-0.0113	-0.0533	4.7
-0.0181	-0.0181	0.0052	-0.0068	4.8
-0.0195	0.0217	0.027	0.0427	4.9
-0.0046	0.0787	0.027	0.072	4.9
0.0172	0.0622	0.012	0.072	4.9
0.0435	-0.0743	-0.0098	0.0705	5
0.039	-0.1178	-0.0256	0.048	5.1
0.024	-0.1838	-0.03	0.0577	5.1
0.0135	-0.1935	-0.0256	0.0742	5.1
0.0022	-0.1411	-0.0143	0.0465	5.1
0.0097	-0.105	-0.0083	0.0412	5.1
0.0202	0.0007	0.0015	0.0517	5.1
0.0195	0.0712	0.009	0.084	5.1
0.0105	0.1537	0.03	0.0997	5.1
-0.0038	0.2302	0.0367	0.0637	5.1
-0.0158	0.1252	0.0165	0.0015	5.1
-0.0083	-0.0143	0.0217	-0.0578	5.1
0.0067	-0.027	0.0375	-0.093	5.1
0.0165	-0.0593	0.0337	-0.084	5.1
-0.0158	-0.042	0.0195	-0.066	5.1
-0.0728	-0.0225	0.0217	-0.0691	5.1
-0.084	-0.0181	0.0442	-0.0668	5.1
-0.057	-0.0495	0.0465	-0.0721	5.1
-0.0098	-0.0721	0.0165	-0.0721	5.1
0.027	-0.039	-0.0143	-0.0818	5.1
0.054	-0.0046	-0.0278	-0.0848	5.1
0.093	0.096	-0.0353	-0.0713	5.1
0.0937	0.0495	-0.0488	-0.0458	5.1
0.1042	-0.0495	-0.0533	-0.0165	5
0.1747	-0.0458	-0.0533	-0.0046	4.9
0.1725	-0.0353	-0.0436	0.0037	4.8
0.0465	0.003	-0.027	0.0052	4.7
-0.0615	0.0202	-0.0323	0.0142	4.6
-0.1253	0.0232	-0.0308	0.0322	4.5
-0.1441	0.0195	-0.0091	0.0435	4.4
-0.1193	-0.0083	0.0075	0.0292	4.3
-0.099	0.015	0.0112	-0.003	4.1
-0.0893	0.0277	0.012	-0.0165	4
-0.1013	0.0022	0.0157	-0.027	3.9
-0.0871	-0.0143	0.0255	-0.0315	3.8
-0.057	-0.0398	0.0337	-0.0315	3.7
-0.0405	-0.0773	0.0315	-0.0458	3.6
-0.0128	-0.1028	0.0262	-0.0315	3.5
0.0067	-0.1133	0.0292	-0.0165	3.3
0.0165	-0.1441	0.0307	-0.0158	3.2
0.0142	-0.1418	0.039	-0.0053	3.1
0.0015	-0.1028	0.0472	-0.0038	3
-0.0008	0.0187	0.0442	0.0405	2.8
0.0112	0.2272	0.0382	0.1095	2.8
0.024	0.3127	0.0322	0.1432	2.8
0.024	0.2347	0.0292	0.132	2.8
0.027	0.21	0.03	0.1237	2.9
0.0165	0.2602	0.0277	0.1492	2.9
-0.0015	0.2355	0.0135	0.105	2.9
-0.0128	0.1087	-0.0046	0.0345	2.9
-0.0083	0.0345	-0.006	0.018	2.9
0.0315	0.0217	0.0037	-0.0053	2.9
0.0442	-0.0105	0.003	-0.0203	2.9
0.0082	-0.0285	0.0052	-0.0233	2.9
-0.0165	-0.054	0.0127	-0.027	2.9
-0.0323	-0.0555	0.0127	-0.0233	2.9
-0.0285	-0.075	-0.0008	-0.024	2.9
-0.0053	-0.0863	-0.0083	-0.0181	2.9
0.009	-0.0953	-0.0091	-0.0256	2.9
0.018	-0.1118	-0.0203	-0.039	3
0.0067	-0.0788	-0.0113	-0.0368	3
0.003	-0.0593	0.015	-0.0315	3
0.0007	-0.0428	0.0217	-0.0233	3
-0.0128	-0.0203	0.009	-0.0068	3.1
-0.0091	0.0165	-0.0015	0.0105	3.4
-0.0008	0.0585	-0.0091	0.0157	3.6
0.015	0.0555	-0.0046	0.003	3.8
0.0255	-0.0225	0.012	-0.0105	4
-0.0008	-0.093	0.0135	-0.0308	4.2
-0.003	-0.0308	0.0067	-0.0458	4.4
0.033	0.0667	-0.003	-0.0428	4.6
0.0202	0.069	-0.0285	-0.03	4.8
-0.0046	0.0607	-0.0495	-0.0135	5
0.012	0.0502	-0.0548	-0.0113	5.2
0.0135	-0.0413	-0.0488	0.0052	5.3
-0.0158	-0.0285	-0.0338	0.0247	5.6
-0.0615	-0.0135	-0.0293	0.033	5.8
-0.0878	-0.0743	-0.0256	0.0465	6
-0.066	-0.0593	-0.0165	0.0292	6.2
-0.0195	-0.0856	-0.012	0.0052	6.4
0.0022	-0.108	-0.0038	-0.0143	6.6
0.0007	-0.1373	-0.0068	-0.0323	6.8
0.009	-0.1635	-0.0053	-0.0248	7
0.0255	-0.1741	-0.0008	-0.0158	7.1
0.0262	-0.1785	-0.0091	-0.0053	7.2
0.0082	-0.1118	-0.0158	0	7.4
0.003	-0.0113	-0.0218	-0.0008	7.6
0.0142	0.1305	-0.0278	-0.0046	7.7
0.0277	0.2085	-0.027	0.006	7.8
0.0315	0.243	-0.0188	0.0202	8
0.0157	0.2002	-0.0203	0.0262	8.1
0.0105	0.1312	-0.024	0.048	8.3
0.0465	0.207	-0.015	0.0465	8.5
0.0705	0.24	0.0007	0.0345	8.6
0.051	0.1657	0.0112	0.009	8.7
0.0247	-0.0068	-0.0008	-0.0323	8.9
0.0165	-0.0788	-0.0091	-0.0361	9
0.057	-0.0353	-0.0113	-0.0361	9.2
0.1042	-0.057	-0.0181	-0.0346	9.3
0.0915	-0.0383	-0.0188	-0.0323	9.4
0.042	-0.0436	-0.0181	-0.0368	9.6
-0.021	-0.033	-0.024	-0.03	9.8
-0.105	-0.027	-0.024	-0.0353	9.9
-0.1635	-0.0533	-0.0098	-0.039	9.9
-0.1658	-0.0503	0.003	-0.0353	10
-0.1441	-0.0623	-0.0008	-0.03	10
-0.1328	-0.0503	-0.0158	-0.0181	10.1
-0.093	-0.0293	-0.0256	-0.015	10.1
-0.0203	-0.024	-0.024	-0.021	10.2
-0.0068	-0.0203	-0.0188	-0.027	10.2
-0.0195	-0.003	-0.024	-0.0346	10.3
-0.0158	0.0157	-0.03	-0.0383	10.3
-0.0068	0.0255	-0.0368	-0.027	10.3
0.0195	-0.024	-0.039	-0.0165	10.3
0.0645	-0.063	-0.0346	-0.0105	10.4
0.1102	-0.0555	-0.0188	-0.0105	10.4
0.1372	-0.0675	0.0195	-0.0158	10.5
0.1282	-0.0278	0.0487	-0.0143	10.5
0.084	0.0802	0.0532	-0.0158	10.6
0.0367	0.18	0.0375	-0.0195	10.6
0.009	0.1297	0.0195	-0.0323	10.7
-0.0113	0.0172	0.018	-0.039	10.7
-0.0413	-0.0083	0.0202	-0.0113	10.7
-0.075	0.0165	0.012	0.0135	10.7
-0.0495	0.024	-0.0008	0.015	10.7
-0.0165	-0.0323	0.003	0.0075	10.6
-0.0173	-0.0443	0.006	0.0037	10.5
-0.0015	-0.0413	0.006	0.0045	10.4
0.0022	-0.057	0.0037	0.0067	10.3
-0.003	-0.0503	0.0082	0.0112	10.3
-0.0008	-0.054	0.0142	0.012	10.2
0.0075	-0.048	0.0172	0.0105	10.1
0.0217	-0.048	0.0202	0.0075	10
0.018	-0.0436	0.0172	0.0022	9.9
0.0112	-0.0323	0.0232	0.0015	9.9
0.0037	-0.0181	0.027	0.009	9.8
0.0022	0.0007	0.021	0.0172	9.7
0.0007	-0.0091	0.0142	0.0157	9.6
-0.0075	-0.0195	0.0127	0.0142	9.5
-0.0181	-0.0143	0.009	0.021	9.4
-0.033	-0.0068	0.006	0.0285	9.4
-0.0413	-0.0053	0.0082	0.024	9.3
-0.0443	-0.003	0.0067	0.0157	9.2
-0.0323	0.0015	0.0075	0.0127	9.2
-0.0195	0.0015	0.0007	0.0157	9.1
-0.0105	-0.0008	0	0.018	9
0	0.0015	0.009	0.0225	9
0.0007	0.0037	0.0112	0.0202	8.9
-0.0008	-0.0023	0.0082	0.018	8.9
0.0007	-0.0098	0.0105	0.0165	8.8
0.006	-0.003	0.015	0.0127	8.7
0.0052	0.0105	0.015	0.0165	8.7
0.0015	0.0052	0.0165	0.0127	8.6
-0.0038	-0.0113	0.0135	0.0037	8.5
-0.0083	-0.0091	0.012	0.0007	8.5
-0.0053	-0.0053	0.012	-0.0008	8.4
-0.0083	-0.0015	0.009	0	8.4
-0.0053	0.0045	0.0097	0.0105	8.3
0.0007	0.0082	0.009	0.033	8.2
-0.0008	0.0112	0.0105	0.048	8.2
0.0037	0.0082	0.0135	0.033	8.1
0.003	-0.0023	0.012	0.0052	8.1
-0.003	-0.0113	0.006	0.0015	8
-0.0068	0.0007	0.0052	0.0037	8
-0.0083	0.0067	0.006	0.0045	8
-0.0053	0.012	0.0022	0.0082	8
-0.0046	0.054	-0.0015	0.0127	8
-0.0015	0.0907	-0.0038	0.0315	8
-0.0008	0.0697	-0.0068	0.0345	8
-0.0068	0.03	-0.0083	0.0195	8.1
-0.0075	0.0127	-0.0083	0.0007	8.1
-0.0068	0.0015	-0.0068	-0.0143	8.1
-0.0046	-0.0015	-0.0053	-0.027	8.1
-0.0053	-0.0038	-0.0038	-0.0353	8.1
-0.0075	-0.006	-0.0015	-0.0181	8.1
-0.0068	-0.0068	0	-0.003	8.1
-0.0015	-0.0218	0	-0.0105	8.1
0.003	-0.0398	0.0015	-0.0165	8.1
0.0007	-0.045	-0.0015	-0.015	8.1
0	-0.0383	-0.0075	-0.012	8.1
0.0082	-0.0263	-0.0135	-0.0158	8.2
0.0142	0.0052	-0.0143	-0.0143	8.2
0.0105	0.0727	-0.012	-0.0068	8.2
0.0075	0.114	-0.012	0	8.3
0.0045	0.078	-0.0098	-0.0015	8.4
0.0007	0.0315	-0.0068	-0.0083	8.5
0.0105	0.0007	-0.0046	-0.012	8.6
0.0142	-0.0165	-0.0046	-0.0128	8.8
0.0052	-0.0203	-0.0083	-0.0143	8.9
-0.0075	-0.0195	-0.0105	-0.0135	9
-0.0256	-0.0128	-0.0068	-0.0128	9.1
-0.0428	-0.012	-0.0046	-0.012	9.2
-0.048	-0.006	0	-0.0083	9.4
-0.0263	-0.0053	0	-0.003	9.4
-0.0015	-0.0046	-0.0015	-0.0023	9.6
0.0045	-0.0083	-0.0015	-0.0053	9.7
0.0112	-0.012	-0.0046	-0.006	9.8
0.0165	-0.0053	-0.006	-0.0046	9.9
0.027	-0.0023	-0.0053	-0.0105	10
0.027	-0.0015	-0.0068	-0.0173	10.1
0.0112	-0.0015	-0.0046	-0.0128	10.3
0.003	0.0015	-0.0015	-0.0075	10.3
-0.012	0.0015	-0.0015	-0.0038	10.5
-0.0233	0.0015	-0.003	0.0015	10.5
-0.003	0.003	-0.0008	0.0037	10.5
0.0052	0.003	0.0045	0	10.5
-0.003	0.0045	0.0067	-0.0083	10.6
0.0007	0.0037	0.018	-0.0098	10.6
-0.0015	0.0037	0.0225	-0.0068	10.6
-0.0015	0.0007	0.0142	-0.0046	10.6
0.0067	-0.0053	0.0045	-0.0046	10.6
0.021	-0.0091	-0.006	-0.0053	10.7
0.0225	-0.015	-0.0046	-0.0046	10.7
0.0045	-0.0165	-0.0015	-0.003	10.7
0.0105	-0.0135	-0.0046	-0.0008	10.7
0.015	-0.012	-0.0091	0.003	10.7
0.0105	-0.006	-0.0128	0.0015	10.7
0.012	-0.003	-0.0128	0.0015	10.7
0.0142	-0.0023	-0.0203	0.0007	10.7
0.0202	-0.0015	-0.0195	-0.0023	10.8
0.0172	-0.003	-0.0068	-0.0038	10.8
0.0067	0.0007	-0.0046	-0.0023	10.8
0	0.003	-0.0098	0	10.8
0.003	0.0007	-0.0165	-0.0008	10.8
-0.0008	-0.0015	-0.0203	-0.0023	10.7
-0.0158	-0.0046	-0.0173	-0.003	10.7
-0.042	0.0007	-0.0068	-0.0023	10.6
-0.0668	0.006	0	-0.003	10.5
-0.0653	0.0045	-0.003	-0.0046	10.4
-0.0346	0.0067	-0.0015	-0.0015	10.3
0.0015	0.0082	-0.0008	0.0015	10.3
0.0157	0.009	-0.0008	0.0045	10.2
0.0262	0.012	0.003	0.003	10.1
0.0307	0.0067	0.0172	0.0007	10
0.015	0.0022	0.0232	0.0015	9.9
0.0067	0.0007	0.0195	0.0022	9.9
0.0052	0.0007	0.0165	0.0007	9.8
0.003	-0.0023	0.009	-0.0015	9.7
0.0022	-0.0113	0.0082	0.0007	9.6
0.0007	-0.0165	0.0067	0.003	9.5
0.0007	-0.0158	0.006	0.0052	9.4
-0.0038	-0.012	0.0082	0.0045	9.4
-0.0046	-0.0091	0.0127	0.0022	9.2
0.0015	-0.0083	0.0105	-0.003	9.2
0.0022	-0.0083	0.0082	-0.0068	9.2
-0.0015	-0.0083	0.0127	-0.0046	9.1
-0.0023	-0.0105	0.009	-0.0023	9
-0.0008	-0.0098	0.009	-0.003	9
0.0007	-0.0083	0.0082	-0.0046	9
-0.0015	-0.0105	0.0007	-0.0053	8.9
-0.0015	-0.0098	0.0022	-0.0053	8.9
-0.0015	-0.012	0.0052	-0.006	8.8
-0.0046	-0.0143	0	-0.0053	8.7
-0.0008	-0.0158	-0.0105	-0.0068	8.7
0.0045	-0.0165	-0.0143	-0.0091	8.6
0.009	-0.0173	-0.0083	-0.0075	8.6
0.0225	-0.0225	-0.0075	-0.0091	8.5
0.0315	-0.024	-0.006	-0.0143	8.5
0.024	-0.0256	0.0007	-0.0181	8.5
0.0067	-0.027	0	-0.0203	8.4
-0.0046	-0.0285	-0.0015	-0.0195	8.3
-0.021	-0.0233	0.0052	-0.015	8.3
-0.0443	-0.0165	0.009	-0.003	8.2
-0.0495	-0.0128	0.0142	0.0105	8.2
-0.0293	-0.0075	0.0105	0.0165	8.2
-0.012	-0.0038	0.003	0.0157	8.2
-0.0091	0.0007	0.003	0.0187	8.2
-0.0046	0.0007	0.0007	0.0165	8.3
-0.0053	-0.0008	0.0022	0.0067	8.3
-0.0046	0.0007	0.0007	0.0007	8.3
-0.0038	0.003	-0.0015	-0.0046	8.3
-0.0053	0.0075	-0.0008	-0.0075	8.3
-0.003	0.0097	-0.0038	-0.0068	8.4
-0.0023	0.012	-0.0046	-0.0046	8.4
-0.0015	0.0142	-0.0046	-0.0015	8.4
-0.003	0.0172	-0.0038	0.0037	8.4
-0.0046	0.0195	-0.0053	0.0105	8.4
-0.0038	0.0225	-0.0083	0.0075	8.4
-0.003	0.0232	-0.0068	0.0045	8.5
-0.003	0.0202	-0.0038	0.0052	8.5
-0.003	0.0195	-0.0023	0.0015	8.5
-0.0015	0.0165	-0.003	-0.0008	8.5
-0.003	0.0165	-0.0038	-0.0008	8.5
-0.0023	0.0157	-0.0015	-0.0008	8.5
-0.0008	0.015	-0.0008	0	8.5
0	0.0187	-0.0015	0.0007	8.5
-0.0008	0.0202	0	0.0007	8.5
0.0007	0.0225	-0.0023	0.0015	8.5
-0.003	0.024	-0.0008	0.0052	8.5
-0.0098	0.0255	0.0007	0.0045	8.5
-0.0046	0.0247	0.0007	0.0037	8.5
0.0022	0.0255	0.0015	0.0037	8.5
0.0015	0.024	-0.0008	0.003	8.5
0	0.0187	0.0007	0.0015	8.5
-0.0038	0.0135	0.0015	0.003	8.5
0.0007	0.0105	0	0.0067	8.5
0.0037	0.0105	-0.0023	0.0067	8.5
0.0015	0.0097	-0.0046	0.0045	8.5
0	0.0105	-0.003	0.0052	8.5
-0.0091	0.0105	-0.0023	0.0067	8.5
-0.0173	0.012	-0.003	0.006	8.5
-0.0091	0.0127	-0.0015	0.0067	8.5
0.0067	0.012	-0.003	0.006	8.5
0.0037	0.012	-0.0046	0.0052	8.5
0.0007	0.009	-0.0075	0.006	8.5
0.003	0.0045	-0.006	0.0045	8.5
-0.0008	-0.0008	-0.0015	0.0037	8.5
-0.0053	-0.0053	-0.0046	0.003	8.5
-0.0053	-0.0105	-0.0038	0.003	8.5
0.0007	-0.012	-0.0008	0.003	8.5
0	-0.0105	0.0015	0.0022	8.5
0.0015	-0.012	0.0037	0.003	8.5
0.0022	-0.0113	0.0052	0.003	8.4
0.0015	-0.0113	0.0052	0	8.4
0.0045	-0.0091	0.0045	0.0007	8.4
0.0007	-0.0098	0.006	0.0007	8.4
0	-0.0098	0.006	0	8.4
-0.0008	-0.0083	0.0052	-0.003	8.4
-0.0008	-0.0083	0.0045	-0.0053	8.4
-0.0008	-0.0068	0.0015	-0.003	8.4
-0.0015	-0.0091	0.0022	-0.0015	8.3
0	-0.0091	0.0022	-0.0015	8.3
-0.0015	-0.0083	0.003	-0.0023	8.3
-0.003	-0.0091	0.0015	-0.0046	8.3
-0.0023	-0.0105	0.0007	-0.0046	8.2
-0.0015	-0.0113	0.0007	-0.0053	8.2
0.0007	-0.012	-0.0008	-0.0015	8.2
0.0007	-0.0158	-0.0008	0.0015	8.1
-0.0008	-0.0165	-0.0015	0.0007	8.1
-0.0008	-0.0113	-0.0023	-0.0008	8.1
-0.0015	-0.0091	-0.0008	-0.003	8
-0.0015	-0.0091	-0.003	-0.0015	8
-0.0008	-0.0091	-0.0008	-0.0015	7.9
-0.0008	-0.0105	-0.0008	0.0007	7.9
-0.003	-0.0128	-0.0008	0.0045	7.9
-0.003	-0.0143	0.0007	0.0015	7.8
-0.0023	-0.0165	0.0007	-0.0008	7.8
-0.003	-0.0158	0.0015	-0.0023	7.7
-0.0015	-0.0158	0.0007	-0.0023	7.7
-0.0015	-0.0143	0.0015	-0.0053	7.7
-0.0023	-0.0143	0.0052	-0.0075	7.6
-0.0008	-0.0128	0.0052	-0.0075	7.6
-0.0015	-0.0083	0.0022	-0.0098	7.5
-0.003	-0.0053	0.0015	-0.0083	7.5
-0.003	-0.0046	0	-0.0068	7.5
-0.003	-0.0008	0	-0.0053	7.4
-0.0015	0	0.0015	-0.0053	7.3
0.003	0.0015	0.0007	-0.0038	7.3
0.0007	0.0037	-0.003	-0.0008	7.2
-0.0008	0.0037	-0.003	0.0015	7.2
-0.003	0.003	-0.003	0.0067	7.1
-0.0023	0.0022	-0.0038	0.0045	7.1
-0.0023	0.0045	-0.0008	0.0007	7
-0.0038	0.003	0.0007	0.0007	7
-0.0008	0.003	0.0007	-0.0015	6.9
0.0007	0.0037	0.0007	-0.0008	6.8
0.0015	0.0045	0.0007	-0.0008	6.8
0.0052	0.0075	-0.0015	-0.0015	6.7
0.009	0.0075	-0.0008	-0.0008	6.7
0.0015	0.0082	0.0007	0	6.7
-0.0068	0.006	0.0007	0.0015	6.6
-0.0046	0.0037	-0.0008	0.0015	6.5
-0.0046	0.003	-0.0023	-0.0015	6.4
-0.0053	0.0015	-0.0008	-0.0023	6.4
-0.0046	0.0007	0.0015	-0.0008	6.4
-0.0038	0.0007	0.0007	-0.0008	6.3
-0.0023	0.0007	0.003	0	6.3
-0.003	0.0015	0.0022	-0.0015	6.2
-0.0038	0.0037	0.0015	-0.0046	6.2
-0.003	0.003	0.0037	-0.0053	6.1
-0.0038	0.0067	0.0015	-0.006	6.1
-0.003	0.0097	0.0022	-0.003	6
-0.003	0.0135	0.0022	0.003	6
-0.003	0.0142	0.0022	0.0045	5.9
-0.0038	0.0007	0.003	0.0015	5.9
-0.003	0.0015	0.0022	-0.0008	5.8
-0.003	0.0045	0.0007	0.0007	5.8
-0.003	0	-0.0008	0.0022	5.7
-0.003	0.003	-0.003	0.006	5.7
-0.003	0.003	-0.0023	0.0082	5.6
-0.0053	0.0045	-0.0008	0.009	5.6
-0.0053	0.003	-0.0023	0.0067	5.5
-0.0038	0.0015	-0.0008	0.0015	5.4
-0.0023	0	-0.0008	0	5.4
0.0007	-0.003	-0.003	-0.0053	5.4
0.0007	-0.0015	-0.0053	-0.0046	5.3
-0.0008	-0.0015	-0.0046	-0.0015	5.3
-0.003	-0.0008	-0.0046	0.0007	5.2
-0.0053	0.0015	-0.0053	0.003	5.2
-0.0053	0.0045	-0.0053	0.009	5.1
-0.0038	0.0045	-0.0053	0.0105	5.1
-0.0053	0.0037	-0.0015	0.0075	5
-0.003	0.003	-0.0008	0.0067	4.9
0.0015	0.0045	-0.0008	0.0067	4.9
0.003	0.003	-0.0008	0.0045	4.9
0.0045	0.003	0.0015	0.0015	4.8
0.003	0.0015	0.0045	0.0015	4.8
0.003	-0.0015	-0.0008	0	4.7
0.0045	-0.0023	-0.0053	-0.0015	4.7
0.0052	-0.0023	-0.0068	-0.0046	4.6
0.0037	-0.003	-0.0053	-0.0046	4.5
-0.0008	-0.0053	-0.003	-0.0046	4.5
-0.0038	-0.0068	-0.003	-0.0068	4.4
-0.0023	-0.0083	-0.0046	-0.0053	4.4
0.0007	-0.0091	-0.0023	-0.0046	4.4
-0.0046	-0.0083	0.0007	-0.003	4.3
-0.0068	-0.0053	-0.0008	-0.0015	4.2
-0.0038	-0.0038	-0.003	-0.0008	4.2
-0.0023	-0.0038	-0.0015	0.0007	4.1
-0.0008	-0.003	0.0007	-0.0008	4
-0.0038	-0.003	0.0075	-0.0008	4
-0.003	-0.003	0.0082	-0.0008	4
-0.0023	-0.0015	0.0075	-0.0008	3.9
-0.0023	-0.0023	0.0052	-0.0015	3.8
-0.003	-0.006	0.0037	-0.0053	3.8
-0.003	-0.0068	0.0067	-0.0068	3.7
-0.0015	-0.0068	0.0082	-0.0038	3.6
-0.0008	-0.0083	0.0067	-0.0038	3.6
0.0045	-0.0068	0.0045	-0.0008	3.6
0.009	-0.0053	0.0015	-0.0023	3.5
0.012	-0.003	0	-0.003	3.4
0.0015	0	0.0015	-0.0015	3.4
-0.015	0.0015	0.0015	-0.0015	3.3
-0.0165	0.0052	0.0007	-0.0008	3.3
-0.0083	0.006	-0.0008	-0.0008	3.2
-0.0008	0.006	-0.003	-0.0008	3.2
-0.003	0.0052	-0.0046	0.0007	3.1
-0.0015	0.003	-0.0053	0	3.1
-0.0015	0.0022	-0.0046	-0.003	3
-0.006	0.0007	-0.003	-0.003	3
-0.0105	0	-0.0046	-0.0023	2.9
-0.0075	0.0022	-0.0046	-0.003	2.9
-0.003	0.0007	-0.0053	-0.003	2.8
-0.0068	-0.0008	-0.003	-0.0023	2.8
-0.0046	-0.003	0.0007	-0.0023	2.7
-0.0038	-0.0046	-0.0008	-0.003	2.7
-0.0015	-0.0053	-0.0015	-0.003	2.6
0.0015	-0.0053	0	-0.0008	2.6
0	-0.003	0.003	0	2.5
-0.0015	0.0007	0.0052	0	2.5
0.0007	0.0007	0.0052	0	2.4
0.0007	0.0007	0.0052	-0.0008	2.4
0	0.0007	0.0052	0	2.3
0.0007	0.0015	0.003	-0.0008	2.3
-0.0008	0.003	0.0007	-0.0008	2.3
0.0007	0.003	0	-0.0015	2.2
-0.0015	0.0037	0.0015	-0.0023	2.2
-0.0023	0.0037	0.0022	-0.0008	2.2
-0.0008	0.0037	0.0015	-0.0008	2.2
-0.0038	0.003	-0.0008	-0.0023	2.2
-0.0015	0.0007	0.0015	-0.0008	2.1
-0.0015	-0.0023	0.0022	0.0007	2.1
-0.0023	-0.003	0.0015	-0.0008	2.1
-0.003	-0.003	0.003	0	2
-0.0046	-0.0038	0.0052	-0.0008	2
-0.0038	-0.0046	0.0052	0	2
-0.0015	-0.0053	0.0045	0.0015	2
-0.0015	-0.0046	0.0045	0.0007	1.9
-0.003	-0.0053	0.0037	-0.0008	1.9
-0.003	-0.0068	0.003	-0.003	1.9
-0.0046	-0.0068	0.0015	-0.0015	1.8
-0.0046	-0.0068	0.0015	-0.0023	1.8
-0.0046	-0.0053	0	-0.003	1.8
-0.0053	-0.0046	-0.003	-0.0046	1.8
-0.0053	-0.003	-0.0046	-0.006	1.8
-0.0046	0.0007	-0.003	-0.006	1.8
-0.0023	0.003	-0.0015	-0.006	1.7
-0.0008	0.0045	-0.0015	-0.0053	1.7
0.0037	0.0067	0.0007	-0.0046	1.7
0.009	0.0075	0.0022	-0.0053	1.7
0.0097	0.006	0.0007	-0.0053	1.6
0.0007	0.003	0.0015	-0.003	1.6
-0.0053	0	0	-0.0023	1.6
-0.0091	0	-0.0015	-0.0023	1.6
-0.003	-0.0008	-0.0008	-0.0008	1.6
0.0052	-0.0015	-0.0008	-0.0008	1.5
-0.0023	-0.0038	0	-0.0008	1.5
0.0067	-0.0053	-0.003	-0.0008	1.5
0.0217	-0.0083	-0.0038	0.0015	1.5
0.0232	-0.0075	-0.0015	0.0015	1.4
0.0127	-0.0083	-0.0023	0.0015	1.4
-0.0098	-0.0068	-0.0015	0.0015	1.4
-0.0225	-0.0038	-0.0008	0.0022	1.3
-0.0308	-0.0008	0.0007	0.0045	1.3
-0.0218	0	-0.003	0.0052	1.3
-0.003	0.0022	-0.003	0.0045	1.3
0.0015	0.0037	0.0022	0.0015	1.3
0.0015	0.0007	0.0007	0.0015	1.3
0.0007	-0.003	0	0.003	1.3
0.0007	-0.0068	0.0015	0.0007	1.3
-0.0008	-0.0053	0.0052	-0.0008	1.2
-0.0046	-0.0046	0.0067	-0.0023	1.2
-0.0053	-0.0053	0.0022	-0.0015	1.2
-0.0053	-0.0053	0.0022	-0.0015	1.2
-0.003	-0.0075	-0.0008	-0.0015	1.2
-0.0008	-0.0091	-0.0015	-0.0008	1.1
0.0007	-0.0091	-0.003	-0.0008	1.1
0.0007	-0.0083	-0.0046	0	1.1
-0.0015	-0.006	-0.0023	-0.0008	1.1
-0.003	-0.0046	-0.0015	-0.0008	1
-0.0008	-0.003	0.0007	0.0007	1
-0.0008	0	0	-0.0023	1
-0.0008	0.0007	-0.0008	-0.0053	0.9
0	0.0007	-0.0015	-0.0046	0.9
-0.0008	0.0015	-0.0023	-0.0015	0.9
-0.0015	0.0015	0.0007	0.0007	0.9
-0.0015	-0.0008	0.0007	0.0007	0.9
-0.0008	-0.0008	0.0007	0	0.9
0.0007	-0.0015	0.0015	-0.0015	0.9
-0.0008	-0.0015	0.0007	-0.0008	0.9
0.0007	0.0007	0.0015	0.0007	0.9
0	0.0007	0.0045	0.0015	0.9
-0.0023	0.0015	0.0067	0.0007	0.9
-0.003	0.003	0.003	-0.0008	0.9
-0.0038	0.0037	-0.0008	0.0007	0.9
-0.0038	0.0052	-0.0038	0.0015	0.9
-0.0046	0.0045	-0.003	-0.0015	0.9
-0.0046	0.0015	-0.0015	-0.0015	0.9
-0.0046	0.0037	-0.0008	-0.0015	0.9
-0.003	0.0052	0.0022	-0.003	0.9
-0.0015	0.0075	0.0022	-0.003	0.8
0	0.0142	0.0015	-0.0015	0.8
0.0007	0.0187	-0.003	-0.0015	0.8
0.0007	0.0172	-0.0083	-0.0015	0.8
0.0015	0.0165	-0.0083	-0.0015	0.8
0.0007	0.015	-0.0068	-0.0023	0.8
-0.0008	0.0135	0	-0.0015	0.8
0.0007	0.0105	0.0015	-0.0008	0.8
-0.0015	0.0052	0.0007	-0.0008	0.8
-0.0046	0.0045	-0.0008	-0.0015	0.8
-0.0015	0.0037	-0.0015	-0.0038	0.8
0.0045	0.0052	0.0007	-0.003	0.8
0.0052	0.006	0.0007	-0.0015	0.8
0.009	0.006	0.003	-0.0015	0.8
0.0052	0.0067	0.0052	-0.0015	0.8
-0.0128	0.0045	0.0052	-0.0038	0.8
-0.0091	0.0082	0.003	-0.003	0.8
0.003	0.006	0.0007	-0.003	0.8
-0.0008	0.003	0.0022	-0.0046	0.8
0.0007	0.0022	0.0022	-0.003	0.8
-0.0015	0	0.0022	-0.0023	0.8
-0.006	0.0015	0	-0.0038	0.8
-0.0075	0	-0.0008	-0.003	0.7
-0.0023	-0.0068	0.0007	-0.003	0.7
0.003	-0.0105	0.003	-0.003	0.7
0.003	-0.012	0.0007	-0.0008	0.8
0.0007	-0.0128	-0.003	0.0007	0.8
-0.0038	-0.0098	-0.0023	0.0007	0.8
-0.0046	-0.0128	-0.0023	0.0007	0.8
-0.0046	-0.015	-0.003	0	0.8
-0.006	-0.012	-0.003	0.0007	0.8
-0.0046	-0.0113	-0.0015	0.003	0.8
-0.006	-0.0098	0.0007	0.0045	0.8
-0.0075	-0.0083	0.0007	0.003	0.8
-0.0075	-0.0068	0.0007	0.003	0.8
-0.006	-0.0038	0.0015	0.0037	0.9
-0.0038	-0.0015	0.003	0.0022	0.9
0.0022	-0.003	0.0015	0.003	0.9
0.0105	-0.0008	0	0.0022	0.9
0.0112	0.0007	-0.0015	0.003	0.9
0.0037	0.0007	-0.0023	0.003	0.9
-0.0068	0.0052	-0.0038	0.0015	0.9
-0.0105	0.006	-0.0053	0.0022	0.9
-0.0091	0.0075	-0.003	0.0015	0.9
-0.0113	0.0082	-0.0015	0.0007	0.9
-0.0091	0.0105	-0.0015	0.0007	0.9
-0.003	0.0157	-0.0008	-0.0008	0.9
-0.0008	0.0127	-0.0008	-0.0015	1
0.003	0.0082	0	-0.0023	1
-0.0015	0.003	0.0007	-0.0015	1
-0.0068	0	0.0015	-0.0008	1
-0.0053	-0.0015	0.0015	-0.0008	1
-0.0038	-0.003	-0.0008	-0.0015	1
-0.0015	-0.0053	-0.0046	-0.0015	1
-0.0008	-0.0075	-0.0046	-0.0015	1.1
0	-0.0113	-0.0015	-0.0038	1.1
0	-0.0181	0.0007	-0.0046	1.1
0.0007	-0.0225	0.0007	-0.0046	1.1
0.0015	-0.024	0	-0.0038	1.1
-0.0008	-0.0233	0.0007	-0.0046	1.1
-0.0023	-0.0203	0.0022	-0.003	1.1
-0.0015	-0.0158	0.003	-0.0038	1.2
-0.0023	-0.0128	0.0015	-0.0046	1.2
-0.0053	-0.0143	0.0007	-0.003	1.2
-0.0038	-0.0128	-0.0023	-0.0023	1.2
0.0007	-0.0105	-0.0023	-0.003	1.2
0.0015	-0.0091	-0.0008	-0.0015	1.3
0.0007	-0.0075	-0.0015	-0.0008	1.3
0	-0.0068	-0.0008	-0.0008	1.3
0.003	-0.0046	-0.0008	-0.0008	1.3
0.0052	-0.0053	-0.0008	-0.0008	1.3
0.0037	-0.0046	-0.0015	-0.0015	1.3
0.003	-0.0046	-0.0008	-0.0008	1.4
0.0007	-0.0008	0.0015	0	1.4
0.0007	0.0015	0.0015	0.0007	1.4
0.0007	0.0022	0.0037	-0.0008	1.4
0.0007	0.0045	0.0052	-0.0008	1.4
0	0.003	0.0052	0.0007	1.5
-0.003	0.003	0.0052	-0.0008	1.5
-0.003	0.0007	0.003	-0.0015	1.5
-0.0046	-0.0015	0.0037	-0.0008	1.5
-0.0053	-0.0015	0.003	-0.0008	1.6
-0.0038	0.0015	0.003	-0.0015	1.6
-0.003	0.0037	0.0015	-0.003	1.6
-0.003	0.0015	-0.0008	-0.0023	1.7
-0.003	0.0015	-0.0008	-0.0046	1.7
-0.003	-0.0008	-0.0008	-0.0038	1.7
-0.003	0.0007	-0.0008	-0.0046	1.8
-0.0038	0.0007	0	-0.0046	1.8
-0.0038	-0.0015	0.0015	-0.003	1.8
-0.003	0	0.0007	-0.003	1.9
-0.0015	-0.0008	0.0015	-0.0023	1.9
-0.0008	-0.0023	0.0022	-0.0015	2
0.0007	-0.003	0.0007	-0.0008	2
0	-0.0038	0.0007	-0.0008	2
-0.0008	-0.003	0.0022	0	2.1
0	-0.0015	0.0007	-0.0008	2.1
-0.0023	0.0007	-0.0015	-0.0015	2.2
-0.003	0.0022	-0.003	-0.0008	2.2
-0.0008	0.0015	-0.0053	0.0007	2.2
0.0045	0.0007	-0.0053	0.0015	2.2
0.0067	-0.0015	-0.0046	0.0007	2.3
0.0075	-0.003	-0.0046	0	2.3
0.003	-0.003	-0.0038	-0.0008	2.4
-0.0008	-0.0008	-0.003	-0.0008	2.4
-0.0015	0.0022	-0.0046	0.0022	2.5
-0.003	0.0037	-0.0053	0.0052	2.5
-0.003	0.0052	-0.0068	0.0015	2.6
-0.003	0.0067	-0.003	0.0015	2.6
-0.0015	0.0097	0.0007	0.0037	2.7
-0.0023	0.009	0.0015	0.0015	2.7
-0.0053	0.0105	0.0022	0.0022	2.8
-0.003	0.0105	0.0015	0.0015	2.8
-0.003	0.009	0.0015	0.0015	2.9
-0.0046	0.0082	0.0007	0.0015	2.9
-0.0046	0.0052	0.0015	-0.0015	3
-0.006	0.003	0.0037	-0.003	3
-0.0068	0.0015	0.0015	-0.0046	3.1
-0.0091	0.0007	0	-0.0023	3.1
-0.0098	-0.0015	-0.0008	-0.0008	3.2
-0.006	0	0	-0.0023	3.2
0	0.0015	0.0007	-0.0038	3.3
0.0082	0	0.0015	-0.0038	3.3
0.006	-0.0008	0.003	-0.003	3.4
-0.0008	-0.0015	0.0022	-0.0023	3.5
-0.0046	-0.0008	0.0022	-0.0008	3.5
-0.006	0.0007	0.0015	0	3.6
-0.003	0.0015	0.0015	-0.0008	3.6
0.0015	0.003	0.0007	-0.0015	3.7
-0.0015	0.003	0.0007	-0.0023	3.7
-0.0053	0.0037	-0.0015	-0.0023	3.8
-0.0008	0.0052	-0.003	-0.0053	3.9
-0.0008	0.0075	-0.003	-0.0068	3.9
-0.0015	0.0082	-0.0038	-0.0053	4
-0.0015	0.0052	-0.0053	-0.0046	4
-0.003	0.003	-0.006	-0.0046	4.1
-0.003	0.0037	-0.006	-0.0023	4.1
-0.0046	0.0022	-0.0068	0.0015	4.2
-0.0023	0.0015	-0.0083	0.0007	4.3
-0.0038	0	-0.006	0	4.3
-0.0053	-0.003	-0.0053	-0.0008	4.4
-0.0053	-0.0046	-0.0038	-0.0008	4.5
-0.0068	-0.0053	-0.0023	0.0007	4.5
-0.0046	-0.0068	-0.0008	0.0007	4.6
-0.0008	-0.0083	0.003	0.0015	4.6
0.0015	-0.0083	0.006	0.0007	4.7
0.003	-0.0083	0.0052	0.0015	4.8
0.0082	-0.0068	0.0045	0.0022	4.9
0.0157	-0.003	0.0037	0.0015	4.9
0.018	-0.003	0.003	0.0015	5
0.0165	-0.0023	0.0067	0.003	5
0.0082	-0.003	0.009	0	5.1
-0.0015	-0.0038	0.009	0	5.2
-0.0053	-0.003	0.0045	-0.0015	5.3
-0.0091	-0.0046	0.0015	-0.0046	5.3
-0.0083	-0.003	-0.0008	-0.0038	5.4
-0.0068	-0.0015	-0.0008	-0.0015	5.5
-0.003	-0.0023	0.0022	-0.0008	5.5
0.0067	-0.003	0.0037	0.0015	5.6
0.0022	-0.0023	0.0015	0	5.7
-0.0053	-0.0008	0.0015	-0.0015	5.8
-0.0075	0.0007	0.0022	-0.0015	5.8
-0.0053	0.0015	-0.0008	-0.0008	5.9
-0.0008	0.0015	-0.0015	0	6
-0.0015	0.0007	-0.0008	-0.0008	6.1
-0.0046	0.0007	0.0007	-0.0023	6.2
-0.0046	-0.0015	0.0045	-0.003	6.3
-0.006	0	0.0045	-0.0023	6.4
-0.0068	0.0015	0.0015	0	6.5
-0.0083	0.003	-0.0015	0	6.6
-0.0083	0.0022	-0.0008	-0.0015	6.7
-0.0068	0.003	-0.0023	-0.0008	6.8
-0.0068	0.006	-0.003	0.0007	6.9
-0.0068	0.006	0.0007	0.0007	7
-0.006	0.0045	0.003	0.0015	7.1
-0.006	0.0052	0.0037	0.0007	7.2
-0.003	0.0037	0.0022	0.0022	7.3
-0.0023	0.0007	0.0015	0.003	7.4
0.0015	0.0015	0.0007	0.0007	7.5
0.003	0.0015	-0.0023	0.0007	7.6
-0.0008	0.0022	-0.0015	0.0015	7.7
0.003	0.0022	-0.0038	0.003	7.8
0.009	0.003	-0.0046	0.0045	7.9
0.0127	0.0037	0.0007	0.0037	8.1
0.0082	0.0022	0.0022	0.0015	8.2
0.0007	0.0007	0.0037	0.0015	8.3
-0.0038	0	0.0007	0.0007	8.5
-0.0068	0	-0.0008	0.0015	8.6
-0.0015	-0.0015	0.0007	0.0022	8.7
0	-0.0015	0.0015	0.003	8.9
-0.003	-0.0008	0.0022	0.003	9
-0.0046	-0.0023	0.0015	0.0007	9.1
-0.0053	-0.0015	0.0022	0.0037	9.3
-0.0046	-0.0008	0.003	0.0045	9.4
-0.003	-0.0015	0.0037	0.0007	9.5
-0.0015	-0.0015	0.0022	0.0015	9.7
-0.003	-0.003	0.0015	0.0015	9.8
-0.0053	-0.0053	-0.0008	0.0022	9.9
-0.006	-0.0053	0	0.0015	10.1
-0.0053	-0.003	0.0007	0.0015	10.2
-0.003	-0.0015	-0.0008	0.0015	10.3
-0.0053	0	0.0007	0.0007	10.5
-0.0068	-0.003	0.0015	0.0015	10.6
-0.0068	-0.0023	0.0015	0.003	10.8
-0.0038	-0.0008	0.0007	0.0045	11
-0.0008	-0.0046	0	0.003	11.2
-0.0023	-0.0068	-0.0015	0.0022	11.3
0	-0.0075	-0.0023	0.0015	11.5
-0.0008	-0.0083	-0.0038	0	11.7
-0.0023	-0.0091	-0.0053	0.0022	11.8
0.0007	-0.0091	-0.0053	0.0022	12
0.0037	-0.0105	-0.006	0.0007	12.2
0.003	-0.0135	-0.006	-0.0015	12.4
0.0015	-0.0165	-0.0046	-0.0015	12.6
-0.0023	-0.0181	-0.0023	-0.003	12.7
-0.0053	-0.0173	-0.0023	-0.003	12.9
-0.0038	-0.015	-0.0008	-0.0008	13.1
-0.0008	-0.0135	0.0007	-0.0015	13.3
0.0037	-0.0128	0.0007	0.0007	13.4
0.0052	-0.012	0.0007	0.0015	13.6
0.0045	-0.0091	0.0015	0.0015	13.8
0.0037	-0.0068	0.0045	0.0015	13.9
-0.0015	-0.0068	0.0045	0	14.1
-0.0053	-0.0046	0.0052	0.0007	14.4
-0.0038	-0.003	0.0067	0.0015	14.6
-0.003	-0.0008	0.006	-0.0008	14.8
-0.003	0.0015	0.0045	0	15
-0.0015	0.0015	0.003	0	15.2
0	0.0052	0.0015	-0.0015	15.4
0.0007	0.0045	-0.0008	-0.0015	15.7
0.0007	0.0052	-0.0015	-0.0023	15.9
0.0007	0.0052	-0.003	-0.0015	16.1
0.0015	0.0045	-0.0008	-0.003	16.3
-0.0008	0.0045	0	-0.0046	16.5
-0.003	0.0022	-0.003	-0.0023	16.7
-0.003	0.0007	-0.0046	-0.003	17
-0.003	0	-0.0046	-0.0053	17.2
-0.003	-0.0008	-0.0053	-0.0046	17.4
-0.0046	-0.0015	-0.0083	-0.0053	17.6
-0.0038	-0.003	-0.0091	-0.0046	17.8
-0.0023	-0.003	-0.0105	-0.0015	18
-0.003	-0.003	-0.0083	-0.0023	18.3
-0.0023	-0.0023	-0.006	-0.0038	18.5
-0.0008	-0.003	-0.0068	-0.0053	18.7
0	-0.003	-0.0046	-0.0068	19
0	-0.0015	-0.003	-0.0068	19.3
-0.0015	0.0007	-0.0015	-0.0083	19.5
-0.003	0.0007	-0.0008	-0.0068	19.8
-0.003	0.0022	-0.0008	-0.0038	20
-0.0008	0.0045	-0.0015	-0.0015	20.2
-0.0015	0.0067	-0.0008	-0.0023	20.5
-0.003	0.009	0	-0.0023	20.7
-0.003	0.0105	-0.0015	-0.0008	21
-0.0053	0.0112	0.0007	0.0007	21.2
-0.0053	0.0097	0	0.0007	21.5
-0.0046	0.009	0.0007	-0.0008	21.7
-0.0068	0.0082	0.0007	-0.0008	22
-0.0053	0.0067	0.0015	-0.0023	22.2
-0.0053	0.0075	-0.0015	-0.003	22.5
-0.0038	0.0067	-0.0023	-0.0038	22.7
-0.0023	0.0052	-0.0008	-0.003	22.9
-0.0015	0.003	0.0007	-0.0015	23.2
-0.0008	0.0022	0.0015	-0.0015	23.4
0.0007	0.0007	-0.0008	-0.0015	23.7
0	-0.0015	-0.0046	-0.003	23.9
-0.0015	-0.0008	-0.0091	-0.003	24.2
-0.0008	-0.003	-0.0075	-0.0046	24.4
0.0007	-0.0008	-0.0075	-0.0053	24.7
0.0015	0	-0.0068	-0.0053	24.9
0.0015	-0.0008	-0.0046	-0.0038	25.2
-0.0008	-0.0015	-0.0015	-0.0023	25.4
0.0015	-0.0008	0.0007	-0.003	25.7
0.0007	-0.0015	0.0022	-0.0023	25.9
-0.0008	-0.0046	0.0045	-0.003	26.1
-0.0015	-0.0023	0.0015	-0.0046	26.4
-0.0008	-0.0038	0.0045	-0.0053	26.7
-0.0015	-0.0046	0.0052	-0.003	26.9
-0.003	-0.0015	0.0067	-0.003	27.2
-0.0015	-0.0008	0.0037	-0.003	27.4
-0.003	0.0007	0.003	-0.0008	27.6
-0.003	0.0007	0.0052	0.0007	27.9
-0.0038	0.0007	0.0022	0.0015	28.2
-0.0046	0.0007	0.0037	0.003	28.4
-0.0046	0.003	0.003	0.003	28.6
-0.0053	0.0045	0.0037	0.0045	28.8
-0.003	0.0045	0.003	0.0045	29
-0.0015	0.0045	0.0015	0.0045	29.2
-0.0015	0.003	0.0037	0.0045	29.4
-0.0008	0.003	0.0022	0.0015	29.6
-0.0023	0.003	0.003	0.0037	29.8
-0.0015	0.0045	0.0015	0.0037	30
-0.0015	0.0037	0.0015	0.0015	30.2
-0.0023	0.0022	0.0045	0.0015	30.5
-0.0015	0.0045	0.0052	0.0015	30.6
-0.0046	0.0067	0.0045	0.0022	30.9
-0.0038	0.0052	0.003	0.0015	31
-0.003	0.003	0.0007	-0.0008	31.3
-0.003	0.0015	-0.0015	-0.0015	31.5
-0.0038	-0.0008	-0.003	-0.0038	31.7
-0.0046	-0.003	-0.003	-0.006	31.9
-0.0046	-0.0046	-0.003	-0.0075	32.1
-0.0053	-0.0046	-0.0023	-0.0091	32.3
-0.0053	-0.0046	-0.0023	-0.0083	32.5
-0.0046	-0.0053	0	-0.0075	32.6
-0.0046	-0.0068	-0.0008	-0.0075	32.8
-0.006	-0.0083	-0.0015	-0.0105	32.9
-0.0053	-0.0091	-0.0015	-0.0091	33.1
-0.0038	-0.0105	0	-0.0083	33.3
-0.003	-0.012	0.003	-0.0091	33.4
-0.003	-0.0105	0.0022	-0.0083	33.5
-0.0023	-0.0091	0.003	-0.0068	33.7
-0.0008	-0.0083	0.0015	-0.0053	33.8
0.0007	-0.0068	0.0015	-0.0046	34
0.003	-0.0083	0.0007	-0.0053	34.1
0.003	-0.0083	0.0007	-0.0068	34.3
0.0007	-0.006	0.0007	-0.0068	34.5
-0.0008	-0.0046	0.0015	-0.0083	34.6
-0.003	-0.0053	0.0015	-0.0068	34.7
-0.0015	-0.0046	0	-0.006	34.9
-0.003	-0.003	0.0015	-0.0053	35.1
-0.0015	-0.0053	0.0045	-0.0015	35.2
-0.0008	-0.0083	0.0067	0.0015	35.4
-0.0023	-0.0091	0.0082	0.003	35.5
-0.0008	-0.0068	0.0067	0.003	35.6
0.0007	-0.0023	0.0075	0.003	35.8
-0.0008	0	0.0052	0.003	36
0.0007	0	0.003	0.003	36.1
-0.0008	0.0007	0.0007	0.003	36.3
-0.0008	0.0007	-0.0015	0.0015	36.4
-0.0008	0.003	0	0.003	36.5
0.0007	0.0045	0	0.003	36.7
0.0007	0.0052	0	0.0045	36.9
0.0007	0.0052	-0.0008	0.0067	37
-0.0015	0.003	-0.003	0.0067	37.1
-0.0015	0.0037	-0.0038	0.0052	37.3
-0.0015	0.0045	-0.0038	0.0045	37.4
-0.0023	0.0067	-0.0038	0.0022	37.6
-0.0008	0.0067	-0.003	0.0015	37.8
-0.0015	0.0052	-0.0053	-0.0008	37.9
-0.0015	0.006	-0.0053	-0.003	38
-0.0015	0.0067	-0.003	-0.0053	38.2
-0.003	0.0052	-0.0046	-0.0068	38.3
-0.0023	0.0045	-0.0008	-0.0083	38.5
-0.0023	0.0015	-0.0008	-0.0105	38.6
-0.0023	0.0007	-0.0015	-0.0091	38.7
-0.0023	0.0007	-0.0008	-0.0083	38.9
-0.0046	0.0007	0.0007	-0.0068	39
-0.0046	0.0015	0.0037	-0.0038	39.1
-0.003	0.0007	0.003	-0.0046	39.3
-0.0015	0.0007	0.0015	-0.006	39.4
-0.003	0.0015	0.0007	-0.0046	39.6
-0.0015	0.0022	0	-0.0046	39.7
-0.0023	0.0037	-0.0015	-0.003	39.9
-0.0046	0.003	-0.003	-0.0023	40
-0.003	0.003	-0.0008	-0.0046	40.1
-0.0038	0.0007	-0.0015	-0.0046	40.3
-0.0046	0.0022	-0.0015	-0.003	40.4
-0.003	0.0015	-0.0008	-0.0023	40.5
-0.0008	0.003	-0.0023	-0.0008	40.7
-0.0008	0.003	-0.003	0.0007	40.8
0.0007	0.0022	-0.003	0.0015	40.9
0.0007	0.003	-0.0023	0.0015	41.1
-0.0008	0.0015	-0.003	0.0015	41.2
0	0.0015	-0.003	0.0007	41.4
-0.0008	0.0007	-0.003	0.0052	41.4
-0.0023	-0.0008	-0.0038	0.0067	41.6
-0.0038	-0.0023	-0.0038	0.009	41.7
-0.0015	-0.003	-0.0046	0.0105	41.8
-0.0008	-0.0023	-0.0046	0.0097	41.9
-0.003	-0.0046	-0.0068	0.009	42
-0.003	-0.0075	-0.0083	0.0082	42.1
-0.0053	-0.0068	-0.0068	0.0082	42.2
-0.0053	-0.0046	-0.0068	0.0112	42.3
-0.0068	-0.0046	-0.0038	0.0142	42.5
-0.0053	-0.0015	-0.003	0.015	42.6
-0.0038	0	-0.0008	0.0165	42.7
-0.0015	-0.0015	0	0.0142	42.8
-0.0023	0.0007	-0.0008	0.0127	42.9
-0.003	0.0007	0.0015	0.012	43
-0.003	-0.0015	0.0015	0.0127	43.1
-0.0046	-0.003	0.0037	0.012	43.2
-0.0015	-0.0038	0.0045	0.0082	43.3
-0.0015	-0.003	0.0037	0.0082	43.5
-0.0015	-0.003	0.003	0.0067	43.5
-0.0008	-0.0023	0.003	0.0052	43.6
-0.0008	-0.0015	0.0015	0.003	43.6
0	-0.0015	0.0015	0.0022	43.7
-0.0008	-0.0023	0.0045	0.003	43.8
-0.0008	-0.0023	0.0052	0.003	43.8
0.0007	-0.0015	0.0052	0.003	43.9
0.0015	-0.0008	0.0052	0.0015	43.9
0.0015	0.0007	0.0045	0.003	44
0.0015	0.0037	0.0037	0.0045	44.1
-0.0008	0.0075	0.0045	0.0045	44.1
-0.0008	0.0127	0.003	0.0022	44.2
-0.0008	0.0135	0.0015	0.0015	44.2
-0.0015	0.0127	0.003	0.0007	44.3
-0.0008	0.0135	0.0022	0.0007	44.4
0	0.0142	0.0037	0	44.4
0.0007	0.015	0.0037	-0.0008	44.5
0.0007	0.0127	0.0045	0.0007	44.5
0.0007	0.009	0.0052	-0.0023	44.6
0	0.0082	0.0045	-0.0015	44.6
-0.0008	0.006	0.003	-0.0023	44.7
-0.0008	0.0037	0.003	-0.0023	44.7
-0.0008	0.0015	0.0045	0	44.7
0	0.0007	0.0067	-0.0015	44.7
-0.0008	-0.0015	0.0045	0	44.8
-0.0008	-0.006	0.003	0.0015	44.8
-0.0008	-0.0068	0.003	0.0015	44.8
-0.0008	-0.0068	0.0022	0.0022	44.8
-0.0015	-0.0053	0.003	0.0015	44.8
-0.0015	-0.0068	0.0015	0.003	44.9
-0.0015	-0.0075	0	0.003	44.9
-0.003	-0.0068	0	0.0015	44.9
-0.0015	-0.006	-0.0008	0.0007	45
-0.0023	-0.0053	-0.0015	-0.0008	45
-0.0023	-0.0053	-0.0023	-0.0015	45
-0.0015	-0.0046	-0.0008	-0.003	45
-0.0008	-0.0046	0	-0.0015	45
-0.0008	-0.0038	-0.0015	-0.0015	45
-0.0015	-0.003	0	-0.0023	45
0	-0.003	-0.0015	-0.0015	45.1
0.0037	-0.003	-0.003	-0.0008	45.1
0.0082	-0.0015	-0.003	-0.0008	45.1
0.0112	-0.0015	-0.0038	-0.003	45.1
0.0105	-0.0023	-0.0053	-0.0038	45.1
0.0097	-0.0046	-0.0046	-0.003	45.1
0.0075	-0.0046	-0.0038	-0.0023	45.1
0.0037	-0.0023	-0.0053	-0.0046	45.1
0.0015	-0.003	-0.0053	-0.0046	45.1
0.0015	-0.003	-0.0038	-0.003	45.1
0.0007	-0.0046	-0.0038	-0.003	45.1
-0.0008	-0.0083	-0.003	-0.0046	45.1
-0.0015	-0.0098	-0.0038	-0.0046	45.1
-0.0015	-0.0105	-0.0015	-0.0038	45.1
-0.003	-0.0105	0.0007	-0.0046	45.1
-0.003	-0.0105	0.0007	-0.0046	45.2
-0.0046	-0.012	-0.0008	-0.0053	45.2
-0.0046	-0.0128	-0.0015	-0.0053	45.2
-0.0046	-0.0113	-0.003	-0.006	45.2
-0.0053	-0.0105	-0.0038	-0.006	45.2
-0.0046	-0.0091	-0.003	-0.0083	45.2
-0.0046	-0.006	-0.0038	-0.0091	45.2
-0.0053	-0.0046	-0.003	-0.0098	45.1
-0.0053	-0.003	-0.0015	-0.0105	45.1
-0.0053	-0.003	-0.0008	-0.012	45
-0.006	-0.0015	0.0007	-0.0135	45
-0.0068	-0.003	0.0015	-0.012	45
-0.0068	-0.0038	0.0015	-0.0113	45
-0.0068	-0.003	0.0022	-0.0128	44.9
-0.0046	-0.0046	0.003	-0.0128	44.9
-0.0038	-0.003	0.0037	-0.0113	44.8
-0.0046	-0.0008	0.0045	-0.0113	44.8
-0.0046	0.003	0.0052	-0.0098	44.7
-0.0053	0.0045	0.0045	-0.0091	44.7
-0.0038	0.0052	0.0022	-0.0091	44.6
-0.003	0.006	0.003	-0.0083	44.6
-0.0046	0.0067	0.003	-0.0091	44.6
-0.0046	0.0082	0.0022	-0.0083	44.5
-0.0038	0.0075	0.0015	-0.006	44.5
-0.003	0.0075	0.0007	-0.0068	44.5
-0.0038	0.0075	-0.0008	-0.006	44.4
-0.0038	0.0067	-0.0015	-0.003	44.3
-0.0053	0.0052	-0.0015	-0.0015	44.2
-0.0046	0.003	-0.003	-0.0023	44.1
-0.0038	0.0045	-0.003	-0.003	44.1
-0.0023	0.0052	-0.003	-0.0015	44
-0.003	0.0045	-0.0015	-0.0015	43.9
-0.0038	0.0045	-0.0015	-0.0008	43.8
-0.003	0.0052	-0.0008	0.0007	43.7
-0.003	0.0045	-0.0008	0.0015	43.6
-0.0015	0.0022	-0.0008	0.0015	43.5
-0.0023	0.0045	-0.0015	0.0007	43.4
-0.003	0.0052	-0.0008	0	43.3
-0.003	0.003	-0.0008	0.0007	43.2
-0.003	0.0015	0	0.0015	43.1
-0.0046	0.003	0.0007	0.0007	43
-0.0038	0	0.003	0.003	42.9
-0.0015	-0.0015	0.0037	0.0052	42.8
-0.0015	-0.0015	0.0045	0.006	42.7
-0.003	-0.003	0.0045	0.0052	42.7
-0.0023	-0.0046	0.0045	0.006	42.5
-0.0008	-0.003	0.003	0.006	42.5
-0.0015	-0.0023	0.0015	0.0052	42.3
-0.0008	-0.0015	0.003	0.0045	42.3
-0.0015	0.0007	0	0.0045	42.1
-0.003	0.0007	-0.0008	0.003	42
-0.0015	0.0015	-0.0015	0	41.9
-0.0038	0.0022	-0.0046	0.0007	41.8
-0.0023	0.0015	-0.0038	0	41.7
-0.003	0.003	-0.003	-0.0008	41.6
-0.0038	0.0015	-0.0015	-0.0015	41.5
-0.0053	0.0045	-0.0015	-0.0023	41.4
-0.0053	0.0045	-0.0008	-0.0008	41.3
-0.0038	0.003	0	0.0007	41.2
-0.0038	0.0052	0.0007	0.0015	41
-0.0015	0.003	0.0015	0.0007	40.9
-0.0015	0	-0.0008	-0.0038	40.9
-0.003	-0.0015	-0.0008	-0.006	40.7
-0.0015	0.0007	-0.0008	-0.0113	40.6
-0.0015	0	-0.0008	-0.015	40.5
-0.0015	-0.0083	-0.0008	-0.0143	40.4
-0.0023	-0.012	0.0007	-0.0143	40.3
-0.0023	-0.0008	0.0007	-0.0128	40.1
-0.0008	0.0045	0.0022	-0.0113	40
0.0007	0.006	0.0015	-0.0135	39.9
0	0.0067	-0.0008	-0.0158	39.7
0.0007	0	-0.003	-0.0135	39.6
-0.0008	-0.0008	-0.0046	-0.0105	39.4
-0.0008	-0.0015	-0.0053	-0.0068	39.3
-0.0008	0.0015	-0.0068	-0.003	39.1
-0.003	0.003	-0.0053	0.0015	39
-0.0008	0.0067	-0.0053	0.0067	38.9
0.0007	0.0202	-0.0046	0.0135	38.7
-0.0015	0.0277	-0.003	0.018	38.6
0.0007	0.0165	-0.0046	0.0112	38.5
0.0015	0.0015	-0.0008	0.006	38.3
0.0022	0	-0.0008	0.0067	38.2
0.0015	-0.0015	-0.0008	0.0052	38
0.0007	-0.003	-0.0008	0.0045	37.9
-0.0008	-0.0053	-0.0008	0.0045	37.8
-0.003	-0.0068	-0.0008	0.006	37.6
-0.0023	-0.0105	0.0007	0.0052	37.4
-0.0015	-0.0143	0.003	0.003	37.3
-0.003	-0.0248	0.0037	0	37.1
-0.003	-0.0346	0.003	-0.0015	36.9
-0.0023	-0.0293	0.0015	0.0007	36.7
-0.003	-0.0248	0.0015	0.0007	36.5
-0.0023	-0.0165	0.0007	0.0022	36.4
-0.0023	-0.0083	-0.0008	0.0045	36.2
-0.003	-0.0038	0.0007	0.0075	36
-0.0038	0.0217	0.0022	0.0142	35.8
-0.0015	0.0675	0.0015	0.018	35.7
-0.0008	0.1012	0	0.0105	35.5
-0.0008	0.0585	-0.0015	-0.0008	35.3
-0.0008	-0.0256	-0.0023	-0.003	35.1
-0.0008	-0.0383	-0.0008	-0.0023	35
-0.0008	-0.0398	-0.0015	-0.0068	34.8
-0.0023	-0.0675	-0.0053	-0.0091	34.6
-0.0015	-0.0458	-0.0053	-0.0023	34.4
-0.0008	-0.0173	-0.006	0.0052	34.2
-0.0008	0.0262	-0.0053	0.009	34
-0.0023	0.0847	-0.0046	0.0165	33.8
-0.0038	0.0547	-0.003	0.0127	33.6
-0.003	0.0007	-0.0008	0.0052	33.4
-0.003	-0.012	-0.0008	0.0045	33.2
-0.003	-0.0278	-0.0008	0.0052	32.9
-0.003	-0.0293	0	0.003	32.7
-0.003	-0.0083	-0.0008	0.0037	32.5
-0.003	0.009	0.0007	0.0067	32.3
-0.0023	0.0195	0.0015	0.0067	32
-0.0015	0.0075	0	-0.003	31.8
-0.0046	-0.0353	-0.0015	-0.0203	31.5
-0.0038	-0.048	-0.003	-0.0181	31.3
-0.003	-0.0338	-0.003	-0.012	31.1
-0.003	-0.0383	-0.0053	-0.0105	30.9
-0.0015	-0.0383	-0.003	-0.0046	30.6
-0.0015	-0.0383	-0.0008	-0.0008	30.4
-0.0008	-0.0285	0.0007	0.0052	30.2
0	-0.0195	0.003	0.0142	30
0	-0.021	0.0015	0.018	29.7
0	-0.0233	0.0007	0.0127	29.5
0.0007	0.0247	0.0015	0.0135	29.2
-0.0008	0.0915	0.0015	0.015	29
-0.0008	0.057	0.0022	0.0067	28.8
-0.0015	0.0007	0.0007	-0.0008	28.5
-0.0015	-0.0203	0	-0.0068	28.2
0.0015	-0.0398	0.0045	-0.0053	27.9
0.0022	-0.0443	0.0052	-0.0046	27.7
-0.0015	-0.0511	0.0007	-0.0135	27.4
-0.003	-0.057	0	-0.0218	27.2
-0.0008	-0.075	-0.0015	-0.027	26.9
0	-0.0908	-0.0008	-0.0225	26.7
0.0015	-0.0713	0	-0.0083	26.4
0.003	-0.0361	0.0015	0.0082	26.1
0.003	0.0232	0.0015	0.0202	25.9
0	0.0292	0.0007	0.0067	25.6
-0.003	-0.0398	0.0015	-0.0083	25.4
-0.0038	0.0487	0.003	0.0037	25.1
-0.0023	0.2062	0.0075	0.0097	24.8
-0.003	0.186	0.0052	0.0082	24.6
-0.0053	0.0787	0.0015	-0.0068	24.3
-0.006	-0.0165	0.0007	-0.0128	24.1
-0.0053	0.0225	0.0045	0	23.8
-0.0046	0.153	0.0045	0.006	23.6
-0.0046	0.1957	0.0015	0.0052	23.3
-0.0015	0.1035	0.003	-0.0046	23
0.0007	-0.003	0.0022	-0.0068	22.8
0.003	-0.0353	-0.0008	-0.0068	22.5
0.0045	-0.0593	-0.003	-0.0105	22.3
0.0037	-0.0495	-0.003	-0.012	22
0.0045	-0.0165	-0.0015	-0.0158	21.7
0.003	-0.0181	0	-0.0181	21.5
0.0007	-0.0698	0.0015	-0.0203	21.2
-0.0008	-0.0893	0	-0.0203	21
-0.0068	-0.0856	-0.0015	-0.0181	20.7
-0.0158	-0.075	0.0007	-0.0091	20.5
-0.0165	-0.0346	0.0015	-0.0105	20.2
-0.0068	-0.003	0.0015	-0.0256	19.9
0.006	-0.0091	0.003	-0.0263	19.7
0.0135	0.003	0.003	-0.0165	19.4
0.0105	0.0367	0.0037	-0.0046	19.1
0.0082	0.0097	0.003	0.0157	18.9
0.0052	0.0067	0.0015	0.0135	18.7
-0.0015	-0.0091	0.0015	0.0127	18.4
-0.0046	0.0015	0	0.0397	18.2
-0.0038	0.0352	0.0022	0.06	18
-0.0015	0.0075	0.0052	0.0592	17.7
-0.0008	0.018	0.0052	0.0315	17.5
-0.003	0.0195	0.003	0.0082	17.2
-0.0105	0.0052	0.0007	0.0052	17
-0.012	-0.0263	-0.0015	-0.0083	16.7
-0.0091	-0.048	-0.003	-0.0091	16.5
-0.0068	-0.0293	-0.003	-0.0046	16.2
-0.0068	-0.012	-0.0008	-0.003	16
-0.0075	-0.0053	0.0007	0.003	15.7
-0.0083	-0.0353	0.0015	0.0067	15.5
-0.0105	-0.0383	0.003	0.0165	15.3
-0.0105	-0.0375	0.003	0.0112	15
-0.0083	-0.0623	0.0022	-0.0053	14.8
-0.0068	-0.0488	0.0007	-0.012	14.5
-0.0053	-0.0383	-0.0008	-0.012	14.2
-0.0068	-0.0398	-0.0015	-0.012	14
-0.0083	-0.0046	-0.003	-0.0225	13.9
-0.0091	0.0592	-0.0023	-0.0436	13.6
-0.0068	0.033	-0.0015	-0.0525	13.5
-0.0023	-0.0818	-0.0023	-0.0495	13.2
-0.0008	-0.117	-0.0015	-0.0465	13
0.0015	-0.1223	-0.0008	-0.033	12.9
-0.0008	-0.1095	0.0007	-0.0113	12.6
-0.0023	-0.0675	0.0015	0	12.5
-0.0015	0.0405	0.0045	0.0165	12.2
0	0.204	0.0045	0.042	12
0.0007	0.144	0.0015	0.0577	11.8
-0.0008	0.0795	0.0007	0.0465	11.6
-0.0015	0.0855	0.003	0.0322	11.4
-0.0008	0.0195	0.0015	0.0382	11.2
0.0015	0.0555	-0.0046	0.03	11
0.003	0.1537	-0.0068	0.0202	10.8
0.003	0.246	-0.0068	0.0232	10.6
0.003	0.1792	-0.0068	0.0082	10.4
0.0045	0.0307	-0.0046	-0.0225	10.2
0.0037	-0.0968	-0.0091	-0.0375	10
-0.0023	-0.1545	-0.0113	-0.0503	9.9
-0.0075	-0.1523	-0.0105	-0.057	9.7
-0.0053	-0.1426	-0.0091	-0.0473	9.5
0.0007	-0.1185	-0.006	-0.045	9.4
0.0015	-0.0818	-0.0046	-0.0158	9.2
0.0007	0.054	-0.0015	0.0195	9
0	0.1327	-0.0008	0.0345	8.9
0.0007	0.1732	0.0007	0.054	8.7
-0.0053	0.15	-0.003	0.0705	8.5
-0.0083	0.027	-0.0046	0.0652	8.4
0.003	0.0157	0.0022	0.0345	8.2
0.0165	0.0765	0.0052	0.0255	8.1
0.024	0.0705	0.0075	0.033	7.9
0.0202	-0.0346	0.0067	0.018	7.7
0.0082	-0.0691	0.0015	-0.0008	7.6
-0.0046	-0.06	-0.003	-0.0195	7.4
-0.0143	-0.1095	-0.003	-0.0368	7.2
-0.024	-0.1185	0.003	-0.0368	7.1
-0.03	-0.1125	0.0067	-0.0165	6.8
-0.0285	-0.099	0.0097	-0.0053	6.7
-0.0293	-0.0803	0.009	-0.0083	6.6
-0.0293	-0.0593	0.0067	-0.003	6.5
-0.0195	-0.0113	0.0067	0.0052	6.4
-0.003	0.0345	0.0052	0.0165	6.3
0.0037	0.0772	0.003	0.0292	6.1
0.0022	0.1087	0.0007	0.0217	6
0.0022	0.0765	0.0007	-0.012	5.8
0.0015	0.0105	0.0037	-0.0368	5.7
0.0067	-0.0653	0.0045	-0.0443	5.6
0.0105	-0.0818	0.0045	-0.0503	5.5
0.0142	-0.0833	0.0037	-0.054	5.3
0.015	-0.1185	0.0007	-0.0458	5.2
0.0105	-0.0593	0.003	-0.0195	5.1
0.0112	0.0075	0.0097	0.0075	4.9
0.012	0.057	0.0105	0.0255	4.8
0.0082	0.0277	0.003	0.0345	4.7
0.0037	-0.0181	-0.0008	0.018	4.6
-0.0015	0.141	-0.003	0.0142	4.5
-0.0046	0.2692	-0.0046	0.018	4.3
-0.0053	0.114	-0.0038	0.003	4.2
-0.0083	-0.0923	-0.0046	0	4.2
-0.0143	-0.0788	-0.0068	-0.0105	4.1
-0.0195	-0.1028	-0.0105	-0.0091	4
-0.012	-0.1058	-0.0105	-0.0046	3.9
-0.0038	-0.0555	-0.0068	-0.0158	3.9
0.0007	0.0015	0.0037	-0.0053	3.8
0.0165	0.126	0.009	0	3.7
0.024	0.1455	0.0052	0.009	3.6
0.0112	0.1185	0.0037	-0.003	3.6
-0.0015	-0.0195	0.0022	-0.0158	3.5
-0.0075	-0.063	0.0015	-0.0158	3.4
-0.0173	-0.063	-0.0038	-0.0413	3.3
-0.0263	-0.1245	-0.0105	-0.0465	3.2
-0.0278	-0.066	-0.0113	-0.045	3.1
-0.021	-0.0383	0.0037	-0.0428	3.1
-0.0091	0.0225	0.018	-0.0233	3
-0.006	0.0532	0.012	-0.0015	2.9
0.0067	0.012	0	0.0075	2.9
0.0217	-0.0203	-0.0113	0.0195	2.7
0.03	-0.0053	-0.0158	0.0585	2.7
0.0345	0.045	-0.0098	0.069	2.7
0.0187	0.0705	-0.0105	0.0457	2.6
0.0097	0.1012	-0.0135	0.0315	2.6
0.0082	0.0735	-0.0053	0.0217	2.6
0.0037	0.0592	-0.0008	-0.0015	2.6
-0.0008	-0.024	0.0007	-0.0308	2.5
-0.0053	-0.1523	-0.003	-0.0458	2.5
-0.0105	-0.2041	-0.006	-0.0555	2.4
-0.0218	-0.2213	-0.0091	-0.0465	2.4
-0.0346	-0.1515	-0.0113	-0.0293	2.4
-0.03	-0.1313	-0.0091	-0.015	2.3
-0.0181	-0.0353	-0.0053	0.027	2.3
-0.015	0.1215	0.0007	0.0697	2.2
-0.0105	0.3112	0.0075	0.1035	2.2
-0.003	0.4897	0.0157	0.1087	2.2
0.0045	0.3637	0.018	0.0855	2.2
0.006	0.138	0.012	0.0337	2.1
0.009	-0.024	0.0082	-0.0233	2.1
0.0172	-0.0638	0.0052	-0.0308	2
0.0187	-0.0533	0.009	-0.0346	2
0.0217	-0.0645	0.0202	-0.0338	2
0.0105	-0.0383	0.0202	-0.027	2.1
-0.0181	-0.0585	0.009	-0.0346	2.1
-0.024	-0.054	-0.0008	-0.033	2.1
-0.0038	-0.0555	-0.0083	-0.0181	2.2
0.0232	-0.0488	-0.0105	0.0007	2.2
0.018	-0.0443	-0.012	-0.0015	2.2
-0.0008	-0.0825	-0.0046	-0.0091	2.2
0.0007	-0.1013	0	-0.0158	2.3
0.009	-0.0938	-0.0068	-0.0165	2.3
0.0277	-0.057	-0.0091	-0.015	2.3
0.081	-0.057	-0.0091	-0.0105	2.3
0.114	-0.0548	-0.0053	0.003	2.4
0.0517	-0.0533	-0.0038	-0.0128	2.4
-0.0068	-0.0803	-0.0038	-0.0315	2.4
-0.0338	-0.0938	-0.0046	-0.0413	2.5
-0.06	-0.075	-0.0068	-0.0315	2.5
-0.054	-0.0308	-0.0053	-0.0053	2.5
-0.0668	0.003	-0.0053	0.0082	2.6
-0.0721	0.0367	-0.0068	0.0405	2.6
-0.0706	0.0862	-0.0068	0.0652	2.7
-0.0871	0.1845	-0.0046	0.0652	2.8
-0.0698	0.2062	-0.0008	0.048	2.9
-0.0165	0.1102	0	0.0315	3
0.0315	0.036	0.0015	0.0022	3.1
0.0562	-0.1028	0.0075	-0.0346	3.1
0.0577	-0.09	0.0075	-0.0293	3.2
0.0405	-0.0158	-0.0083	-0.0375	3.3
0.0285	-0.0706	-0.0158	-0.03	3.4
0.0367	-0.0405	-0.0188	-0.0173	3.4
0.0457	-0.0256	-0.0181	-0.0068	3.5
0.033	0.0495	-0.0023	0.0097	3.6
0.0105	0.1125	0.0015	-0.0053	3.6
-0.0091	0.0705	0.0105	0.0075	3.7
-0.0195	0.0345	0.018	0.0232	3.8
-0.0278	0.0165	0.0255	0.027	3.9
-0.0368	0.0345	0.027	0.0142	4
-0.03	0.0307	0.0202	-0.0091	4
-0.024	-0.0038	0.0202	-0.012	4.1
-0.0256	-0.012	0.018	-0.0091	4.2
-0.0285	0.084	0.0112	0.0097	4.2
-0.033	0.0975	0.0045	0.0202	4.3
-0.042	-0.0555	0.009	0.0195	4.3
-0.033	-0.075	0.0172	0.018	4.4
-0.0053	-0.0368	0.0195	0.012	4.4
0.0037	-0.021	0.003	0.009	4.5
0.0142	-0.0046	-0.0091	0.0052	4.5
0.033	-0.0143	-0.0053	-0.0046	4.5
0.0315	0.033	-0.0008	-0.021	4.6
0.003	-0.027	0.0037	-0.039	4.7
-0.0098	-0.1088	-0.0075	-0.054	4.7
0.0157	-0.1058	-0.0135	-0.063	4.8
0.0232	-0.1433	-0.0083	-0.0668	4.8
0.0465	-0.1515	-0.0075	-0.0728	4.9
0.087	-0.1268	-0.0105	-0.0683	4.9
0.0832	-0.1148	-0.0053	-0.0361	4.9
0.0765	-0.0368	0.0127	0.0052	5
0.0667	0.2062	0.039	0.063	5
0.0375	0.3952	0.0502	0.129	5.1
-0.0046	0.2797	0.018	0.1485	5
-0.0405	0.0742	-0.0135	0.0877	5
-0.0593	-0.0398	-0.0256	-0.0105	4.9
-0.0638	-0.0368	-0.024	-0.0278	4.8
-0.0443	0.036	-0.0083	-0.0128	4.7
-0.0383	-0.0143	0.003	-0.0436	4.7
-0.027	-0.0091	0.0157	-0.0473	4.6
-0.0015	0.0697	0.0195	-0.0256	4.5
-0.0098	-0.0256	0.0082	-0.012	4.5
-0.0195	-0.0825	-0.0143	-0.0068	4.4
-0.03	-0.0871	-0.0278	-0.0135	4.3
-0.0346	-0.114	-0.0188	-0.0375	4.2
-0.012	-0.0503	-0.0083	-0.0323	4.1
-0.0091	-0.0105	-0.0008	-0.003	4
-0.0248	-0.0383	-0.0023	0.015	4
-0.0375	-0.084	-0.0008	0.0232	3.9
-0.0293	-0.0743	0.0045	0.0045	3.8
-0.0068	-0.0346	0.0037	-0.0046	3.7
-0.0008	0.0157	0.0067	0.006	3.7
-0.0038	0.0877	0.0157	0.018	3.6
-0.0105	0.042	0.0172	0.0202	3.5
0.0142	-0.0158	0.0202	0.03	3.5
0.0817	0.0157	0.0202	0.0285	3.4
0.105	-0.012	0.0142	-0.0008	3.3
0.0375	-0.0721	0.0105	-0.0015	3.2
-0.0105	-0.0368	0.0075	0.009	3.2
-0.039	-0.0015	0.0037	0.0105	3.1
-0.0818	-0.0225	0.0022	0.0127	3.1
-0.0825	0.0045	0.009	0.0277	3
-0.063	0.0502	0.0112	0.0517	2.9
-0.0465	0.0907	0.012	0.0675	2.8
-0.066	0.0892	0.015	0.0735	2.8
-0.0428	0.0442	0.0165	0.039	2.7
0.0045	0.012	0.0165	0.0045	2.6
-0.0083	-0.0023	0.0067	0.0105	2.6
-0.0248	0.0045	-0.0046	0.0097	2.5
-0.0075	-0.0053	0.0007	0.0067	2.5
0.0345	-0.003	-0.0023	0.0007	2.4
0.0442	-0.0083	-0.0225	-0.0091	2.3
0.0525	-0.0143	-0.03	-0.0053	2.2
0.093	-0.0105	-0.0315	-0.0053	2.3
0.0877	-0.0218	-0.027	-0.015	2.4
0.0517	-0.0181	-0.012	-0.0203	2.6
0.0397	-0.0128	-0.006	-0.0278	2.7
0.0187	-0.0083	-0.0135	-0.0315	2.8
0.0105	-0.0046	-0.0098	-0.0338	2.9
0.0232	-0.0105	0.0142	-0.048	3.1
0.0127	-0.0293	0.0307	-0.0578	3.2
-0.0368	-0.0368	0.018	-0.054	3.3
-0.099	-0.033	-0.0015	-0.0405	3.4
-0.1133	-0.0458	-0.0181	-0.0256	3.6
-0.0511	-0.042	-0.0338	-0.0098	3.6
0.0232	0	-0.0375	0.0067	3.8
0.0397	0.0577	-0.0353	0.0232	3.9
0.033	0.0615	-0.0308	0.0315	4
0.0127	0.0345	-0.0308	0.033	4.1
0	0.0825	-0.0278	0.0165	4.3
-0.003	0.054	-0.0225	-0.0165	4.4
-0.006	-0.0098	-0.0188	-0.0158	4.5
-0.0105	-0.0068	-0.0075	-0.0128	4.6
-0.0188	-0.0818	0.0045	-0.0181	4.8
-0.0068	-0.1328	0.0082	-0.006	4.9
0.0015	-0.129	0.012	-0.0068	5.1
0.0022	-0.075	0.012	-0.0068	5.3
-0.0091	-0.0158	0.006	0.009	5.4
-0.0143	0.0757	0.003	0.0285	5.6
-0.0113	0.2805	0.0015	0.03	5.7
-0.0053	0.4987	0.003	0.042	5.9
0.0097	0.3975	0.003	0.0607	6
0.0052	-0.027	-0.0023	0.045	6.2
0.0007	-0.1028	-0.003	0.018	6.4
-0.0008	-0.0525	-0.0053	-0.0143	6.5
-0.0008	-0.0848	-0.0068	-0.0293	6.7
0.003	-0.0533	-0.0083	-0.0353	6.8
0.0037	-0.1088	-0.0158	-0.039	7
0.006	-0.0915	-0.0158	-0.033	7.2
0	-0.1006	-0.0181	-0.0346	7.3
-0.0158	-0.111	-0.0181	-0.0256	7.5
-0.0225	-0.0833	-0.0188	-0.0053	7.6
-0.0143	-0.0555	-0.0233	0.0082	7.8
-0.0083	-0.0113	-0.0181	0.006	7.9
-0.0046	-0.0083	-0.0173	0.0067	7.9
0.0082	-0.0091	-0.0218	0.018	8
0.018	0.036	-0.0113	0.0225	8.1
0.0277	0.0607	-0.0015	0.0045	8.1
0.0345	-0.0548	0.0067	-0.0248	8.2
0.0337	-0.1583	0.006	-0.0653	8.3
0.0262	-0.1883	-0.0091	-0.0923	8.3
0.0142	-0.1478	-0.0143	-0.09	8.4
0.0097	-0.0803	-0.0181	-0.093	8.5
0.0075	-0.0158	-0.0143	-0.084	8.5
0.0075	0.0877	-0.0091	-0.063	8.6
-0.0038	0.21	-0.0038	-0.0091	8.7
-0.0105	0.3262	0.0187	0.0502	8.8
-0.0105	0.2572	0.0472	0.0645	8.8
0.0007	0.1185	0.0427	0.0622	8.9
0.036	0.0487	0.0172	0.0825	9
0.0742	0.0232	0.0157	0.075	9
0.096	0.0052	0.0195	0.03	9.1
0.0577	-0.0473	0.0157	0.0082	9.2
-0.0083	-0.027	0.0015	0.0015	9.1
-0.0398	-0.0113	-0.012	-0.0046	9.1
-0.0713	-0.0443	-0.0165	-0.024	9
-0.1178	-0.06	-0.0181	-0.0338	8.9
-0.1426	-0.0548	-0.0135	-0.0353	8.8
-0.1223	-0.0525	-0.0158	-0.0315	8.7
-0.0728	-0.0511	-0.0135	-0.0218	8.7
-0.0158	-0.0533	-0.0023	-0.0218	8.6
0.0375	-0.054	0.0067	-0.0158	8.5
0.0435	-0.048	0.0165	-0.0181	8.4
0.0217	-0.0518	0.0277	-0.0165	8.4
0.0142	-0.048	0.0262	-0.0105	8.3
0.012	-0.0503	0.0202	-0.0053	8.2
0.0195	-0.0458	0.0142	-0.0015	8.1
0.027	-0.042	0.009	-0.0008	8.1
0.0405	-0.0405	0.0142	-0.0023	8
0.036	-0.045	0.0217	-0.0053	7.9
-0.0015	-0.063	0.0322	-0.0068	7.8
-0.0165	-0.063	0.0367	-0.0075	7.7
-0.0173	-0.045	0.0285	-0.003	7.6
-0.012	-0.0203	0.018	0.0045	7.6
-0.0046	0.0405	0.0157	0.015	7.6
-0.0053	0.0862	0.0142	0.024	7.5
-0.0218	0.036	0.003	0.0217	7.5
-0.0458	0.0067	-0.0083	0.0165	7.4
-0.0285	0.0052	-0.015	0.0142	7.3
0.018	-0.0105	-0.021	0.0142	7.3
0.078	-0.0053	-0.0263	0.0127	7.2
0.1117	-0.0158	-0.027	0.0112	7.2
0.063	-0.012	-0.0233	0.0142	7.2
0.0165	-0.0046	-0.0158	0.0187	7.1
-0.0233	0.0015	-0.0113	0.0157	7.1
-0.0833	0.0142	-0.0068	0.0165	7
-0.105	0.0405	0.006	0.0157	7
-0.0998	0.057	0.0165	0.012	6.9
-0.0863	0.0307	0.0195	0.0067	6.8
-0.0848	0.0285	0.0135	0.0052	6.8
-0.0368	0.0292	0.0052	0.0097	6.7
0.0142	0.024	0.003	0.0097	6.7
0.0127	0.0195	-0.0008	0.0045	6.6
0.0202	0.0067	-0.0015	0.0052	6.6
0.0135	0.009	-0.0015	0.0075	6.6
0.0127	0.0067	0	0.0015	6.6
0.0157	0.0015	0.0045	0	6.6
0.012	0.0007	0.0015	0.0082	6.5
0.0112	0.0225	0.0007	0.0202	6.5
0.0052	0.054	0.0052	0.0165	6.5
0.0105	0.042	0.0052	0.0127	6.5
0.0105	0.0157	0.0052	0.0165	6.4
0.0105	0.0202	0.0067	0.0075	6.4
0.009	0.0172	0.006	0.0045	6.4
0.0082	0.0202	0.009	0.0052	6.3
0.0075	0.0142	0.009	0.0067	6.3
0.0022	0.003	0.0067	0.012	6.3
0.003	0.012	0.0045	0.0112	6.3
0	0.0105	0.0052	0.0105	6.3
-0.0015	0.039	0.0045	0.0097	6.3
0.0007	0.0577	0.003	0.0165	6.2
0.0015	0.027	0	0.012	6.2
0.0015	-0.0346	-0.0008	-0.0008	6.1
0.0045	-0.0578	-0.0015	-0.0075	6.1
0.0082	-0.0346	-0.0046	-0.0143	6.2
0.0082	-0.0248	-0.0053	-0.0143	6.2
0.0082	-0.012	-0.006	-0.012	6.2
0.0052	0.0067	-0.006	-0.012	6.2
-0.0038	0.027	-0.0075	-0.0143	6.2
-0.0053	0.063	-0.0068	-0.0015	6.3
0.0015	0.0847	-0.0053	0.0157	6.3
0.0015	0.0465	-0.0068	0.0105	6.3
-0.0015	0.0052	-0.0091	0.006	6.3
-0.0046	-0.0113	-0.0105	0.0022	6.3
-0.0046	-0.0181	-0.0091	-0.0128	6.3
0.0007	-0.0165	-0.0053	-0.0225	6.3
0.0007	-0.0105	-0.0046	-0.0181	6.4
-0.0008	-0.0008	-0.006	-0.0195	6.4
-0.0046	-0.0128	-0.0053	-0.0256	6.4
-0.0053	-0.0181	-0.0053	-0.0218	6.4
-0.0053	-0.0143	-0.0046	-0.0165	6.4
-0.0053	-0.0181	-0.006	-0.0068	6.5
-0.0038	-0.0143	-0.006	-0.0068	6.5
0.0015	-0.0181	-0.003	-0.0113	6.5
0.0007	-0.0195	-0.0015	-0.0091	6.6
-0.0046	-0.021	-0.0008	-0.012	6.6
-0.0023	-0.0195	-0.0046	-0.012	6.7
-0.0015	-0.0233	-0.003	-0.0128	6.7
0.0045	-0.0443	0.0007	-0.0173	6.7
0.0052	-0.0608	0.0022	-0.0195	6.8
0.0015	-0.0436	0.0045	-0.0195	6.8
-0.0053	-0.0195	0.0037	-0.0203	6.9
-0.015	-0.0158	0.0045	-0.0218	7
-0.0091	0	0.0037	-0.0203	7
-0.0015	0.0547	0.0037	-0.0143	7.1
0.003	0.0997	0.003	-0.0083	7.1
0.0082	0.0457	0.003	-0.0068	7.2
0.0082	-0.0083	0.0037	-0.0068	7.2
0.0127	-0.006	0.003	-0.006	7.2
0.0142	-0.0181	0.003	-0.006	7.3
0.0127	-0.0143	0.003	-0.0038	7.3
0.0082	-0.012	0.003	-0.0068	7.4
0.003	-0.0068	0.0022	-0.0105	7.4
0.0007	-0.0083	0.003	-0.0083	7.4
-0.0008	-0.0195	0.0022	-0.0038	7.4
-0.003	-0.0128	0	0.0007	7.4
0.0007	-0.0113	0.0007	0.0082	7.3
0.0007	0.0127	0	0.018	7.3
-0.0046	0.0202	-0.0015	0.0292	7.2
0.003	-0.0068	-0.0015	0.0285	7.2
0.0142	-0.0143	-0.0015	0.0157	7.2
0.0052	-0.0091	0.0007	0.0052	7.2
-0.0203	-0.0143	0.003	0.0045	7.1
-0.0458	-0.0143	0.0015	0.003	7.1
-0.0458	-0.0143	0.0015	0.003	7.1
-0.0256	-0.0143	0	0.003	7
-0.0173	-0.0128	0.0022	0.0007	7
-0.0083	-0.012	0.003	0.0007	7
-0.0015	-0.003	0.003	-0.0015	6.9
0	0	0.0015	-0.0008	6.9
0.0015	0.0015	-0.0008	0	6.8
0.0105	0.0022	0.0022	0.0007	6.8
0.0202	0.0015	0.0037	-0.003	6.7
0.015	0.0037	0.0052	-0.0038	6.7
0.0127	0.003	0.003	0	6.6
0.0052	0.0015	0.003	0.0007	6.5
0.0015	0.0007	0.003	0.0015	6.4
0.0082	0.0015	-0.0015	0.0015	6.3
-0.0015	0.0007	-0.003	0.003	6.3
-0.0091	0.0015	0.0015	0.0037	6.2
-0.0203	0.003	0.0067	0.0007	6.1
-0.039	0.0045	0.0022	0.0007	6
-0.015	0.0037	0.0037	0.0045	5.9
0.0142	0.0045	0.0082	0.0045	5.8
-0.0068	0.0015	0.0037	0.0022	5.8
-0.006	0	-0.0008	0.0015	5.7
0.0022	0.0015	-0.0015	0.0037	5.6
0.0007	-0.0015	-0.0008	0.0045	5.5
0.0052	-0.0008	-0.0023	0.0045	5.4
-0.0015	0.0015	-0.0046	0.0067	5.3
0.003	0.0022	-0.0038	0.0067	5.2
0.0015	0.0015	-0.0053	0.003	5.1
0.0022	0	-0.0053	0.0045	5
0.0052	0.0015	-0.0008	0.0052	5
0.0022	0.0007	-0.0008	0.0052	4.9
0.0015	0.0007	-0.0008	0.0045	4.9
-0.0046	0.0015	0.0022	0.0045	4.8
-0.0068	0.0015	0.0015	0.0037	4.8
-0.0046	0.0037	0.0007	0.0037	4.7
-0.0015	0.0052	0.0015	0.0052	4.6
-0.0068	0.006	0.003	0.0045	4.6
-0.0068	0.0045	0.0037	0.0022	4.5
-0.003	0.0022	0.0015	0.0037	4.5
0.003	0.0022	0.0007	0.0045	4.4
0.012	0.003	0.0007	0.0045	4.4
0.012	0.0015	0.0007	0.0045	4.3
0.015	0.0015	0.0045	0.0037	4.3
0.018	0	0.0045	0.0052	4.2
0.0112	-0.003	0.003	0.0045	4.1
0.0037	-0.0046	0.003	0.003	4.1
0.0007	-0.0046	0.003	0.0022	4
-0.0046	-0.0053	0	0.0015	4
-0.0068	-0.0053	-0.0023	0.0015	3.9
-0.0053	-0.0053	-0.0015	-0.0008	3.9
-0.0083	-0.006	-0.0023	-0.0008	3.9
-0.0083	-0.0083	-0.0015	-0.0023	3.8
-0.0083	-0.0083	-0.0015	-0.0038	3.8
-0.0083	-0.0068	-0.0023	-0.0038	3.8
-0.0068	-0.0068	-0.0015	-0.0053	3.8
-0.0091	-0.0053	-0.0038	-0.0046	3.8
-0.0135	-0.0053	-0.0046	-0.0046	3.7
-0.0128	-0.003	-0.0046	-0.0046	3.7
-0.0083	-0.003	-0.0053	-0.0068	3.7
-0.0053	-0.0046	-0.0038	-0.0075	3.6
-0.0015	-0.003	-0.0023	-0.0068	3.6
0.0015	-0.0046	-0.0038	-0.0068	3.6
0.0015	-0.006	-0.0053	-0.0053	3.6
0.0052	-0.0046	-0.0046	-0.0008	3.6
0.009	-0.0046	-0.0046	0.0007	3.6
0.0015	0.0045	-0.0015	0.0007	3.6
-0.0046	0.0067	-0.0008	-0.0008	3.5
-0.0023	-0.0068	-0.0046	-0.003	3.5
-0.0053	-0.0053	-0.0053	-0.0015	3.4
-0.0053	0.0022	-0.0068	-0.003	3.4
-0.003	-0.0023	-0.0053	-0.003	3.4
-0.0046	-0.0015	-0.003	-0.003	3.4
-0.0053	-0.0023	-0.0015	-0.0038	3.4
-0.006	-0.0038	0	-0.0053	3.3
-0.0008	-0.003	-0.0008	-0.0068	3.3
0	-0.0023	0.0015	-0.0053	3.3
-0.003	-0.0008	0.0022	-0.0053	3.3
-0.0046	-0.0008	0.003	-0.003	3.3
-0.0038	0.003	0.0007	-0.0023	3.2
0.0007	0.0015	0.0007	-0.003	3.2
-0.0023	0.0007	0.0007	-0.003	3.2
-0.003	0.0007	-0.0008	-0.0008	3.1
-0.0023	0.0015	0.0007	-0.0008	3.1
-0.0023	0.0015	0.0007	-0.0008	3.1
-0.0023	-0.0008	0.0015	0.0007	3.1
-0.0023	0	0.0007	0.0007	3.1
0	-0.0008	0.0007	0.0015	3.1
0.0015	0.0007	0.0007	0.0045	3.1
0.0007	0	0.0015	0.0052	3
-0.0015	0.0007	0.003	0.0052	3
-0.0015	0.0015	0.0007	0.003	2.9
-0.0015	0.0015	0	0.0007	2.9
-0.0046	0.0015	0.0007	-0.0008	2.8
-0.0023	0.0015	0	-0.0046	2.8
-0.0015	0.0037	0.0007	-0.003	2.8
-0.0046	0.0022	0.0007	-0.0015	2.7
-0.0015	0.0022	0.0007	-0.0046	2.7
-0.0023	0.0037	0.0015	-0.0038	2.6
-0.003	0.0045	-0.0008	-0.006	2.6
-0.0015	0.003	-0.0008	-0.006	2.6
-0.0023	0.0015	0.0007	-0.0023	2.5
0.0007	0.0015	0	-0.0008	2.5
-0.0015	0.0045	0.0007	0.0015	2.4
-0.0038	0.0052	0.0007	0.003	2.4
-0.0015	0.0045	0.0007	0.0052	2.4
-0.003	0.0052	0.0015	0.0037	2.3
-0.0015	0.0037	-0.0008	0.0015	2.3
-0.0008	0.0015	-0.0015	0.003	2.2
-0.0008	0.0007	-0.0015	0.0007	2.2
-0.0015	0.0015	-0.003	-0.003	2.2
0.0007	0.003	-0.003	-0.0038	2.1
0.0007	0.0007	-0.0038	-0.0023	2
-0.0015	0.0007	-0.0015	-0.003	2
0.0007	0.0007	-0.0015	-0.0008	1.9
0.0015	0.0007	-0.0015	0.0022	1.8
-0.0008	0.0007	-0.0008	0.0037	1.8
0	0.0007	-0.0008	0.0082	1.8
0.0015	0.0022	0.0015	0.0135	1.7
0.0007	0	0.0015	0.012	1.6
-0.003	0.0007	0.0015	0.0067	1.6
-0.003	0	0.0045	0.006	1.5
-0.0046	-0.0008	0.0037	0.006	1.4
-0.006	-0.0008	0.0045	0.0022	1.4
-0.0053	-0.0015	0.0045	0.0022	1.3
-0.0046	0.0007	0.0022	0.003	1.3
-0.0046	0.0015	0.0022	0.0022	1.2
-0.0053	0.0015	0.003	0.0007	1.2
-0.0038	0	0.0037	-0.0008	1.1
-0.0038	0	0.0052	-0.0008	1
-0.003	0	0.003	-0.0015	1
-0.0046	0	0.003	-0.0038	0.9
-0.0068	-0.0023	0.003	-0.0038	0.9
-0.0053	-0.003	0.0015	-0.003	0.8
-0.0053	-0.0015	0.0015	-0.0053	0.7
-0.006	-0.0015	0.0007	-0.003	0.7
-0.0068	0.0015	0.0007	-0.0038	0.6
-0.0068	0.0007	0	-0.003	0.6
-0.006	0.0007	-0.0008	-0.0015	0.5
-0.0053	-0.0008	-0.0008	-0.003	0.4
-0.0053	-0.003	-0.0023	-0.0015	0.4
-0.0068	-0.0015	0	-0.003	0.3
-0.0075	-0.0015	0.0007	-0.0015	0.3
-0.0105	-0.0015	0.0015	-0.0008	0.2
-0.0098	-0.0023	0.0015	-0.0023	0.1
-0.0098	-0.0015	0	-0.0008	0.1
-0.0091	-0.0023	-0.0008	-0.0008	0
-0.0046	-0.0015	-0.0008	-0.0015	0
-0.0038	-0.0015	-0.0008	-0.0023	-0.1
-0.012	-0.003	0.0007	-0.0015	-0.2
-0.0203	-0.003	0.0007	-0.0015	-0.2
-0.0173	-0.0023	-0.0008	-0.0015	-0.2
-0.0173	-0.0023	-0.0015	-0.003	-0.3
-0.021	-0.0015	-0.003	-0.0038	-0.3
-0.0218	-0.0015	-0.003	-0.0038	-0.4
-0.0233	-0.0038	-0.003	-0.0046	-0.4
-0.0218	-0.0015	-0.003	-0.003	-0.4
-0.0195	-0.0008	-0.0046	-0.003	-0.5
-0.0135	-0.0008	-0.0046	-0.0023	-0.5
-0.0128	0	-0.0023	-0.0046	-0.5
-0.0113	-0.0008	-0.0015	-0.0046	-0.6
-0.0053	-0.0015	-0.0015	-0.0046	-0.6
-0.0046	-0.0015	-0.0015	-0.0046	-0.7
-0.0015	-0.0015	-0.0008	-0.003	-0.7
-0.0008	-0.0015	-0.0008	-0.0053	-0.8
0.0007	-0.0008	-0.0008	-0.0046	-0.8
0.003	-0.0008	-0.0008	-0.0038	-0.8
0.003	-0.0008	0.0022	-0.0053	-0.9
0.0052	-0.0015	0.003	-0.003	-0.9
0.009	-0.003	0.0007	-0.0038	-1
0.012	-0.0015	0.0022	-0.0046	-1
0.0127	-0.0008	0.0022	-0.0053	-1
0.0142	-0.003	0.0015	-0.0046	-1
0.0165	-0.0038	0.0022	-0.0053	-1
0.0157	-0.006	0.0022	-0.0053	-1.1
0.0142	-0.0068	0	-0.0046	-1.1
0.0135	-0.006	0	-0.0046	-1.1
0.0127	-0.0046	-0.0008	-0.0068	-1.2
0.0105	-0.0046	-0.0023	-0.0075	-1.2
0.012	-0.0046	-0.003	-0.0068	-1.2
0.012	-0.003	-0.0023	-0.006	-1.3
0.0097	-0.0023	-0.0046	-0.0053	-1.3
0.0067	-0.003	-0.0046	-0.0053	-1.3
0.0075	-0.0038	-0.0046	-0.003	-1.3
0.0082	-0.0023	-0.0046	-0.003	-1.4
0.006	-0.0015	-0.003	-0.0038	-1.4
0.0075	-0.0015	-0.0053	-0.0015	-1.4
0.0075	0	-0.0023	-0.0038	-1.4
0.0082	-0.0008	-0.0015	-0.0053	-1.4
0.0067	0.0007	-0.0008	-0.0038	-1.5
0.0067	0.0015	0.0007	-0.0015	-1.5
0.0067	0	0.0015	-0.0008	-1.5
0.0075	0.0015	0.0022	0.0015	-1.5
0.009	0.003	0.0022	0.0015	-1.6
0.0082	0.0015	0.0015	0.0015	-1.6
0.0067	0.0015	0.003	0	-1.6
0.0067	0.0015	0.003	0	-1.6
0.0052	0.0015	0.0022	0.0015	-1.6
0.0045	0.0015	0.003	0.0007	-1.7
0.0022	0	0.0007	-0.0008	-1.7
0.0015	-0.0008	-0.0008	-0.0008	-1.7
0.0037	-0.0015	-0.0008	0.0015	-1.7
0.0037	0.0007	-0.0015	0.0007	-1.7
0.0037	0.0007	-0.0008	-0.0008	-1.8
0.0007	0.0015	-0.0008	-0.0023	-1.8
-0.0008	0.0015	0.0007	-0.0038	-1.8
-0.0015	0.0007	0.0022	-0.003	-1.8
-0.0008	0.0015	0.0015	-0.0038	-1.8
-0.0008	0.0022	-0.0015	-0.003	-1.8
0	0.0007	-0.0008	-0.0046	-1.9
-0.0015	-0.0023	0	-0.0046	-1.9
-0.0038	-0.0023	0.0007	-0.003	-1.9
-0.0038	-0.0023	0.0015	-0.003	-1.9
-0.0038	-0.0008	0.0022	-0.003	-1.9
-0.003	0.0015	0.003	-0.0015	-1.9
-0.0015	0.0022	0.0015	-0.0015	-1.9
-0.0046	0.0007	0.0015	-0.0023	-1.9
-0.0053	-0.0015	0.003	-0.0008	-1.9
-0.0046	0.0022	0.0007	-0.0015	-1.9
-0.0068	0.0007	0.0015	-0.0015	-1.9
-0.0068	-0.0008	0.0007	-0.0038	-1.9
-0.0053	-0.0008	-0.0008	-0.0046	-1.9
-0.0075	-0.003	0.0015	-0.0015	-1.9
-0.006	-0.0015	-0.0008	0.0015	-1.9
-0.0046	-0.0015	-0.0015	0.003	-1.9
0.0007	-0.0015	-0.0015	0.0007	-1.9
0.003	-0.0023	-0.0015	0.0015	-2
0.0052	-0.0023	-0.0008	0.0015	-2
0.0112	-0.003	-0.0015	0.0015	-2
0.0075	-0.003	-0.003	0.003	-2
-0.0046	-0.0015	-0.0046	0.0015	-2
-0.0053	-0.0023	-0.0023	0.003	-2
-0.003	-0.0015	0.0015	0.0022	-2
-0.0038	-0.0023	0.0015	-0.0015	-2
-0.0038	-0.0008	0.0007	-0.0015	-2
-0.006	0.0007	-0.0008	-0.0015	-2
-0.0068	0.0007	-0.0008	0.0007	-2
-0.0068	-0.0008	-0.0008	0.0037	-2
-0.0068	-0.0008	-0.0023	0.0052	-2
-0.006	0.0015	-0.0008	0.0067	-2.1
-0.0075	-0.0008	-0.0008	0.0105	-2.1
-0.0075	-0.0023	-0.0008	0.0142	-2.1
-0.0083	-0.003	0	0.0142	-2.1
-0.0075	-0.0053	-0.0008	0.0165	-2.1
-0.0068	-0.0046	-0.0015	0.0157	-2.1
-0.0068	-0.0023	-0.003	0.0142	-2.1
-0.0053	-0.003	-0.003	0.012	-2.1
-0.003	-0.003	-0.0023	0.0067	-2.1
-0.0015	-0.0015	-0.0015	0.0022	-2.1
-0.0015	-0.0015	0.0007	0	-2.2
-0.003	0.0015	0.0007	-0.0015	-2.2
-0.0023	0.003	0.0015	-0.0023	-2.2
-0.003	0.0037	0.0037	-0.003	-2.2
-0.0023	0.0045	0.003	-0.0015	-2.2
-0.0008	0.003	0.0007	0.0015	-2.2
-0.0008	0.0007	0.0015	0.0007	-2.2
0	-0.0008	0.0007	-0.0046	-2.2
0	-0.0023	0.0015	-0.006	-2.2
0.0007	-0.003	0.0015	-0.0075	-2.2
-0.0008	-0.0015	0.0015	-0.0083	-2.2
-0.0023	-0.0008	0.0015	-0.0068	-2.2
-0.003	0.0015	0	-0.0083	-2.2
-0.003	0.0052	0.0015	-0.0098	-2.2
-0.0038	0.0045	0.003	-0.0075	-2.2
-0.0046	0.003	0.003	-0.0075	-2.2
-0.0038	0.0037	0.0037	-0.0083	-2.2
-0.0046	0.0045	0.0052	-0.0068	-2.2
-0.0038	0.003	0.003	-0.0053	-2.2
-0.0038	0.0015	0.0015	-0.0053	-2.2
-0.0015	0.0015	0.003	-0.0046	-2.2
-0.0008	0.0015	0.003	-0.0046	-2.2
0	0.003	0.0015	-0.0038	-2.2
0	0.0022	-0.0008	-0.0038	-2.2
0.0007	0.0022	0.0007	-0.0053	-2.1
0.0015	0.0015	-0.0008	-0.0046	-2.1
-0.0008	0.0015	-0.0008	-0.0046	-2.1
0	0.0015	0.003	-0.0038	-2.1
0.0007	0	0.0007	-0.0038	-2.1
-0.0015	-0.0008	0.0015	-0.0038	-2.1
0	0	0.0015	-0.0023	-2.1
-0.003	0.0015	0.0007	-0.0008	-2.1
-0.0038	0.0007	0.0007	0	-2.1
-0.0046	-0.0015	0	0.0015	-2.1
-0.0053	-0.0015	-0.0008	-0.0008	-2.1
-0.0068	-0.0023	-0.0023	-0.0015	-2.1
-0.0083	-0.003	-0.003	-0.0015	-2.1
-0.0068	-0.003	-0.0008	-0.0008	-2
-0.0046	-0.0008	0.0007	0.0015	-2
-0.003	-0.0015	-0.0008	0.003	-2
-0.0015	-0.003	-0.0008	0.003	-2
-0.0015	-0.0023	0	0.0007	-2
-0.003	-0.0008	0.0007	0	-2
-0.003	-0.0023	0.0007	-0.0008	-2
-0.0038	-0.0015	-0.0023	0.0007	-2
-0.003	-0.0015	-0.0015	0.0007	-2
-0.0023	-0.0015	-0.003	-0.0008	-2
-0.0046	-0.0008	-0.0046	0	-2
-0.0053	-0.0008	-0.0046	0.0007	-2
-0.0053	-0.0008	-0.003	0.003	-2
-0.0068	-0.003	-0.0023	0.0015	-2
-0.0068	-0.0023	-0.0008	0.003	-2
