File Name: 9Npie.log
Channel 1: 'RF', 22860 values, engineering units: mV, no filters.
Channel 2: 'BF', 22860 values, engineering units: mV, no filters.
Channel 3: 'VM', 22860 values, engineering units: mV, no filters.
Channel 4: 'ST', 22860 values, engineering units: mV, no filters.
Channel 5: 'FX', 1143 values, engineering units: deg, no filters, extrapolated from 50 to 1000 samples per second.

-0.003	0.0007	-0.0008	0.0067	-0.6
-0.0015	0.033	0.0007	0.0127	-0.6
-0.0008	0.0292	0	0.0052	-0.6
-0.0015	-0.0023	-0.0015	-0.003	-0.6
-0.0008	-0.0143	0.0015	-0.0008	-0.6
-0.0015	-0.0256	0.0045	-0.0068	-0.6
-0.0015	-0.0315	0.0045	-0.0083	-0.6
-0.0008	-0.0173	0.0045	-0.0023	-0.6
-0.0008	-0.0068	0.0022	-0.003	-0.6
-0.0008	0.0067	0.003	0	-0.6
0.0007	0.0217	0.0052	0.003	-0.6
-0.0008	0.036	0.0037	0.0067	-0.6
0.0007	0.0277	0.003	0.0082	-0.6
-0.0008	0.0075	0.0022	0.0007	-0.6
-0.003	-0.0091	0.003	-0.0105	-0.6
-0.0023	-0.0233	-0.0008	-0.0091	-0.6
-0.0015	-0.0128	0	-0.003	-0.6
-0.0008	-0.0068	0.0007	-0.0008	-0.6
-0.0015	0.0007	0.0015	0.003	-0.6
-0.0008	0.0232	0.0007	-0.0015	-0.6
-0.0008	0.0397	-0.0023	-0.0015	-0.6
-0.0008	0.0412	-0.0038	0.0022	-0.6
0.0007	0.0202	-0.0038	0.0015	-0.6
0.0007	0.0157	-0.0023	0	-0.6
-0.0015	0.012	-0.0015	-0.0008	-0.6
-0.0015	0.0007	-0.0015	0.003	-0.6
-0.0008	-0.0046	-0.0023	0.003	-0.6
0.0007	-0.0158	-0.0038	0	-0.6
0.0015	-0.0195	-0.0023	-0.0046	-0.6
0.0007	-0.0165	-0.0008	-0.003	-0.6
-0.0008	-0.0091	-0.0008	-0.003	-0.6
-0.0015	-0.012	-0.0008	-0.0023	-0.6
0.0007	-0.012	-0.0008	-0.003	-0.6
0.0007	-0.0091	-0.0023	-0.003	-0.6
0	-0.0105	-0.003	-0.0008	-0.6
0	-0.0083	-0.0008	-0.0008	-0.6
-0.0015	-0.0105	-0.0008	0.0007	-0.6
-0.003	-0.0135	-0.0008	0.0007	-0.6
-0.0015	-0.0165	0.0007	0.0007	-0.6
-0.0015	-0.0181	0.0015	-0.0046	-0.6
-0.0015	-0.0256	0.0037	-0.0068	-0.6
-0.0015	-0.0293	0.0015	-0.0038	-0.6
-0.003	-0.012	0.0007	-0.0008	-0.6
-0.0023	0.009	0.003	0.0007	-0.6
-0.0023	0.0232	0.0067	-0.0008	-0.6
-0.0038	0.0232	0.0052	0.0045	-0.6
-0.0046	0.003	0.0022	0.003	-0.6
-0.0053	-0.0405	0.0007	-0.0053	-0.6
-0.0046	-0.0788	0.0015	-0.006	-0.6
-0.003	-0.0706	0.0045	-0.0098	-0.6
-0.003	-0.039	0.003	-0.0068	-0.6
-0.0023	0.0165	0.0037	0.006	-0.6
0.0015	0.1117	0.0052	0.0195	-0.6
0.0015	0.201	0.0067	0.0315	-0.6
0.0015	0.1552	0.0052	0.0255	-0.6
-0.0015	0.021	0.0045	0.018	-0.6
-0.003	-0.003	0.0037	0.018	-0.6
-0.0023	-0.0008	0.0015	0.0082	-0.6
-0.0046	-0.0256	0.0015	0.0007	-0.6
-0.003	-0.0195	0.0015	0.0007	-0.6
-0.0023	0.0007	-0.0008	-0.0068	-0.6
-0.0015	0.0187	-0.0015	-0.0181	-0.6
-0.0008	-0.0135	-0.0023	-0.0218	-0.6
-0.0015	-0.027	-0.003	-0.0188	-0.6
-0.003	-0.0233	-0.0023	-0.0181	-0.6
-0.003	-0.0308	-0.0008	-0.0128	-0.6
-0.0023	-0.0218	-0.0015	-0.0068	-0.6
-0.0053	-0.0225	-0.003	-0.0046	-0.6
-0.003	-0.0195	-0.0053	-0.0038	-0.6
-0.0008	-0.0165	-0.006	-0.0046	-0.6
-0.0015	-0.015	-0.0053	-0.006	-0.6
-0.0023	-0.0143	-0.0053	-0.0091	-0.6
-0.0015	-0.015	-0.0068	-0.0075	-0.6
-0.003	-0.0128	-0.0053	-0.0053	-0.6
-0.0038	-0.0233	-0.003	-0.0023	-0.6
-0.0015	-0.0256	-0.0015	0.0045	-0.6
-0.0015	-0.015	0.0007	0.0075	-0.6
-0.0015	-0.0015	0.0022	0.0067	-0.6
-0.0023	0.0052	0.0022	0.003	-0.6
-0.0023	0.0157	0.0022	0.0015	-0.6
-0.0015	0.0457	0.0022	0.0022	-0.6
-0.0023	0.054	0.0007	0.0015	-0.6
-0.003	0.0165	-0.0008	0	-0.6
-0.0023	0.0022	0.0007	0	-0.6
-0.0023	0.0037	0.0007	0.0007	-0.6
-0.0015	-0.0053	0.0007	-0.003	-0.6
-0.0008	0.0007	0.0007	-0.0023	-0.6
-0.0015	0	-0.0008	0.0015	-0.6
-0.003	-0.0053	-0.0008	0.0037	-0.6
-0.0038	-0.0143	0.0015	-0.0015	-0.6
-0.003	-0.0203	0.0007	-0.0046	-0.6
-0.0038	-0.0233	0.003	-0.0008	-0.6
-0.0008	-0.0158	0.0045	0.0052	-0.6
0	0.0007	0.0022	0.0082	-0.6
-0.0015	0.0225	0.0015	0.009	-0.6
0.0007	0.0442	0.0015	0.0105	-0.6
0.0007	0.0255	0.0015	0.0082	-0.6
0	-0.0083	0.003	0.0052	-0.6
-0.0008	-0.024	0.003	-0.0008	-0.6
-0.0008	-0.0293	0.0015	-0.0091	-0.6
-0.0008	-0.0165	-0.0008	-0.0105	-0.6
-0.0015	-0.0038	-0.0015	-0.0075	-0.6
-0.0008	-0.0038	-0.0015	-0.0015	-0.6
-0.0008	0.024	-0.0023	0.0015	-0.6
0.0007	0.0637	-0.003	0.0015	-0.6
0.0007	0.0592	-0.0023	0.0045	-0.6
0	0.021	-0.0008	0.0127	-0.6
-0.0008	-0.003	-0.0015	0.0082	-0.6
-0.003	-0.0143	-0.003	-0.003	-0.6
-0.0008	-0.027	-0.0023	-0.0046	-0.6
-0.0008	-0.0443	-0.003	-0.012	-0.6
-0.0008	-0.0638	-0.0015	-0.0105	-0.6
0	-0.0465	-0.003	-0.0046	-0.6
-0.0008	-0.0263	-0.0046	-0.006	-0.6
0.0015	-0.0181	-0.0038	-0.0083	-0.6
0.0015	0.0135	-0.0038	-0.0053	-0.6
-0.0008	0.054	-0.003	0.0007	-0.6
-0.0008	0.072	-0.0015	0.003	-0.6
-0.0015	0.042	-0.0008	0.0045	-0.6
-0.0023	0.0165	-0.0015	0.0045	-0.6
-0.003	0.0105	-0.003	0.0037	-0.6
-0.0015	0.0157	-0.0015	0.0037	-0.6
-0.0023	0.021	0.0007	0.003	-0.6
-0.003	-0.0068	0.0015	-0.0083	-0.6
-0.0038	-0.039	0.0007	-0.0248	-0.6
-0.0046	-0.0503	0.0007	-0.0233	-0.6
-0.0046	-0.0615	0.0007	-0.0165	-0.6
-0.0046	-0.0803	0.0007	-0.0098	-0.6
-0.0053	-0.0795	-0.0008	-0.003	-0.6
-0.0053	-0.0436	-0.0015	0.0045	-0.6
-0.0038	0.003	0.0015	0.0052	-0.6
-0.0015	0.0337	0.003	0.0067	-0.6
-0.0015	0.0915	0.003	0.012	-0.6
-0.003	0.1095	0.0022	0.006	-0.6
-0.0038	0.0285	0.0015	-0.0008	-0.6
-0.003	-0.0068	0.0015	-0.0068	-0.6
-0.0015	0.0142	0.003	-0.003	-0.6
-0.0015	0.0127	0.0022	0.0037	-0.6
-0.0008	-0.0188	0.0007	0.0037	-0.6
-0.0015	-0.0315	0.0037	0.0007	-0.6
-0.0008	0.0045	0.0037	0.0007	-0.6
0.0007	0.0187	0.0015	0.0052	-0.6
-0.0023	0.0052	0.0022	0.0082	-0.6
-0.0046	0.0165	0.0007	0.0082	-0.6
-0.0015	0.051	0.0007	0.009	-0.6
0.0007	0.0195	0.0015	0.0045	-0.6
-0.0008	-0.0458	0.0022	-0.0105	-0.6
-0.003	-0.054	0.0022	-0.0195	-0.6
-0.0015	-0.048	0.0037	-0.0195	-0.6
-0.0015	-0.039	0.0045	-0.0173	-0.6
-0.0008	-0.0405	0.0015	-0.0113	-0.5
0	-0.003	-0.0015	-0.0008	-0.5
0.0022	0.0495	-0.0008	0.0045	-0.5
0.0045	0.0255	-0.0008	0.0052	-0.5
0.0015	-0.0083	-0.0015	0.0022	-0.5
0.0007	-0.012	0.0007	-0.0015	-0.5
0.003	-0.012	0	0.0075	-0.5
0.0007	0.0067	-0.0008	0.0075	-0.5
-0.0023	-0.003	-0.0023	-0.0046	-0.5
-0.0015	-0.0195	-0.0023	-0.0075	-0.5
-0.0015	-0.0158	-0.0015	-0.0091	-0.5
-0.003	-0.0218	-0.003	-0.0046	-0.5
-0.0015	0.0045	-0.0015	0.0037	-0.5
-0.0015	0.0135	-0.0023	0.0015	-0.5
-0.0015	-0.0038	-0.0023	0.0007	-0.5
-0.0008	-0.003	-0.0023	0.0007	-0.5
-0.0008	-0.0008	-0.003	-0.0091	-0.5
-0.0023	0.0045	-0.003	-0.012	-0.5
-0.0015	-0.0128	-0.0015	-0.0113	-0.5
-0.0008	-0.021	0.0007	-0.0098	-0.5
0.0007	-0.0083	-0.0015	-0.0015	-0.5
-0.0023	0	-0.0015	0.0067	-0.5
-0.0053	0.0157	-0.003	0.0202	-0.5
-0.0046	0.0405	-0.0015	0.0202	-0.5
-0.0038	0.0517	-0.0015	0.0082	-0.5
-0.0046	0.039	-0.0046	0.0082	-0.5
-0.0046	0.0112	-0.003	0.009	-0.5
-0.0046	-0.0293	-0.0015	-0.0038	-0.5
-0.0015	-0.0518	-0.0008	-0.0083	-0.5
-0.0008	-0.054	-0.0008	-0.0053	-0.5
-0.0023	-0.0346	-0.0008	-0.012	-0.5
-0.0008	-0.021	0.0007	-0.0165	-0.5
-0.0015	-0.0285	0.0007	-0.012	-0.5
-0.0015	-0.0105	0.0007	0.0015	-0.5
-0.0015	0.003	0	0.003	-0.5
-0.0023	-0.003	-0.0015	-0.0053	-0.5
-0.0023	0.0127	0.0007	-0.0015	-0.5
-0.003	0.06	0.0015	0.009	-0.5
-0.0015	0.1117	0.0015	0.0142	-0.5
-0.0008	0.0675	0.0015	0.0142	-0.5
-0.0008	0.003	0	0.0082	-0.5
0	0.0082	-0.0008	0.003	-0.5
0.0015	0.0127	0.003	-0.0015	-0.5
0.0015	0.0157	0.0037	-0.0105	-0.5
-0.0008	0.0007	0.0015	-0.0053	-0.5
-0.0023	0.0052	-0.0015	0.006	-0.5
-0.0023	0.0067	-0.003	0.009	-0.5
-0.003	-0.033	-0.003	0.0105	-0.5
-0.003	-0.078	-0.0008	0.0007	-0.5
-0.0015	-0.0856	0.0022	-0.0053	-0.5
-0.0015	-0.0525	0.003	-0.0068	-0.5
-0.003	-0.0346	0.0052	-0.0091	-0.5
-0.0023	0.009	0.006	-0.006	-0.5
-0.0015	0.0607	0.0067	-0.006	-0.5
-0.0023	0.078	0.0067	-0.0068	-0.5
-0.003	0.0307	0.003	-0.0023	-0.5
-0.0046	0.0067	0.0015	0.0007	-0.5
-0.0053	0.0112	-0.0008	-0.0015	-0.5
-0.0046	-0.0046	-0.0008	0.0007	-0.5
-0.0015	0.0172	-0.0008	-0.0008	-0.5
-0.003	-0.0075	-0.0053	-0.0046	-0.5
-0.0038	-0.0285	-0.0053	-0.0068	-0.5
-0.0015	-0.0068	-0.0046	0	-0.5
-0.0015	0.0157	-0.0023	0.006	-0.5
0	0.0255	-0.003	0.0067	-0.5
-0.0015	-0.0075	-0.003	0.009	-0.5
-0.003	-0.03	-0.0008	-0.003	-0.5
-0.0015	-0.0503	-0.0023	-0.0083	-0.5
-0.0008	-0.0525	0.0007	-0.0083	-0.5
0.0007	-0.0256	0.0015	-0.0038	-0.5
0	-0.0128	0.0015	0.0015	-0.5
-0.0015	-0.0008	0.0007	-0.0068	-0.5
-0.0023	0.0157	0.0007	-0.0015	-0.5
-0.0008	0.0502	0.003	0.003	-0.5
0.0007	0.0592	0.0007	0.0007	-0.5
-0.0008	0.0045	0	-0.0046	-0.5
-0.0023	-0.027	0	-0.0105	-0.5
-0.0023	-0.0181	-0.0008	-0.0091	-0.5
-0.0008	-0.0143	0	-0.0091	-0.5
-0.0008	-0.0053	0	-0.0046	-0.5
-0.0023	0	0.0007	0.0022	-0.5
-0.003	0.0022	0.0007	0.0067	-0.5
-0.003	0.009	0.0007	0.015	-0.5
-0.0015	0.0112	0.0007	0.0165	-0.5
-0.0023	-0.0046	0.0007	0.003	-0.5
-0.0015	-0.0091	-0.0008	-0.003	-0.5
-0.0015	-0.0015	0.0007	0	-0.5
-0.0015	-0.0008	0.0015	0	-0.5
-0.0015	0.0135	0.0015	0.0015	-0.5
-0.0008	0	0.0037	-0.0015	-0.5
-0.0008	-0.0181	0.0015	-0.003	-0.5
-0.003	-0.0173	0.0022	-0.003	-0.5
-0.0046	-0.0135	0.0015	-0.0053	-0.5
-0.003	-0.0046	0.0007	-0.0046	-0.5
-0.003	-0.0015	0.0022	-0.003	-0.5
-0.0023	0.012	0.003	-0.0015	-0.5
0.0007	0.027	0.0015	0.0007	-0.5
0.0015	0.0232	0.0007	0.0007	-0.5
0	0.0052	0	-0.0008	-0.5
-0.0008	0.0037	-0.0008	-0.0008	-0.5
-0.003	-0.003	-0.0015	-0.0046	-0.5
-0.0015	-0.0248	-0.0023	-0.0046	-0.5
-0.0008	-0.0413	-0.003	-0.0053	-0.5
-0.0008	-0.0465	-0.003	-0.006	-0.5
0.0007	-0.0346	0	-0.0038	-0.5
-0.0023	-0.0293	-0.0008	-0.0023	-0.4
-0.0015	-0.0203	-0.0008	0.0045	-0.4
-0.0008	0.0255	-0.0008	0.0075	-0.4
-0.0015	0.081	-0.0008	0.0082	-0.4
-0.0008	0.0615	0.0007	0.0135	-0.4
-0.0008	0.027	0.0007	0.0127	-0.4
-0.0015	0.039	0.003	0.0075	-0.4
-0.0008	0.0442	0.0007	0.0045	-0.4
-0.0015	0.018	-0.0008	-0.0008	-0.4
-0.0015	-0.0188	-0.0023	-0.0091	-0.4
-0.0008	-0.0135	-0.003	-0.0105	-0.4
0	-0.0083	-0.0015	-0.0113	-0.4
0.0007	-0.0008	0	-0.0091	-0.4
0.0007	-0.0083	-0.0008	-0.0091	-0.4
0.0007	-0.0248	-0.0023	-0.0053	-0.4
-0.0008	-0.012	-0.0008	0.0052	-0.4
-0.0023	-0.0233	-0.0023	0.0007	-0.4
0	-0.0398	-0.0008	-0.0091	-0.4
0.0015	-0.0503	0	-0.0075	-0.4
0.0007	-0.0593	-0.0008	-0.0046	-0.4
-0.0008	-0.0638	0	-0.0053	-0.4
-0.003	-0.057	0.0007	-0.003	-0.4
-0.003	-0.0173	0.0007	0.0052	-0.4
-0.0023	0.051	-0.0015	0.018	-0.4
-0.003	0.1102	-0.0015	0.0307	-0.4
-0.0038	0.1402	0.0007	0.0307	-0.4
-0.0038	0.078	-0.0015	0.006	-0.4
-0.0046	0.003	-0.0053	-0.0105	-0.4
-0.003	0.0007	-0.003	-0.0173	-0.4
-0.003	-0.03	-0.0008	-0.0218	-0.4
-0.0038	-0.0308	0.0007	-0.0165	-0.4
-0.0023	-0.0233	0.003	-0.012	-0.4
-0.0038	-0.0233	0.003	-0.0068	-0.4
-0.0046	-0.0188	0.0015	-0.0091	-0.4
-0.0023	-0.0256	0.0015	-0.0091	-0.4
-0.0015	-0.0023	0.0015	-0.0046	-0.3
-0.0008	0.0075	0.0022	-0.0015	-0.3
0.0007	0.0105	0.0007	0.0015	-0.3
-0.0008	-0.0038	-0.0015	0.0022	-0.3
-0.0015	0.0015	-0.0015	0.0052	-0.3
-0.0038	0.0045	-0.0008	0.006	-0.3
-0.003	-0.0083	-0.0015	0.006	-0.3
-0.0015	-0.0083	0.0007	0.0037	-0.3
-0.0015	-0.0143	0.003	0.003	-0.3
0.0007	-0.0038	0.003	0.0007	-0.3
-0.0015	-0.003	0.0022	-0.0053	-0.3
-0.0015	-0.0091	0.0007	-0.0091	-0.3
-0.0015	-0.0068	0.0015	-0.006	-0.3
0	0.0105	0.003	0	-0.3
0.0015	0.024	0.0022	0.0052	-0.3
-0.0008	0.0082	0.0015	0.0075	-0.3
-0.0008	-0.003	0.0015	0.0067	-0.3
-0.0008	0.0015	0	0.0075	-0.3
-0.0015	-0.0046	-0.003	0.0052	-0.3
-0.0008	-0.0068	-0.0046	-0.0023	-0.3
-0.0008	-0.0068	-0.003	-0.0053	-0.3
-0.0015	-0.0075	-0.003	-0.0046	-0.3
-0.0008	-0.0038	-0.0023	-0.0046	-0.3
-0.0038	0	-0.0008	-0.0046	-0.3
-0.0038	0.0007	0	-0.0083	-0.3
-0.0015	-0.0195	0	-0.0135	-0.3
-0.0046	-0.0383	0.0015	-0.0195	-0.3
-0.0046	-0.0428	-0.0008	-0.0248	-0.3
-0.0038	-0.0443	0.0007	-0.0173	-0.3
-0.0046	-0.0256	-0.0008	-0.0105	-0.3
-0.006	-0.0023	-0.003	-0.0038	-0.3
-0.0053	0.0397	0	0.0165	-0.3
-0.0023	0.0712	0.0022	0.024	-0.3
-0.003	0.0015	0	0.0217	-0.3
-0.0038	-0.0503	-0.0015	0.027	-0.3
-0.003	-0.0165	0	0.0165	-0.3
-0.003	-0.0188	-0.0008	-0.0046	-0.3
-0.0038	0.024	-0.0023	-0.0008	-0.3
-0.0015	0.0922	-0.0008	0.0105	-0.3
-0.0008	0.1252	-0.0015	0.0195	-0.3
-0.0015	0.093	-0.0023	0.015	-0.3
-0.0015	0.0067	-0.0008	-0.003	-0.3
-0.0008	-0.0353	0.0007	-0.0113	-0.3
-0.0015	-0.048	0.0015	-0.012	-0.3
-0.0008	-0.042	0.0015	-0.0165	-0.3
0.0007	-0.015	0.003	-0.0143	-0.3
0.0007	0.0337	0.0067	0.0067	-0.3
0.0015	0.042	0.0052	0.018	-0.3
0.003	-0.0008	0.0045	0.0067	-0.3
0.0015	0.0105	0.003	0.0015	-0.3
0.0007	0.0367	0.0022	0.0022	-0.3
-0.0008	0.0067	0.0015	0.0007	-0.3
0	-0.0135	0.0015	-0.0046	-0.3
0	-0.0165	0	-0.0098	-0.3
-0.0015	-0.0195	0	-0.0083	-0.3
-0.0008	-0.0218	-0.0008	-0.0046	-0.3
-0.0023	-0.024	-0.0008	0.006	-0.3
-0.003	-0.0195	0.0007	0.0082	-0.3
-0.003	-0.0218	-0.0008	0.0015	-0.3
-0.003	-0.0203	-0.0008	-0.003	-0.3
-0.003	-0.0113	0.0007	-0.0105	-0.2
-0.0015	-0.0008	0.0007	-0.0135	-0.2
-0.0015	-0.0068	-0.0008	-0.021	-0.2
-0.0038	-0.0248	-0.0015	-0.0188	-0.2
-0.003	-0.0248	-0.0015	-0.0053	-0.2
-0.0046	-0.021	-0.0046	0.0015	-0.2
-0.0053	-0.0158	-0.0046	-0.0008	-0.2
-0.003	-0.0105	-0.003	-0.0053	-0.2
-0.003	-0.0008	-0.0015	-0.0008	-0.2
-0.0038	0.0142	-0.0015	0.0015	-0.2
-0.0046	0.0112	0	-0.0015	-0.2
-0.0008	-0.0195	0.0015	-0.0008	-0.2
-0.0008	-0.0488	0.0015	0.0022	-0.2
-0.0008	-0.0361	0.0022	0.003	-0.2
-0.0008	-0.0218	0.003	-0.0038	-0.2
-0.003	-0.003	0.0022	-0.0091	-0.2
-0.0008	0.0345	0.003	-0.0015	-0.2
-0.0008	0.0862	0.003	0.0082	-0.2
-0.0008	0.1125	0.0007	0.012	-0.2
0.0007	0.0532	-0.0008	0.009	-0.2
0.0007	0.0232	-0.0008	0.006	-0.2
0	0.0307	0	0.0082	-0.2
0	0.0202	-0.0015	0.0045	-0.2
-0.0008	0.0135	-0.0008	-0.0015	-0.2
-0.0008	-0.0038	-0.0015	-0.0046	-0.2
-0.0008	-0.0128	-0.003	-0.0046	-0.2
-0.0008	-0.0248	-0.003	-0.0023	-0.2
-0.0008	-0.0338	-0.0053	-0.0068	-0.2
-0.0015	-0.0308	-0.0053	-0.0053	-0.2
-0.0008	-0.0113	-0.0023	-0.0015	-0.2
-0.0008	0.0202	-0.0015	-0.0008	-0.2
-0.0008	0.0247	-0.0023	0.0022	-0.2
-0.0038	0.0105	-0.0015	0.0045	-0.2
-0.003	-0.0038	-0.0008	0.0007	-0.2
-0.0015	-0.012	-0.0015	-0.003	-0.2
-0.003	-0.0165	-0.0008	-0.0046	-0.2
-0.0015	-0.027	-0.0008	-0.0046	-0.2
-0.0038	-0.0308	-0.0008	-0.003	-0.2
-0.0008	-0.0218	0	-0.003	-0.2
-0.0023	-0.0195	0.0007	0.0007	-0.2
-0.003	-0.0105	0.003	0.0097	-0.2
-0.0015	0.0022	0.0045	0.012	-0.2
-0.0008	0.0105	0.003	0.0067	-0.2
-0.0008	-0.0008	0.0022	0.003	-0.2
-0.0046	-0.0165	-0.0008	0.0007	-0.2
-0.0038	-0.0128	-0.0015	-0.003	-0.2
-0.0015	-0.0083	-0.003	-0.0015	-0.2
-0.0015	-0.0075	-0.0015	-0.0008	-0.2
-0.0008	-0.0075	0.0015	-0.0015	-0.2
-0.0008	-0.0091	0.0052	-0.0008	-0.2
0	-0.012	0.0052	-0.0015	-0.2
-0.003	-0.0195	0.003	-0.0023	-0.2
-0.003	-0.0308	0.0052	-0.0068	-0.2
-0.0023	-0.0315	0.0045	-0.0091	-0.2
-0.003	-0.0263	0.003	-0.0083	-0.2
-0.003	-0.0405	0.0022	-0.012	-0.2
-0.0038	-0.048	0.0015	-0.0158	-0.2
-0.003	-0.0405	0.0015	-0.0143	-0.2
-0.0008	-0.0203	0.0015	0.0015	-0.2
0.0007	0.0255	0.003	0.0195	-0.2
0.0007	0.069	0.0007	0.0232	-0.2
0	0.0937	0.003	0.027	-0.2
0.0007	0.0772	0.003	0.024	-0.2
-0.0008	0.018	0.0007	0.0157	-0.2
-0.0015	-0.0083	-0.0015	0.0007	-0.2
-0.003	-0.0038	-0.0038	-0.0128	-0.2
-0.0023	0.0142	-0.0046	-0.0068	-0.2
-0.0008	0.075	-0.0053	-0.0046	-0.2
-0.0008	0.078	-0.0053	-0.0091	-0.2
-0.0023	0.0082	-0.0046	-0.0068	-0.2
-0.003	-0.0188	-0.003	-0.003	-0.2
-0.003	-0.021	-0.0053	0.0015	-0.2
-0.0053	-0.0165	-0.0053	0.0052	-0.2
-0.0046	-0.003	-0.0023	0.003	-0.2
-0.003	0.0045	-0.0008	-0.0015	-0.2
-0.003	0.003	-0.0015	-0.006	-0.2
-0.003	-0.0008	0	-0.0113	-0.2
-0.0015	0.0007	0.003	-0.0158	-0.2
0	-0.0015	0.0037	-0.0158	-0.2
-0.003	-0.0068	0.0037	-0.0113	-0.2
-0.0015	-0.0083	0.003	-0.0075	-0.2
-0.0015	-0.0015	0.0045	-0.0068	-0.2
-0.0046	0.0045	0.0045	-0.003	-0.2
-0.0015	0.0142	0.0037	-0.0008	-0.2
-0.0008	-0.0083	0.0052	-0.006	-0.2
-0.0015	-0.0256	0.0037	-0.0128	-0.2
-0.0008	-0.0173	0.0022	-0.0143	-0.2
0.0007	-0.027	0.0015	-0.012	-0.2
0	-0.033	0.0015	-0.0083	-0.2
0	-0.0548	0	-0.003	-0.2
0	-0.0525	0.0007	0.0015	-0.2
-0.0008	-0.0383	0.0015	0.0007	-0.2
-0.0015	-0.042	0.0007	0.003	-0.2
-0.0015	0.0015	0	0.0157	-0.2
-0.0015	0.0555	0.0007	0.015	-0.2
-0.003	0.0915	0.0007	0.0157	-0.2
-0.0015	0.0727	-0.0015	0.0195	-0.2
-0.0023	0.0345	-0.0008	0.0105	-0.2
-0.0008	0.027	0	0.0097	-0.2
0.0007	-0.0053	0	0.0037	-0.2
-0.0015	-0.0225	0.0015	-0.0075	-0.2
0.0007	-0.0323	0.0015	-0.0015	-0.2
0.0007	-0.048	-0.0008	0.0007	-0.2
-0.0023	-0.0503	-0.0015	0.0022	-0.2
-0.003	-0.0375	-0.0008	0.0067	-0.2
-0.003	-0.0203	-0.0008	0.0067	-0.2
-0.0008	0.0037	-0.0008	0.0082	-0.2
0	0.039	-0.0008	0.0037	-0.2
-0.0008	0.0495	-0.003	-0.0038	-0.2
-0.0008	0.0442	-0.0038	-0.0083	-0.2
-0.0008	0.0195	-0.0023	-0.0105	-0.2
-0.0023	0.0007	-0.0015	-0.012	-0.2
-0.0023	0.0007	-0.003	-0.0083	-0.2
-0.0023	-0.0075	-0.003	-0.003	-0.2
-0.0015	-0.0046	-0.003	-0.006	-0.2
-0.0015	-0.0046	-0.0015	-0.006	-0.2
-0.0023	-0.0091	-0.0015	-0.003	-0.2
-0.0015	-0.021	-0.0015	-0.0015	-0.2
-0.0015	-0.0195	0.0007	0.0007	-0.2
-0.0015	-0.0068	0.0015	0.0067	-0.2
-0.0015	-0.0128	0.0015	0.0082	-0.2
-0.003	-0.0128	0.0007	0.0052	-0.2
-0.0008	0.0022	0.0022	0.0052	-0.2
0.0015	0.0307	0.0045	-0.003	-0.2
0.0007	0.042	0.0045	-0.0091	-0.2
-0.0008	0.0127	0.0015	-0.0113	-0.2
-0.003	-0.0046	0.0007	-0.006	-0.2
-0.0023	0	0.0015	-0.0015	-0.2
-0.0023	-0.0053	0.0007	-0.0023	-0.2
-0.0015	-0.0015	-0.0008	0.0045	-0.2
-0.0023	0.006	0.0022	0.0037	-0.2
-0.0008	0.0015	0.003	0.0007	-0.2
0.0015	-0.0053	0.0007	-0.003	-0.2
-0.0015	-0.015	0.0015	-0.0083	-0.2
-0.0015	-0.0248	0.0022	-0.012	-0.2
-0.0015	-0.033	0.003	-0.0135	-0.2
-0.003	-0.0428	0.003	-0.0105	-0.2
-0.0023	-0.0436	0.0022	-0.0046	-0.2
-0.0038	-0.0315	0.0007	-0.0015	-0.2
-0.0015	-0.0143	-0.0008	0	-0.2
-0.0015	0.018	0	0.0067	-0.1
-0.003	0.0457	-0.0008	0.0157	-0.1
-0.0023	0.0577	-0.003	0.0142	-0.1
-0.0046	0.0367	-0.0015	-0.0015	-0.1
-0.003	-0.0158	0	-0.0113	-0.1
-0.0015	0.009	0.0015	-0.0008	-0.1
-0.0015	0.0495	0.0007	0.0067	-0.1
-0.0015	0.0277	-0.0008	-0.0008	-0.1
-0.0015	0.0067	0.0015	-0.0038	-0.1
-0.0008	0.0292	0.0015	0.0007	-0.1
-0.0008	0.0307	-0.0008	0.0007	-0.1
-0.0015	0.0075	-0.0008	0.0045	-0.1
0	0.0157	0.003	-0.0008	-0.1
0	-0.0091	0.0052	-0.0068	-0.1
0.0007	-0.0075	0.0015	0.0007	-0.1
0.0007	0.0067	-0.0008	0.0015	-0.1
0.0007	-0.012	0.0007	-0.0015	-0.1
0.0022	-0.0068	-0.0008	0.0022	-0.1
0.0007	-0.0091	-0.0023	0.0022	-0.1
-0.0008	-0.012	-0.0046	0.003	-0.1
-0.003	-0.0181	-0.0046	0.0037	-0.1
-0.003	-0.0256	-0.0015	0.0045	-0.1
-0.0023	-0.0225	-0.0023	0.0007	-0.1
-0.0015	-0.0203	-0.0008	-0.006	-0.1
-0.003	-0.0105	0.0007	-0.0091	-0.1
-0.0046	-0.0053	0.0007	-0.0105	-0.1
-0.003	0.0007	0.0015	-0.0083	-0.1
-0.003	0.0082	-0.0008	-0.003	-0.1
-0.0038	0.012	-0.0008	0	-0.1
-0.003	-0.0008	0.0015	-0.0008	-0.1
-0.003	-0.0083	0.0015	-0.0015	-0.1
-0.0053	-0.0038	0.0015	-0.0008	-0.1
-0.0038	0.0007	0.0007	0.0007	-0.1
-0.003	0.015	0.0015	0.0015	-0.1
-0.0046	0.006	0.0015	0.0007	-0.1
-0.0053	-0.0046	-0.0008	0.0007	-0.1
-0.0046	-0.0008	-0.0015	0.0007	-0.1
-0.0038	-0.003	-0.0008	-0.0046	-0.1
-0.0015	-0.0038	-0.0008	-0.0068	-0.1
-0.0015	-0.0188	-0.0008	-0.0083	-0.1
-0.003	-0.0233	-0.0015	-0.0083	-0.1
-0.003	-0.0173	-0.0023	-0.0053	-0.1
-0.0015	-0.012	-0.003	-0.0015	-0.1
-0.0008	-0.0023	-0.003	0.0015	-0.1
-0.0023	-0.0225	-0.003	0.003	-0.1
-0.003	-0.0368	-0.0038	0.0067	-0.1
-0.003	-0.0068	-0.0038	0.006	-0.1
-0.003	0.0225	-0.003	0.009	-0.1
-0.0015	0.027	-0.0015	0.0165	-0.1
-0.003	0.0577	-0.0008	0.018	-0.1
-0.003	0.1027	-0.0008	0.0142	-0.1
-0.0015	0.0637	-0.0008	0.0097	-0.1
0.0007	0.0075	-0.0008	0.0022	-0.1
0.0015	-0.0015	0.0007	-0.0083	-0.1
0.0015	-0.0203	-0.0008	-0.0158	-0.1
0.0015	-0.0203	0.0015	-0.0181	-0.1
0.0007	-0.0181	0.003	-0.0105	-0.1
-0.0008	-0.0165	0.003	-0.0083	-0.1
0.0007	-0.012	0.006	-0.0068	-0.1
0.0007	-0.0195	0.0052	-0.0023	-0.1
-0.0008	-0.0195	0.0045	0.0022	-0.1
0.0007	-0.024	0.0045	0.0052	-0.1
0.0022	-0.0278	0.0045	0.0007	-0.1
-0.0008	-0.027	0.0045	-0.003	-0.1
-0.0008	-0.0233	0.0015	-0.003	-0.1
0.0007	-0.0165	-0.0008	-0.0046	-0.1
0.0007	-0.0068	-0.0008	0	-0.1
0	0	-0.0008	0.003	-0.1
-0.0015	-0.003	-0.0008	0.003	-0.1
-0.0023	-0.003	-0.0023	-0.0015	-0.1
-0.0053	-0.006	-0.0015	-0.0046	-0.1
-0.0053	-0.003	-0.003	-0.0046	-0.1
-0.0046	0	-0.003	-0.0015	-0.1
-0.003	-0.0008	-0.0015	0.0022	-0.1
-0.0008	-0.0015	-0.0015	0.003	-0.1
-0.0008	-0.0075	-0.0008	0.006	-0.1
-0.0023	-0.0075	0	0.0052	-0.1
-0.0015	-0.0023	0.0007	0.003	-0.1
-0.0015	0.0015	0.0007	0.0015	-0.1
-0.0046	0.003	-0.0008	0.0015	-0.1
-0.0038	0.0022	-0.0015	0.0015	-0.1
-0.0023	0.0015	0.0007	-0.0046	-0.1
-0.0046	-0.0023	0	-0.012	-0.1
-0.006	-0.0128	-0.0008	-0.0203	-0.1
-0.0053	-0.0195	0.0007	-0.0181	-0.1
-0.0038	-0.0143	0.0007	-0.0098	-0.1
-0.003	-0.0083	0.0007	-0.003	-0.1
-0.0023	-0.003	0.0015	0.0067	-0.1
-0.003	0.0007	0.0015	0.012	-0.1
-0.0015	0.0292	0	0.0195	-0.1
0.0015	0.0637	-0.0015	0.0217	-0.1
0.0007	0.0322	-0.0038	0.009	-0.1
-0.0015	0.0015	-0.0023	-0.0046	-0.1
-0.0015	0.0037	-0.0015	-0.0075	-0.1
-0.0023	0.0007	0.0007	-0.0046	-0.1
-0.003	0.018	0.0022	-0.0038	-0.1
-0.0023	0.0142	0.0007	-0.0038	-0.1
-0.0015	0.009	0	-0.003	-0.1
-0.0008	0.012	0.0015	-0.0015	-0.1
-0.0015	0.0015	0.0015	-0.0008	-0.1
0	0.0015	-0.0008	-0.003	-0.1
0	-0.0046	-0.0008	-0.0023	-0.1
0	-0.0105	-0.003	-0.003	-0.1
0	-0.0143	-0.003	-0.003	-0.1
-0.0015	-0.012	-0.0015	-0.0008	-0.1
0	-0.012	-0.0023	-0.0008	-0.1
0.0007	-0.0293	-0.0008	-0.0008	-0.1
-0.0008	-0.0405	-0.0008	-0.0008	-0.1
-0.0015	-0.0383	0	0.0007	-0.1
-0.003	-0.0443	0.0015	-0.003	-0.1
-0.0038	-0.0458	0.0015	-0.0128	-0.2
-0.0023	-0.021	-0.0008	-0.0173	-0.2
0	0.0202	-0.0008	-0.0105	-0.2
0.0007	0.0712	0	0.0037	-0.2
0.0007	0.1012	0.0015	0.006	-0.2
0.0007	0.0997	-0.0008	0.009	-0.1
-0.003	0.0577	-0.0008	0.0105	-0.1
-0.0046	0.0367	0	0.003	-0.1
-0.003	0.0232	-0.0023	0.0045	-0.1
0.0007	-0.0083	-0.0023	0.003	-0.1
0.0007	-0.0083	-0.0008	0.0007	-0.1
-0.0015	-0.0203	0	0.006	-0.1
-0.0008	-0.0128	0	0.0052	-0.1
-0.0008	-0.0053	-0.0015	0.0007	-0.1
-0.0015	-0.0046	0	-0.0015	-0.1
-0.003	-0.0143	0.0007	-0.0038	-0.1
-0.0046	-0.0263	-0.0008	-0.0015	-0.1
-0.0015	-0.0068	-0.0008	0.0007	-0.1
0	-0.012	-0.0008	-0.0015	-0.1
0.0007	-0.0165	-0.0038	-0.0046	-0.1
-0.0038	-0.012	-0.003	-0.0008	-0.1
-0.003	-0.0143	-0.0023	-0.0015	-0.1
-0.0015	-0.0083	-0.0053	-0.003	-0.1
-0.003	-0.0008	-0.0046	0.0007	-0.1
-0.003	-0.0053	-0.0015	0.0007	-0.1
-0.0046	-0.0091	-0.0008	-0.0015	-0.1
-0.0038	-0.0091	0.0007	-0.006	-0.1
-0.0038	-0.0218	0.0007	-0.0128	-0.1
-0.003	-0.033	0.0015	-0.0195	-0.1
-0.0038	-0.0293	0.0022	-0.0165	-0.1
-0.0046	-0.0195	0.0007	-0.0053	-0.1
-0.003	-0.0053	-0.0015	0.003	-0.1
-0.0015	0.0105	-0.0015	0.006	-0.1
-0.0008	0.0007	0	0.0067	-0.1
-0.0008	-0.0263	0	0.0112	-0.1
0.0007	-0.0158	0	0.009	-0.1
-0.0008	-0.0105	0.0007	-0.0046	-0.1
-0.003	-0.0105	0.003	-0.0053	-0.1
-0.0023	0.0307	0.0037	-0.0023	-0.1
-0.0038	0.081	0.003	-0.0015	-0.1
-0.003	0.1012	0.0037	0.0037	-0.1
-0.003	0.0427	0.0007	-0.0023	-0.1
-0.0038	0.0037	0.0015	-0.0068	-0.1
-0.0023	0.0037	0.0007	-0.0008	-0.1
-0.003	-0.0091	-0.0008	0.0007	-0.1
-0.0023	-0.0015	-0.0015	-0.0015	-0.1
-0.0023	-0.0053	-0.0038	-0.0008	-0.1
0	-0.003	-0.0023	-0.003	-0.1
0	-0.003	-0.0015	-0.0068	-0.1
-0.0015	-0.0068	-0.0008	-0.0075	-0.1
-0.0008	-0.0046	0.0007	-0.0046	-0.1
-0.0008	0.0052	0.0022	-0.0008	-0.1
0.0007	0.012	0.0007	0.0007	-0.1
0.0007	-0.0128	-0.0008	0.0052	-0.1
0.0007	-0.0248	-0.0008	0.009	-0.1
0.0007	-0.0225	-0.0008	0.0105	-0.1
-0.0008	-0.0203	0	0.003	-0.1
0	-0.0218	-0.0008	-0.0023	-0.1
0	-0.0203	0.0007	-0.0008	-0.1
0.0007	-0.0135	0.0007	-0.003	-0.1
-0.0008	-0.0098	0	-0.0023	-0.1
0.0007	-0.0091	0.0007	0.0007	-0.1
0	-0.0113	0	0.0015	-0.1
-0.0023	-0.0158	0.0015	0	-0.1
-0.0008	-0.0165	0.0037	-0.0008	-0.1
-0.0008	-0.0128	0.0045	-0.0008	-0.1
-0.003	-0.0098	0.0045	-0.003	-0.1
-0.003	-0.0068	0.003	-0.003	-0.1
-0.003	0.0037	0.003	-0.0023	-0.1
-0.0015	0.0277	0.003	0.003	-0.1
-0.0023	0.0337	0.0015	0.006	-0.1
-0.0015	0.0067	0.003	0.0067	-0.1
-0.003	0	0.0022	0.0082	-0.1
-0.0046	0.0007	-0.0008	0.0007	-0.1
-0.003	-0.0038	-0.0008	-0.0038	-0.1
-0.003	-0.0083	-0.0023	-0.006	-0.1
-0.0015	-0.0225	-0.0015	-0.0135	-0.1
-0.003	-0.0278	-0.0008	-0.0181	-0.1
-0.0023	-0.0188	-0.0008	-0.012	-0.1
-0.0023	-0.0091	-0.0015	-0.0053	-0.1
-0.0046	-0.0165	-0.003	-0.0046	-0.1
-0.003	-0.0091	-0.0038	0.0007	-0.1
-0.003	0.0172	-0.0053	0.0007	-0.1
-0.0038	0.0052	-0.0046	-0.0046	-0.1
-0.003	-0.0128	-0.0038	-0.0015	-0.1
-0.003	-0.003	-0.0015	0.0015	-0.1
-0.0015	0.0292	-0.0008	0.003	-0.1
0	0.0472	-0.0008	0.0067	-0.1
-0.0008	0.0307	0.0007	0.0022	-0.1
-0.0015	0.0262	0	-0.0083	-0.1
-0.0023	0.0067	-0.0008	-0.0023	-0.1
-0.0015	-0.0158	0	0.009	-0.1
-0.0023	-0.0113	0.0015	0.009	-0.1
-0.0038	-0.0143	-0.0008	0.0157	-0.1
-0.0046	0.0007	-0.0015	0.0187	-0.1
-0.003	0.0247	-0.0023	0.0195	-0.1
-0.0008	0.0637	0	0.018	-0.1
0.0015	0.0585	0.0007	-0.0008	-0.1
0.0007	0.0015	0.0007	-0.012	-0.1
0.0007	-0.0053	0.0037	-0.0105	-0.1
0.0007	-0.003	0.0045	-0.0083	-0.1
-0.0015	-0.0053	0.0045	-0.0046	-0.1
-0.0023	-0.003	0.0045	-0.0053	-0.1
-0.0023	-0.0091	0.0037	-0.0098	-0.1
-0.0008	-0.0113	0.003	-0.0143	-0.1
0.0007	-0.0181	0.0015	-0.0128	-0.1
-0.0008	-0.03	0.0015	-0.0091	-0.1
0	-0.06	0.0007	-0.0098	-0.1
-0.0008	-0.0915	0	-0.0091	-0.1
-0.003	-0.075	0.0007	-0.0091	-0.1
-0.0046	-0.0458	0.0022	-0.0068	-0.1
-0.006	-0.0233	0.003	-0.003	-0.1
-0.0053	0.0172	0.0007	0.003	-0.1
-0.003	0.0817	0.0015	0.0105	-0.1
-0.0015	0.1222	0.0015	0.0135	-0.1
-0.0023	0.0742	0	0.0105	-0.1
-0.0023	0.0307	0	0.0052	-0.1
-0.0023	0.0157	0.0007	-0.0008	-0.1
-0.0015	-0.0083	0.0007	-0.0046	-0.1
-0.0015	-0.0143	0.0007	-0.003	-0.1
-0.0015	-0.0181	0.0007	-0.0038	-0.1
-0.0015	-0.0128	0	-0.0008	-0.1
-0.0015	-0.0158	0	0.003	-0.1
-0.0015	-0.0195	-0.0008	0.0015	-0.1
-0.0015	-0.0203	-0.0015	-0.0015	-0.1
-0.0023	-0.024	0.0007	-0.0046	-0.1
-0.0008	-0.0256	0.0007	-0.0068	-0.1
0.0007	-0.033	0.0015	-0.0068	-0.1
-0.0015	-0.0256	0.003	-0.0075	-0.1
-0.0023	-0.0143	0	-0.0098	-0.1
-0.0008	-0.0008	-0.0015	-0.0083	-0.1
-0.003	0.012	-0.003	0	-0.1
-0.003	0.0157	-0.0038	0.0097	-0.1
-0.003	0.027	-0.003	0.0172	-0.1
-0.003	0.0367	-0.0015	0.0195	-0.1
-0.0015	0.003	-0.0015	0.0082	-0.1
-0.0015	-0.0495	-0.0015	0	-0.1
0.0015	-0.0623	0.0015	-0.0008	-0.1
0.0022	-0.0428	0.0007	-0.0015	-0.1
0	-0.0368	0	0.0022	-0.1
-0.0008	-0.0165	0.0007	0.0037	-0.1
-0.0008	0.0382	0.0007	0.003	-0.1
0	0.0862	0.0022	0.009	-0.1
-0.0008	0.114	0.0007	0.018	-0.1
-0.0008	0.0615	0.0007	0.0112	-0.1
-0.0015	0.0045	-0.003	-0.0015	-0.1
-0.0008	-0.0008	-0.0038	-0.0053	-0.1
-0.0015	-0.0046	-0.003	-0.0075	-0.1
-0.003	0.0067	-0.0023	-0.0075	-0.1
-0.0023	0.0105	0.0007	-0.006	-0.1
-0.0046	0.0022	0.003	-0.0068	-0.1
-0.0038	-0.0083	0.0037	-0.0046	-0.1
-0.003	-0.0083	0.0015	-0.0038	-0.1
-0.0046	-0.0128	0.0015	-0.0023	-0.1
-0.0046	-0.0203	0.0015	-0.0046	-0.1
-0.0038	-0.0405	0.0007	-0.0091	-0.1
-0.003	-0.057	0.0007	-0.0105	-0.1
-0.0023	-0.054	-0.0008	-0.012	-0.1
-0.0008	-0.0555	-0.0008	-0.0083	-0.1
0.0007	-0.0361	-0.0015	-0.0015	-0.1
0	0.009	0.0007	0.0015	-0.1
-0.0008	0.069	0.003	0.0105	-0.1
0	0.078	0.0052	0.0195	-0.1
0.003	0.0472	0.0067	0.0105	-0.1
0.0045	0.0577	0.0045	-0.003	-0.1
0.0015	0.0367	0.0022	-0.0015	-0.1
0.0007	0.0067	0.0007	-0.006	-0.1
-0.0015	0.0015	0.0015	-0.0091	-0.1
-0.0023	-0.0165	-0.0008	-0.0053	-0.1
-0.0023	-0.0083	-0.0008	-0.0046	-0.1
-0.0023	-0.0158	-0.003	-0.003	-0.1
-0.0015	-0.0233	-0.0015	-0.0053	-0.1
-0.0015	-0.0203	0	-0.003	-0.1
-0.0023	-0.0203	0.0007	-0.0015	-0.1
-0.0023	-0.0173	0.0022	0.0007	-0.1
-0.0015	-0.0195	-0.0008	0.0022	-0.1
-0.0015	-0.0068	-0.0023	0.0015	-0.1
-0.003	-0.0023	0.0007	0.006	-0.1
-0.003	0	0.0015	0.009	-0.1
-0.0015	0.0015	0.003	0.006	-0.1
0	0.0045	0.003	0.0007	-0.2
-0.0008	-0.0105	0.0022	-0.0053	-0.2
-0.0023	-0.0285	0.0007	-0.0113	-0.2
-0.0015	-0.021	-0.0008	-0.0135	-0.2
-0.0008	-0.0218	-0.0008	-0.0188	-0.2
0	-0.0188	-0.0015	-0.0165	-0.2
0.0007	0.012	-0.0008	0.0045	-0.2
0.0015	0.0502	-0.0008	0.0127	-0.2
0	0.054	-0.0015	0.0075	-0.2
-0.0008	0.0292	-0.0008	0.006	-0.2
0.0007	0.0172	0.0007	0.0045	-0.2
-0.0008	-0.0015	0.0015	0.0045	-0.2
0	-0.0105	0.0015	0.0105	-0.2
0	-0.0068	0.0015	0.009	-0.2
0	-0.0143	0.0015	-0.0008	-0.2
0.0007	-0.0128	0.003	-0.0046	-0.2
-0.0008	-0.0113	0.003	-0.0023	-0.2
-0.0008	-0.0128	0.0022	-0.0008	-0.2
-0.003	-0.0068	0.003	0	-0.2
-0.003	-0.0068	0.0007	-0.0008	-0.2
-0.003	-0.0046	-0.0015	-0.0015	-0.2
-0.003	-0.0128	-0.0008	-0.0068	-0.2
-0.0038	-0.0278	-0.0008	-0.012	-0.2
-0.0038	-0.0315	-0.0015	-0.0105	-0.2
-0.0053	-0.0233	-0.0015	-0.0075	-0.2
-0.0046	-0.015	-0.0015	-0.0053	-0.2
-0.0046	-0.0083	-0.0008	-0.003	-0.2
-0.0046	0.0165	-0.0023	0	-0.2
-0.003	0.0517	-0.0023	0.003	-0.2
-0.003	0.054	-0.0008	0.003	-0.2
-0.0015	0.0165	-0.0015	0.0007	-0.2
-0.0015	0.0165	-0.0008	-0.0023	-0.2
-0.0015	0.0015	0.0007	-0.0083	-0.2
-0.0015	-0.0278	0.0015	-0.0083	-0.2
-0.003	-0.0188	0.0037	-0.0075	-0.2
-0.0023	-0.0195	0.003	-0.0075	-0.1
-0.0053	-0.0008	0.003	0.0015	-0.1
-0.0038	0.0262	0.0037	0.0052	-0.1
-0.0015	0.027	0.0022	0.0082	-0.1
-0.0023	0.0082	0.0015	0.0052	-0.1
-0.003	-0.0038	0.0015	-0.003	-0.1
-0.0023	-0.0203	0.0007	-0.0068	-0.1
-0.0023	-0.03	0	0.0007	-0.1
-0.003	0.0015	0	0.0052	-0.1
-0.0008	0.027	0	0.0127	-0.1
-0.0015	0.0465	0	0.0202	-0.1
-0.003	0.0405	-0.0023	0.0157	-0.1
-0.0015	0.015	-0.003	0.0022	-0.1
-0.0015	-0.0015	-0.0046	-0.0046	-0.1
-0.0008	-0.0053	-0.0038	-0.006	-0.1
-0.0015	-0.0083	-0.0038	-0.0068	-0.1
-0.0023	-0.012	-0.0053	-0.0083	-0.1
-0.0023	-0.0105	-0.006	-0.0075	-0.1
-0.0023	-0.0173	-0.006	-0.0053	-0.1
0	-0.0368	-0.0053	-0.0046	-0.1
0.0007	-0.0608	-0.0046	-0.0038	-0.1
0.0007	-0.057	-0.003	-0.006	-0.1
0.0015	-0.0405	-0.003	-0.0053	-0.1
0	-0.0256	-0.003	-0.006	-0.1
0	0.0067	-0.0008	-0.0068	-0.1
0	0.0712	0.0007	-0.0015	-0.1
-0.0008	0.1125	-0.0008	0.0052	-0.1
-0.0008	0.0472	-0.0008	0.0067	-0.1
-0.0015	0.0052	0.0007	0.0067	-0.1
-0.0008	0.0202	-0.0015	0.0045	-0.1
-0.0023	0.009	0.0007	0.006	-0.1
-0.003	-0.003	0.0007	0.0082	-0.1
-0.0015	-0.0165	0	-0.0038	-0.1
-0.0038	-0.0091	0.0015	-0.0053	-0.1
-0.0023	0.0052	0.0045	0.0045	-0.1
-0.0015	0.0052	0.0045	0.0052	-0.1
-0.003	0.0007	0.003	0.006	-0.1
-0.003	0.003	0.0007	0.0067	-0.1
-0.0008	-0.0038	0.0015	0.0007	-0.1
-0.0008	-0.0315	0.003	-0.0128	-0.1
-0.0008	-0.0465	0.0015	-0.0143	-0.1
-0.0015	-0.0533	0.003	-0.0083	-0.1
-0.0015	-0.0398	0.0015	-0.0046	-0.1
-0.0008	-0.012	0.0007	-0.0015	-0.1
-0.0023	0.0232	0.0007	0.0015	-0.1
-0.003	0.0435	0.0015	0.0075	-0.1
-0.003	0.0412	0.0015	0.006	-0.1
-0.0038	0.0255	-0.0008	0.0022	-0.1
-0.003	0.0015	-0.0015	0.0007	-0.1
-0.003	-0.0083	-0.003	-0.0015	-0.1
-0.003	-0.0098	-0.0023	-0.0053	-0.1
-0.003	-0.0113	-0.0015	-0.0053	-0.1
-0.003	-0.0113	-0.0008	-0.0015	-0.1
-0.0015	-0.0105	-0.0008	-0.003	-0.1
-0.0008	-0.0105	-0.0008	-0.003	-0.1
-0.0008	-0.0083	-0.0008	-0.0046	-0.1
-0.0008	-0.0046	-0.003	-0.0046	-0.1
-0.0008	-0.0046	-0.003	-0.0023	-0.1
-0.0023	-0.0068	-0.0046	-0.0015	-0.1
-0.0015	-0.006	-0.0015	0.003	-0.1
-0.0023	-0.0015	-0.003	0.0045	-0.1
-0.003	0.003	-0.0053	-0.0023	-0.1
-0.003	0.0067	-0.0015	-0.0091	-0.1
-0.0015	0.0052	-0.0023	-0.0068	-0.1
-0.0008	0.0052	-0.0015	-0.003	-0.1
0.0015	-0.0015	0.0007	-0.003	-0.1
0.0007	-0.0105	-0.0008	-0.0046	-0.1
-0.0015	-0.0128	-0.0015	-0.0038	-0.1
-0.0015	-0.0128	0.0007	-0.0008	-0.1
-0.0015	-0.0038	0.003	-0.0091	-0.1
-0.0015	-0.0038	0.0037	-0.0218	0
0.0007	-0.0046	0.0015	-0.015	0
-0.0008	-0.0008	0.003	-0.003	0
-0.0023	0.0007	0.0037	0.0045	0
-0.0023	0	0.0015	0.0082	0
-0.0015	0	-0.0008	0.003	0
-0.0015	0.0022	-0.0008	0	0
-0.0015	0.003	0.0007	-0.0015	0
-0.0008	0.0052	-0.0015	-0.0008	0
-0.0023	0.0052	-0.0023	0.0015	0
-0.0046	0.0015	-0.0015	0.0015	0
-0.0015	0.0037	-0.0008	0.0015	0
-0.0015	0.0007	-0.0008	0.0015	0
-0.0015	-0.0038	-0.0015	0.003	0
-0.0023	-0.012	-0.0023	0.0022	0
-0.0015	-0.0143	-0.0038	0.003	0
-0.0008	-0.0053	-0.0038	0.0045	0
-0.0015	-0.0046	-0.003	0.0045	0
-0.0038	0.0015	-0.0015	0.003	0
-0.003	0.0067	0	0.0015	0
-0.0015	0.0187	0	0.0022	0
-0.0023	0.033	-0.0008	0.0007	0
-0.0023	0.0217	-0.0015	0	0
-0.0008	0.0127	-0.0008	0.0007	0
-0.0008	0.0232	-0.0015	0.003	0
-0.0008	0.0142	-0.0008	0.0022	0
-0.0015	0.006	0.0022	-0.0008	0
-0.0015	0.0135	0.0007	-0.0023	0
-0.0023	-0.0068	0	-0.0075	0
-0.0038	-0.0346	0	-0.0135	0
-0.0038	-0.0293	0.0007	-0.012	0.1
-0.0023	-0.0181	-0.0015	-0.006	0.1
-0.0015	-0.0046	-0.003	-0.0008	0.1
-0.003	0.0195	-0.0008	0.009	0.1
-0.0008	0.0337	-0.0008	0.018	0.1
-0.0015	0.0352	0	0.027	0.1
-0.0015	0.0367	-0.0008	0.0292	0.1
-0.0008	0.024	0	0.0127	0.1
-0.0008	0	0.0007	0	0.1
-0.0015	-0.0068	0.003	-0.0023	0.1
-0.003	-0.0105	0.0015	-0.0053	0.1
-0.003	-0.012	-0.0008	-0.0053	0.1
-0.0015	-0.012	-0.0008	-0.0038	0.1
-0.0008	-0.0143	-0.0008	-0.0053	0.1
-0.003	-0.0128	0.0007	-0.0068	0.1
-0.0023	-0.0128	0.0015	-0.0068	0.1
-0.0015	-0.012	0.0015	-0.006	0.1
-0.0015	-0.0105	-0.0008	-0.0068	0.1
-0.0008	-0.0075	-0.0015	-0.0046	0.1
-0.0023	-0.0068	0.0015	-0.0015	0.1
-0.0023	-0.0091	0.0015	-0.003	0.1
-0.003	-0.012	0.0015	-0.0038	0.1
-0.003	-0.012	0.0015	-0.0046	0.1
-0.0023	-0.0128	0.0015	-0.0046	0.1
-0.0023	-0.012	0.0022	-0.006	0.1
-0.0023	-0.0105	0.003	-0.0068	0.1
-0.0015	-0.0068	0.0007	-0.0053	0.1
0	-0.0023	0.0007	-0.006	0.1
-0.0023	-0.003	0.0015	-0.0038	0.2
-0.0015	-0.0008	0.0007	-0.0015	0.2
-0.0008	-0.0015	-0.0015	-0.0053	0.2
-0.0015	-0.0023	-0.0015	-0.0046	0.2
-0.003	0.0007	-0.0015	0.0007	0.2
-0.003	-0.0015	-0.0015	0.003	0.2
-0.0023	-0.0046	-0.0008	0.0007	0.2
-0.003	-0.012	0.0007	-0.003	0.2
-0.003	-0.0203	0.0022	-0.0083	0.2
-0.0015	-0.03	0	-0.012	0.2
-0.0008	-0.0533	0.0015	-0.0113	0.3
-0.0008	-0.066	0.0015	-0.0091	0.3
-0.0023	-0.0315	-0.0008	-0.0038	0.3
-0.003	-0.0091	-0.0015	0.0015	0.3
-0.003	-0.0143	-0.003	0.0112	0.3
-0.0015	0.0307	-0.0008	0.0165	0.3
-0.003	0.108	-0.0008	0.012	0.3
-0.0008	0.1297	0	0.0112	0.3
0.0007	0.0577	0.0007	0.0157	0.3
-0.0008	0	-0.0015	0.009	0.3
-0.0015	0.0412	-0.003	0.012	0.3
-0.0008	0.081	-0.0008	0.0217	0.3
-0.0008	0.069	-0.0008	0.0247	0.4
0	0.0277	0	0.0195	0.4
0.0007	0.0045	0.0007	0.0067	0.4
-0.0008	-0.0091	-0.0015	-0.0015	0.4
-0.0008	-0.0315	-0.0023	-0.0068	0.4
0	-0.0278	-0.0008	-0.0083	0.4
-0.0008	-0.0315	-0.0008	-0.0105	0.4
-0.0015	-0.0263	-0.0008	-0.0113	0.4
-0.0015	-0.021	-0.0023	-0.012	0.4
-0.0008	-0.0203	-0.0038	-0.0143	0.4
0	-0.015	-0.0015	-0.0128	0.4
-0.0008	-0.015	0.0007	-0.012	0.4
-0.0023	-0.0105	0.0015	-0.0113	0.4
-0.0008	-0.0128	0.0015	-0.0091	0.4
-0.0008	-0.012	0.0015	-0.006	0.4
-0.0008	-0.0091	0.0007	-0.0053	0.4
-0.0008	-0.0083	0.0007	-0.0053	0.4
-0.0015	-0.0068	0	-0.0038	0.4
-0.003	-0.0038	-0.0023	0.0037	0.4
-0.0046	-0.0038	-0.0023	0.006	0.4
-0.0053	-0.0091	-0.0008	0.006	0.4
-0.0046	-0.0091	-0.003	0.009	0.4
-0.0023	-0.0083	-0.0038	0.0045	0.4
-0.003	-0.0128	-0.0038	-0.0046	0.5
-0.0008	-0.0361	-0.0038	-0.0195	0.5
-0.0008	-0.0405	-0.003	-0.027	0.5
-0.0015	-0.0225	-0.0015	-0.024	0.5
0.0007	-0.0368	0	-0.0158	0.5
0	-0.0225	0.0015	-0.0053	0.5
-0.0008	0.0127	0.003	0.0007	0.5
-0.0008	0.0555	0.0007	0.0105	0.5
-0.003	0.0712	0	0.0172	0.5
-0.0046	0.0082	0.0015	0.0142	0.5
-0.0015	-0.0188	0.0007	0.0097	0.6
-0.0015	-0.0158	0.0007	0.0052	0.6
-0.0015	-0.0285	0.0015	-0.003	0.6
-0.0008	-0.0308	0.0037	-0.0128	0.6
-0.003	-0.033	0.0015	-0.0181	0.6
-0.0053	-0.0248	-0.0008	-0.0158	0.6
-0.0046	-0.0113	0.0007	-0.0105	0.6
-0.0046	-0.0158	0	-0.0015	0.6
-0.0046	-0.0263	0.0007	0.0075	0.6
-0.0046	-0.0218	0.0022	0.0195	0.6
-0.0053	-0.0181	0.0015	0.0195	0.6
-0.003	-0.0098	0	0.0075	0.6
0.0007	-0.0053	-0.0008	0.0015	0.6
0.0007	0.0007	0	-0.0046	0.6
0	0.0217	0.0007	-0.0083	0.6
0.0015	0.036	0.0015	-0.0091	0.6
0.0015	0.0225	0.0007	-0.0038	0.6
0	0.0127	0.0015	-0.0008	0.7
-0.0008	0.0232	-0.0008	-0.0083	0.7
-0.0008	0.0195	-0.0015	-0.012	0.7
-0.0015	0.0097	-0.0008	-0.006	0.7
-0.0015	0.0082	0	0.0052	0.7
0.0007	0.015	0.0007	0.0105	0.7
0.0015	0.015	0.0007	0.009	0.7
0.0015	0.0097	-0.0015	0.009	0.7
0.0022	0.0135	-0.0023	0.015	0.7
0.0007	0.0255	0.0015	0.0157	0.7
0.0007	0.0225	0.0022	0.0052	0.7
-0.0015	0.0075	0.0015	-0.0008	0.7
-0.003	0.0045	0.0022	-0.0015	0.7
-0.0023	-0.0083	0.0022	-0.0075	0.8
-0.0023	-0.0128	0.0015	-0.0128	0.8
-0.0008	-0.0091	0.0015	-0.015	0.8
-0.0008	-0.0181	0.0015	-0.0113	0.8
-0.0008	-0.0203	0.0015	-0.0038	0.8
-0.0008	-0.0068	0.0022	0.0015	0.8
-0.0008	0.033	0.003	0.0135	0.8
0	0.0517	0.0022	0.018	0.8
0.0007	0.0195	0.0022	0.0105	0.8
0.0007	0.0307	0.0007	0.0052	0.8
-0.0008	0.057	0	0.003	0.9
-0.0015	0.0142	-0.0008	-0.0046	0.9
-0.0008	-0.0023	-0.0008	-0.0083	0.9
-0.003	-0.0023	0.0007	-0.0075	0.9
-0.003	-0.0188	0.0007	-0.0068	0.9
-0.0015	-0.0053	0.0007	0.0052	0.9
-0.003	0.0127	0.0015	0.0075	0.9
-0.0023	0.0037	0	-0.0046	0.9
-0.003	-0.0181	-0.0015	-0.006	0.9
-0.0053	0.0075	0	0	0.9
-0.0053	0.0367	0.003	0.0067	0.9
-0.003	0.033	0.0015	0.0082	0.9
-0.003	0.0142	-0.0008	0.0007	1
-0.0046	-0.0015	-0.003	-0.006	1
-0.0046	-0.0083	-0.0038	-0.0068	1
-0.0046	-0.012	-0.003	-0.0053	1
-0.0046	-0.0105	-0.0046	-0.0038	1
-0.006	-0.012	-0.0046	-0.0023	1
-0.0053	-0.0105	-0.0015	-0.0015	1
-0.0038	-0.0181	-0.0008	-0.003	1
-0.0015	-0.0218	0	-0.0053	1
-0.0015	-0.0143	0.0007	-0.0068	1.1
-0.0023	-0.0128	0.0007	-0.0083	1.1
-0.0015	-0.0091	0.0015	-0.0068	1.1
-0.0008	-0.006	0.0022	-0.0046	1.1
-0.0008	-0.003	0.0015	-0.0046	1.1
-0.0015	-0.0038	0.0015	-0.0068	1.1
-0.0023	-0.0046	0.0022	-0.0046	1.1
0.0007	-0.0023	0	-0.0023	1.1
0.0015	-0.0053	-0.0008	-0.0046	1.1
-0.0008	-0.0113	-0.0008	-0.0015	1.2
-0.0015	-0.012	-0.0015	0.0037	1.2
-0.0008	-0.0143	-0.0015	0.0045	1.2
0	-0.0256	-0.003	-0.0046	1.2
-0.0015	-0.0368	-0.0046	-0.0105	1.2
-0.0023	-0.048	-0.003	-0.015	1.2
-0.0008	-0.0443	-0.0023	-0.0113	1.2
-0.0015	-0.012	-0.0008	-0.0023	1.2
-0.0008	0.0277	0	0.0015	1.2
-0.0015	0.0232	0.0015	0.009	1.2
-0.0023	0.0022	0.003	0.0172	1.3
-0.0008	0.0187	0.003	0.0217	1.3
-0.003	0.039	0.003	0.0157	1.3
-0.003	0.027	0.0015	0.0082	1.3
-0.0015	0.0172	0.003	0.0067	1.3
-0.0023	0.066	0.0037	0.0112	1.3
-0.0015	0.1005	0.003	0.0105	1.3
-0.0008	0.0405	0.0007	0.0052	1.3
-0.0015	-0.0105	-0.0023	0	1.3
-0.0008	-0.012	-0.0008	-0.0075	1.3
-0.0008	-0.0091	-0.0008	-0.0158	1.3
0.0007	0.0022	0.0015	-0.024	1.3
0.0015	-0.0195	0.003	-0.0173	1.3
-0.0015	-0.0346	0	-0.0098	1.3
-0.003	-0.027	-0.0008	-0.006	1.3
-0.003	-0.0256	-0.0015	0.0015	1.4
-0.0038	-0.0195	-0.0008	0.0022	1.4
-0.003	-0.0278	-0.0008	-0.0008	1.4
-0.0015	-0.027	-0.0008	-0.003	1.4
-0.0015	-0.0195	-0.0008	-0.0023	1.4
-0.003	-0.0165	0	-0.0038	1.4
-0.003	-0.0091	0.0007	-0.0015	1.4
-0.0015	-0.0015	-0.0008	-0.0008	1.4
-0.0023	0.009	-0.0015	0.0007	1.4
-0.003	0.0007	-0.0008	0.0022	1.4
-0.003	-0.0068	-0.0038	0.0015	1.5
-0.003	-0.0038	-0.0023	0.003	1.5
-0.0015	-0.0173	-0.0008	-0.0008	1.5
-0.0008	-0.0225	-0.0015	-0.0015	1.5
-0.003	-0.0068	-0.003	-0.0008	1.5
-0.003	0.0075	-0.0038	0	1.5
-0.003	0.0142	-0.003	0.0007	1.5
-0.0015	-0.0015	-0.0023	0.0007	1.5
-0.0015	-0.003	-0.0008	0.0007	1.5
-0.0023	0.0052	-0.0008	-0.003	1.5
-0.0023	-0.0046	0.0015	-0.0046	1.6
-0.003	0.0015	0	-0.003	1.6
-0.003	-0.0015	-0.0008	0	1.6
-0.003	-0.003	0.0022	-0.0008	1.6
-0.003	-0.0053	0.0022	-0.0068	1.6
-0.003	-0.0105	0.003	-0.012	1.6
-0.0008	-0.0075	0.0015	-0.0128	1.6
0.0007	-0.0091	0.0015	-0.0053	1.6
-0.0015	-0.006	0.0022	0.0045	1.6
-0.0023	0.0007	0.0022	0.0127	1.7
-0.003	0.0232	0.0037	0.0225	1.7
-0.0038	0.0405	0.003	0.0277	1.7
-0.0038	0.036	0.0022	0.0225	1.7
-0.0008	0.024	0.003	0.0142	1.7
-0.0008	0.0255	0.0015	0.0082	1.7
-0.0008	0.0157	-0.0008	0.0015	1.7
-0.003	-0.0083	-0.003	-0.003	1.7
-0.003	-0.0068	-0.0038	-0.0053	1.8
-0.0008	-0.0083	-0.0015	-0.0105	1.8
0	-0.0053	-0.0015	-0.0105	1.8
0.0015	-0.003	-0.0008	-0.0083	1.8
-0.0008	-0.0015	-0.0015	-0.0083	1.8
-0.0008	0.0075	-0.0038	-0.006	1.8
0	0.0097	-0.0008	-0.0053	1.8
-0.0015	0.0045	-0.0008	-0.0046	1.8
0	-0.006	-0.0008	-0.0046	1.8
0.0007	-0.0113	-0.0015	-0.0008	1.8
0.0007	-0.0158	-0.003	0.0015	1.8
-0.0008	-0.0105	0	-0.0008	1.8
-0.0023	-0.0075	0.0007	-0.003	1.9
-0.0023	-0.0053	0.0015	-0.0038	1.9
-0.0015	-0.0046	0.0015	-0.0046	1.9
-0.0023	-0.0068	-0.0008	-0.0038	1.9
-0.0015	-0.0053	-0.0015	-0.0053	1.9
0	-0.0068	-0.003	-0.0046	1.9
-0.0023	-0.0046	-0.0023	-0.0046	1.9
-0.0046	-0.0015	-0.0023	-0.0053	2
-0.0023	-0.0008	0.0007	-0.0053	2
-0.0015	-0.0008	0.0015	-0.0046	2
-0.003	0.0015	0.0007	-0.003	2
-0.0008	0.0037	0.0015	-0.003	2
-0.0015	0.003	0.003	-0.0015	2
-0.0008	0.0045	0.003	-0.0023	2.1
0.0007	0	0.0007	-0.0053	2.1
0	-0.012	0.0007	-0.0046	2.1
0	-0.024	0.0015	-0.0038	2.1
-0.0008	-0.0248	0	-0.003	2.1
-0.0015	-0.0158	-0.0015	-0.0015	2.1
-0.0015	-0.0083	-0.0015	-0.0015	2.1
-0.0008	-0.0008	-0.0008	0.0022	2.2
-0.0008	0.0255	0	0.009	2.2
-0.0008	0.0675	0.0007	0.009	2.2
-0.0008	0.069	0.0015	0.0052	2.2
-0.0008	0.0285	0.0015	0.0067	2.2
-0.0015	0.0045	-0.0008	0.0052	2.2
-0.003	-0.0165	-0.0008	0.0067	2.2
-0.0046	-0.0181	-0.0008	0.006	2.2
-0.0053	-0.0158	-0.003	0.0022	2.2
-0.0023	-0.0165	-0.0015	0.0022	2.2
-0.003	-0.0015	0.0007	0.0007	2.3
-0.003	0.0052	0.0007	-0.003	2.3
-0.0038	0.0217	-0.0008	-0.0053	2.3
-0.0038	0.0202	-0.003	-0.0053	2.3
-0.0015	-0.0023	-0.0008	-0.0068	2.3
-0.0015	-0.0091	0.0015	-0.0053	2.3
-0.0008	-0.0083	0.0015	-0.003	2.3
-0.0015	-0.0053	0.0015	-0.0046	2.4
0	-0.0113	0.0015	-0.0046	2.4
0	-0.015	-0.0008	-0.0038	2.4
-0.0008	-0.0083	-0.0015	-0.0008	2.4
-0.0023	-0.0105	-0.0023	0.003	2.4
-0.0023	-0.0105	-0.003	-0.0008	2.5
-0.0023	-0.0083	-0.0023	-0.0015	2.5
-0.003	-0.0083	-0.0008	-0.003	2.5
-0.0008	-0.0083	-0.0008	-0.0053	2.5
-0.0015	-0.012	0	-0.0075	2.6
-0.003	-0.012	0.0015	-0.0091	2.6
-0.0023	-0.0233	0.0007	-0.0083	2.6
-0.0023	-0.06	0.0022	-0.015	2.6
-0.003	-0.0953	0.003	-0.0195	2.6
-0.003	-0.0773	0.003	-0.0128	2.6
-0.0015	-0.039	0.0037	-0.0046	2.6
-0.0015	-0.0046	0.003	0.0022	2.7
-0.0008	0.0337	0.0015	0.0037	2.7
-0.0015	0.078	0.0007	0.0127	2.7
-0.0008	0.156	0.0007	0.0307	2.7
0.0007	0.1687	0.0015	0.0382	2.8
0	0.0825	0.0015	0.0217	2.8
-0.0015	0.0082	0.0015	0.0082	2.8
-0.0046	-0.0091	0.0007	0.006	2.8
-0.003	-0.0181	-0.0008	-0.0008	2.9
-0.0038	-0.0278	-0.0015	-0.003	2.9
-0.003	-0.024	0	-0.0068	2.9
-0.003	-0.024	0.0015	-0.0143	2.9
-0.0038	-0.024	0.003	-0.0181	3
-0.0008	-0.0263	0.003	-0.015	3
-0.0008	-0.0195	0.0015	-0.003	3
-0.0015	-0.0105	0.0015	0.0007	3.1
-0.0015	-0.0113	0.0015	-0.0015	3.1
-0.0015	-0.0278	0.0022	0.0037	3.1
-0.0008	-0.0308	0.0037	0.012	3.1
-0.0008	-0.0015	0.0007	0.0067	3.1
-0.003	-0.003	-0.0015	0	3.1
-0.0038	-0.006	-0.0008	0.0022	3.2
-0.0038	-0.0068	0.0007	-0.0015	3.2
-0.0038	-0.012	0.0007	-0.0068	3.2
-0.0038	0.0015	0	-0.0053	3.2
-0.0015	0.003	0.0007	-0.0038	3.3
0.0015	-0.0015	-0.0008	-0.0015	3.3
0.0015	-0.006	-0.0008	-0.0023	3.3
0.0007	-0.0105	-0.003	-0.0023	3.3
0	-0.0128	-0.0023	-0.003	3.4
-0.0008	-0.0203	0	-0.0083	3.4
-0.003	-0.024	-0.0015	-0.0105	3.4
-0.0023	-0.0165	-0.0008	-0.0075	3.5
-0.0008	-0.0113	-0.0008	-0.0053	3.5
-0.0015	-0.003	0.0015	-0.0008	3.5
-0.0008	0.0232	0.0022	0.0067	3.5
0.0007	0.0682	0.003	0.0112	3.5
0.003	0.084	0.003	0.015	3.6
0.0015	0.0352	0.0007	0.0097	3.6
0.0022	-0.0091	0.0007	-0.0038	3.6
0.0022	-0.0488	0.0015	-0.012	3.6
0	-0.0638	0.0007	-0.0083	3.6
0.0007	-0.0443	0.0007	-0.0023	3.7
0	-0.0158	0.0007	0.0015	3.7
-0.0008	0.0517	0.0007	0.0067	3.7
0.0007	0.1117	0	0.0142	3.7
-0.0008	0.1072	0.0007	0.0172	3.8
-0.0023	0.0757	0.0007	0.009	3.8
-0.003	0.0502	0.0015	0	3.8
-0.0015	0.0045	0	-0.0015	3.9
-0.003	-0.0181	-0.0008	-0.0015	3.9
-0.0038	-0.0375	-0.0008	-0.0038	3.9
-0.003	-0.0368	-0.0008	-0.0046	4
-0.003	-0.0233	-0.0008	-0.0015	4
-0.0023	-0.0278	-0.003	0.0007	4
-0.0038	-0.0128	-0.0015	-0.0023	4.1
-0.0053	-0.0203	-0.0008	-0.0053	4.1
-0.0046	-0.0128	-0.0015	-0.0075	4.1
-0.003	-0.0068	-0.0023	-0.0053	4.2
-0.003	-0.0083	-0.0015	-0.006	4.2
-0.003	-0.0195	-0.003	-0.0105	4.2
-0.0023	-0.048	-0.003	-0.0091	4.3
-0.0008	-0.054	-0.0008	-0.0083	4.3
-0.0015	-0.0713	-0.0023	-0.0113	4.3
-0.0015	-0.0683	-0.0015	-0.012	4.4
-0.0015	-0.0383	-0.0008	-0.0105	4.4
-0.003	-0.006	-0.0008	-0.0053	4.5
-0.003	0.0292	-0.0023	0.0022	4.5
-0.0015	0.057	-0.0023	0.0135	4.5
0	0.0787	0.0015	0.0232	4.5
-0.0008	0.0795	0.0037	0.0247	4.6
0.0007	0.0352	-0.0008	0.033	4.6
0.0007	0.0157	-0.0015	0.0345	4.6
0	0.0127	-0.0008	0.0217	4.7
0.0007	0	-0.0008	0.0142	4.7
-0.0008	0.003	-0.0008	0.0052	4.8
-0.003	-0.0165	0	-0.0091	4.8
-0.0038	-0.0135	0.0007	-0.0165	4.8
-0.003	-0.003	-0.0008	-0.0188	4.9
-0.0023	-0.0046	0.0015	-0.0158	4.9
-0.0038	-0.012	0.0015	-0.0128	4.9
-0.0053	-0.0203	0.0022	-0.0113	4.9
-0.0046	-0.0203	0.0015	-0.0113	5
-0.0046	-0.0383	-0.0008	-0.0143	5
-0.0053	-0.0323	-0.0008	-0.0128	5
-0.0046	-0.0278	-0.0008	-0.0105	5.1
-0.0038	-0.0203	0	-0.0053	5.1
-0.003	-0.0075	0	-0.0015	5.1
-0.0046	0.0052	0	0.0015	5.2
-0.003	0.0217	0.0007	0.0052	5.2
-0.003	0.0345	-0.0008	0.0067	5.3
-0.003	0.0412	-0.0015	-0.0023	5.3
-0.003	0.009	-0.003	-0.0158	5.3
-0.0008	-0.0038	-0.003	-0.0143	5.3
0.0007	-0.0038	-0.0008	-0.0135	5.4
0.0007	-0.0181	-0.0015	-0.0113	5.4
0	-0.0181	-0.0023	0	5.4
-0.0008	-0.0158	-0.0008	0.0067	5.5
-0.0008	-0.0068	-0.0008	0.0112	5.5
0	-0.0008	0.0007	0.006	5.6
-0.0008	0.0067	-0.0008	-0.0015	5.6
0.0007	0.0105	-0.0023	-0.0068	5.6
0.0007	0.0127	0.0007	-0.0143	5.7
0.0007	0.0127	0.0037	-0.0203	5.7
0.0007	0.0015	0.0045	-0.021	5.7
-0.0015	-0.003	0.0015	-0.0038	5.8
-0.0038	-0.0135	0.003	0.0127	5.8
-0.0015	-0.015	0.0022	0.0285	5.8
-0.0015	-0.0091	0	0.0345	5.8
-0.0038	-0.012	0.0007	0.0277	5.9
-0.0023	-0.003	0.0015	0.0315	5.9
-0.003	0.0015	0.0007	0.0285	5.9
-0.003	0.0045	0.0015	0.0255	6
-0.003	0.027	0.0015	0.024	6
-0.0015	0.0585	0.0037	0.0225	6.1
0.0007	0.042	0.003	0.0202	6.1
0.0015	-0.0053	0.0015	0.0067	6.1
0.003	-0.0143	0.0007	-0.0015	6.2
0.0015	-0.0158	0.0007	-0.0083	6.2
0.0007	-0.0091	0.0015	-0.0128	6.3
0.0015	-0.0068	0.0007	-0.0181	6.3
0.0007	-0.0128	-0.0008	-0.0308	6.3
0	-0.0203	0	-0.0413	6.3
0.0007	-0.0315	-0.0008	-0.0383	6.4
0.0007	-0.0203	-0.0008	-0.0256	6.4
-0.0008	-0.0143	-0.0015	-0.0195	6.4
-0.0008	-0.0098	-0.003	-0.012	6.5
-0.0008	-0.0038	-0.003	-0.0008	6.6
-0.003	0.0105	-0.0015	0.0075	6.6
-0.003	0.0405	-0.0008	0.0082	6.7
-0.0023	0.0397	-0.0008	0.0045	6.7
-0.0015	0.006	-0.0008	-0.0038	6.8
-0.0023	-0.0091	-0.0008	-0.0165	6.8
-0.0023	-0.0083	0.003	-0.033	6.9
-0.0015	-0.0068	0.0037	-0.042	7
0	-0.0015	0.003	-0.0383	7
0	0.0015	0.0037	-0.0278	7.1
-0.0008	0.0045	0.003	-0.0015	7.2
-0.0015	0.0007	-0.0008	0.0367	7.2
-0.0015	0.003	-0.0015	0.06	7.2
-0.003	-0.0015	-0.0015	0.0592	7.3
-0.006	-0.0105	-0.003	0.0532	7.4
-0.006	-0.0098	-0.0015	0.0457	7.4
-0.0038	-0.012	0	0.0307	7.5
-0.003	-0.0105	-0.0015	0.018	7.6
-0.003	-0.0105	-0.0008	0.0045	7.6
-0.0015	-0.006	-0.0015	-0.0023	7.7
-0.0015	0.009	-0.003	-0.003	7.7
-0.003	0.027	-0.0015	0.0015	7.8
-0.0015	0.0172	-0.0008	0.0037	7.9
-0.0038	-0.0105	-0.003	-0.0015	8
-0.003	-0.0158	-0.003	-0.0015	8.1
-0.003	-0.0128	-0.0015	-0.0046	8.1
-0.0023	-0.0091	-0.0038	-0.0203	8.2
-0.0015	-0.0165	-0.0023	-0.0346	8.3
-0.0015	-0.0143	-0.0008	-0.0405	8.4
-0.0008	-0.0165	0	-0.042	8.5
-0.0008	-0.027	0.0015	-0.045	8.5
-0.0015	-0.0293	-0.0008	-0.0563	8.6
-0.0008	-0.0428	-0.003	-0.0691	8.7
0.0007	-0.0443	-0.0015	-0.0728	8.8
-0.0008	-0.0278	-0.0008	-0.0428	8.8
-0.0008	-0.0075	-0.0008	0.0007	8.9
-0.0008	0.0187	0.0007	0.0217	9
-0.0015	0.0322	-0.0015	0.0352	9
0	0.0592	-0.0015	0.0412	9.1
0.0015	0.093	0.0015	0.0577	9.2
0.0007	0.057	0.0007	0.0712	9.3
-0.003	0.0157	-0.0008	0.0615	9.4
-0.0046	0.0165	-0.0015	0.0607	9.5
-0.003	0.0457	0.0022	0.075	9.6
-0.003	0.075	0.0052	0.0817	9.7
-0.003	0.0502	0.0045	0.063	9.8
-0.0008	0.021	0.0037	0.027	9.9
0.0007	-0.0135	0.0015	-0.0053	9.9
0.0007	-0.0248	0.0015	-0.0218	10
-0.0015	-0.0195	0.0022	-0.0353	10.1
0	-0.0353	0	-0.0443	10.2
0	-0.0315	0	-0.045	10.3
-0.0015	-0.027	0.0015	-0.0383	10.3
-0.0015	-0.0158	0.0007	-0.033	10.4
-0.0015	-0.0135	0.003	-0.039	10.5
-0.0015	-0.012	0.0015	-0.0398	10.6
-0.0015	-0.0083	0.0007	-0.039	10.7
-0.0023	-0.0083	0.0015	-0.0315	10.8
-0.003	-0.0038	0.0015	-0.0293	10.9
-0.0046	-0.0038	0.0015	-0.0158	11
-0.0046	-0.006	0.0015	-0.0046	11.1
-0.0038	-0.0128	0.003	-0.0015	11.2
-0.0015	-0.012	0.0022	0.0067	11.3
-0.0008	-0.0225	0.0007	0.0112	11.5
-0.0023	-0.03	0.0007	0.0202	11.6
-0.0023	-0.027	0	0.0232	11.7
-0.003	-0.0195	0	0.0142	11.8
-0.0038	0.0022	0.0007	-0.0008	11.9
-0.003	0.0157	0	-0.012	12.1
-0.0015	0.015	0	-0.0181	12.1
-0.003	0.003	0	-0.0181	12.3
-0.0046	-0.0083	-0.0008	-0.0083	12.4
-0.0046	-0.0046	-0.0008	0.003	12.5
-0.0023	-0.0015	-0.0015	0.009	12.6
-0.003	-0.0008	-0.003	0.0127	12.7
-0.0015	0.0007	-0.0046	0.0187	12.8
-0.0038	-0.0015	-0.0075	0.0247	13
-0.003	-0.003	-0.0083	0.0202	13
0	-0.006	-0.0053	0.0052	13.2
0	-0.0075	-0.003	-0.0128	13.3
0.0007	-0.0105	-0.0015	-0.0248	13.4
0	-0.0083	0.0007	-0.0256	13.5
0	0	0.0015	-0.0225	13.6
-0.0008	-0.0015	0.0022	-0.0195	13.8
-0.0008	-0.012	0.0045	-0.0203	13.9
0.0007	-0.0188	0.0045	-0.0165	14
0.0015	-0.0173	0.0015	-0.0083	14.1
-0.0008	-0.0075	0.0007	-0.0023	14.2
0	-0.0046	0.0037	0.0195	14.4
0	-0.0068	0.003	0.039	14.5
-0.0023	0.0045	0.003	0.0412	14.6
-0.0008	0.0367	0.0045	0.039	14.7
-0.003	0.1095	0.0045	0.0225	14.8
-0.003	0.1072	0.0015	0.0037	14.9
-0.0046	0.0217	0.0007	0.0015	15.1
-0.0053	0.0022	0.0007	0.009	15.2
-0.0046	-0.0015	0.0015	0.0097	15.3
-0.0046	-0.0046	0.0022	0.0127	15.4
-0.0015	-0.0008	0.0015	0.0127	15.5
-0.0008	-0.0098	0.0015	0.003	15.6
0.0007	-0.0075	-0.0015	-0.0008	15.7
-0.0008	-0.0195	-0.0008	-0.0143	15.9
-0.0015	-0.0181	-0.0008	-0.0308	16
-0.0008	-0.0173	-0.0015	-0.0346	16.1
-0.0046	-0.0195	-0.003	-0.0405	16.2
-0.0046	-0.015	-0.0046	-0.0405	16.3
-0.0023	-0.0008	-0.003	-0.039	16.4
-0.003	0.0367	-0.0053	-0.0375	16.6
-0.0038	0.0427	-0.0038	-0.0233	16.6
-0.0053	0.0127	0	-0.0128	16.7
-0.0053	-0.0023	-0.003	-0.0038	16.9
-0.0053	-0.0128	-0.0053	-0.0053	17
-0.0046	-0.0218	-0.0053	-0.0173	17.1
-0.0046	-0.0091	-0.0046	-0.0278	17.2
-0.0023	-0.0068	-0.0015	-0.0346	17.3
-0.0015	-0.003	0.0007	-0.042	17.4
-0.0015	0.0007	0.0037	-0.045	17.5
0.0007	0.0007	0.0045	-0.0263	17.7
0.0015	0.0067	0.0052	0.0022	17.8
0.0015	0.0007	0.0045	0.0382	17.9
-0.0015	-0.0046	0.0052	0.0765	18
-0.0008	-0.0105	0.0067	0.1117	18.1
0.0007	-0.0158	0.0052	0.1312	18.2
-0.0008	-0.0165	0.006	0.132	18.3
0.0007	-0.0165	0.0052	0.0975	18.4
0.0007	-0.0233	0.003	0.0367	18.5
0	-0.0315	0.0015	0.0007	18.6
-0.0008	-0.0278	-0.0015	-0.0143	18.7
-0.003	-0.0233	-0.0023	-0.015	18.9
-0.0046	-0.0203	-0.0008	-0.0135	18.9
-0.0053	-0.015	-0.0023	-0.0315	19
-0.0023	-0.0053	-0.003	-0.0511	19.2
-0.0015	0.003	-0.0046	-0.0645	19.3
-0.0015	0.0082	-0.0053	-0.0645	19.3
-0.0015	0.0127	-0.0038	-0.057	19.5
-0.0008	0.018	-0.0015	-0.0518	19.6
0.0015	0.0202	-0.0023	-0.0503	19.7
0.0015	0.0195	-0.0015	-0.0518	19.8
0.0007	0.0195	-0.0015	-0.0368	19.9
-0.0008	0.0142	-0.0053	-0.0158	20
-0.0015	0.009	-0.0068	0.0127	20.1
-0.003	0.0082	-0.0053	0.0427	20.2
-0.003	0.0045	-0.0046	0.0577	20.3
-0.0038	0.006	-0.0015	0.0472	20.4
-0.0046	0.0075	0	0.0232	20.6
-0.003	0.0105	0.0007	0.0052	20.7
-0.0015	0.0165	0.0015	-0.0083	20.8
-0.0008	0.0157	0	-0.0143	20.9
-0.0023	0.009	-0.0008	-0.0083	21
-0.0053	-0.006	-0.0015	0.012	21.1
-0.0038	-0.0218	-0.0008	0.012	21.2
-0.0023	-0.021	-0.0008	-0.0225	21.3
-0.0015	-0.0091	0	-0.0563	21.4
-0.0008	0.0022	0.0015	-0.078	21.5
0	0.012	0.0015	-0.0773	21.6
-0.0023	0.0202	0	-0.0555	21.8
-0.0053	0.0465	-0.0053	-0.0203	21.9
-0.006	0.0825	-0.0053	0.0187	22
-0.006	0.048	-0.0015	0.048	22.1
-0.0068	-0.0046	0.0007	0.0802	22.2
-0.0068	-0.0188	-0.0015	0.1057	22.4
-0.0083	-0.0495	-0.0015	0.1365	22.5
-0.0091	-0.0465	-0.0023	0.1635	22.6
-0.0068	-0.0413	-0.003	0.1447	22.8
-0.0046	-0.045	0.0015	0.0885	22.9
-0.0015	-0.0293	0.0022	0.0262	23
0.0015	-0.0368	0.0007	-0.0165	23.2
0.003	-0.0315	0.0007	-0.0443	23.3
0.003	-0.0218	0.0007	-0.057	23.4
0.0015	-0.0135	0	-0.0668	23.5
0.0015	-0.006	0.003	-0.0833	23.7
0.003	-0.0023	0.003	-0.0863	23.8
0.0037	0.015	0.0007	-0.0825	23.9
0.0045	0.051	0.0015	-0.0743	24.1
0.0052	0.0502	0.003	-0.054	24.2
0.003	0.018	0.0045	-0.0256	24.3
0.003	0.0277	0.0045	-0.0008	24.5
0.0045	0.036	0.0037	0.027	24.6
0.0007	0.051	0.0015	0.0495	24.7
0	0.042	-0.0015	0.0765	24.9
-0.0015	-0.0008	-0.0038	0.0982	25
-0.003	-0.0128	-0.0038	0.0757	25.2
-0.0038	-0.0248	0	0.0345	25.3
-0.0038	-0.0165	0.0015	0.0052	25.5
-0.0023	0.0052	0.003	-0.0158	25.6
-0.0015	0.0067	0.0045	-0.0293	25.8
-0.0008	-0.0046	0.0045	-0.0458	25.9
-0.0023	-0.012	0.0015	-0.0645	26.1
-0.0015	-0.0105	0.0015	-0.0735	26.2
-0.0008	-0.0128	0.0007	-0.0788	26.4
-0.0008	-0.0068	-0.0038	-0.0803	26.5
-0.0008	-0.0015	-0.0046	-0.081	26.6
-0.0008	0.0037	-0.0053	-0.0713	26.8
0	0.0045	-0.003	-0.0533	27
0.0007	-0.0008	-0.003	-0.0473	27.1
0.003	0.0022	0.0007	-0.0428	27.2
0.003	-0.0008	0.003	-0.0323	27.4
0.0022	-0.006	0.0007	-0.0091	27.5
0.0015	-0.0135	0.0022	0.0232	27.7
0.0022	-0.0225	0.0015	0.036	27.9
0.0015	-0.0158	0.003	0.0412	28
-0.0015	-0.0113	0	0.0727	28.2
-0.0008	-0.0083	0.0007	0.1342	28.3
-0.003	0.027	0.0015	0.1672	28.5
-0.0046	0.036	-0.0008	0.1387	28.7
-0.003	-0.0135	0.0015	0.1117	28.9
-0.0053	-0.0338	0.0022	0.0937	29.1
-0.0075	-0.0443	0.0007	0.0487	29.2
-0.0083	-0.0563	-0.0008	0.018	29.4
-0.0091	-0.0375	0	0.0127	29.6
-0.0075	-0.0443	-0.003	-0.0105	29.7
-0.0068	-0.0473	-0.003	-0.0346	29.9
-0.0075	-0.0338	-0.0046	-0.0473	30.1
-0.0075	0.003	-0.003	-0.0585	30.3
-0.0075	0.0405	-0.0053	-0.0645	30.5
-0.0053	0.0127	-0.0083	-0.0713	30.6
-0.003	-0.0068	-0.0046	-0.0721	30.8
-0.003	-0.006	-0.0053	-0.0735	31
-0.0015	-0.0128	-0.0038	-0.0825	31.1
0.0007	-0.0008	-0.0015	-0.0885	31.3
0.003	0.015	0	-0.0878	31.5
0.003	0.0345	0.0022	-0.0863	31.7
0.0022	0.0465	0.0007	-0.0743	31.9
0.003	0.051	0.0007	-0.0578	32
0.0045	0.0525	0.0015	-0.0323	32.2
0.003	0.0397	0.0052	0.0075	32.4
0.0037	0.036	0.0082	0.039	32.6
0.006	0.0292	0.009	0.0487	32.8
0.0045	0.0165	0.0082	0.0532	33
0.0007	0.0067	0.009	0.063	33.2
-0.0008	-0.0083	0.0105	0.0675	33.3
-0.0008	-0.0143	0.009	0.0645	33.5
-0.003	-0.0128	0.0082	0.06	33.7
-0.0046	-0.0165	0.0067	0.0487	33.9
-0.0053	-0.0218	0.0015	0.0247	34.1
-0.006	-0.0233	-0.0015	-0.0068	34.2
-0.0053	-0.024	-0.0046	-0.0195	34.4
-0.0053	-0.027	-0.006	-0.0233	34.6
-0.0053	-0.027	-0.0038	-0.024	34.8
-0.0053	-0.024	-0.0053	-0.0278	35
-0.0046	-0.0195	-0.0091	-0.045	35.1
-0.0038	-0.015	-0.0105	-0.0578	35.4
-0.0038	-0.0135	-0.0113	-0.0555	35.5
-0.0046	-0.0143	-0.0083	-0.0518	35.7
-0.0038	-0.012	-0.006	-0.0458	35.9
-0.0008	-0.006	-0.003	-0.039	36.1
0.0007	-0.0008	-0.0015	-0.0375	36.3
0	0.0052	-0.003	-0.0368	36.5
0	0.009	-0.003	-0.0361	36.7
-0.0008	0.012	0.0007	-0.0203	36.9
0	0.0187	0.0052	-0.0068	37
0.003	0.0225	0.0067	-0.0046	37.3
0.0022	0.0247	0.0082	-0.0023	37.4
0.0007	0.0307	0.0097	0.0082	37.6
0.0015	0.024	0.006	0.033	37.8
-0.0008	0.006	0.0067	0.0555	38
-0.0015	-0.0128	0.0067	0.0817	38.2
-0.003	-0.0181	0.0067	0.1072	38.4
-0.0046	-0.0128	0.0045	0.0975	38.6
-0.0038	-0.0105	0	0.063	38.8
-0.0038	-0.0053	-0.0008	0.042	39
-0.0046	-0.0083	0	0.0277	39.2
-0.003	-0.0083	-0.0015	0.009	39.4
-0.0046	0.0015	-0.003	0.009	39.6
-0.0053	0.0112	-0.003	0.0052	39.8
-0.0023	0.0135	-0.003	-0.0046	40
-0.0008	0.0127	-0.0038	-0.0053	40.2
-0.0023	0.0097	-0.003	-0.0091	40.4
-0.0023	0.0052	-0.003	-0.012	40.6
-0.003	0.0052	-0.0023	-0.0083	40.9
-0.0015	0.0067	-0.0023	-0.0008	41
-0.0008	0.0067	-0.0008	0.012	41.3
0.0007	0.0015	-0.0015	0.0217	41.4
0.0015	-0.0053	-0.0015	0.0285	41.7
0.0015	-0.0046	0	0.0292	41.9
0.003	0.0067	0.0015	0.0217	42.1
0.003	0.0165	0.0052	0.009	42.3
0.0022	0.0157	0.006	0.0015	42.5
0	0.0082	0.0075	-0.003	42.7
-0.0023	-0.0038	0.003	-0.0083	42.9
-0.0046	-0.0105	-0.0008	-0.0143	43.1
-0.0046	-0.0128	-0.0015	-0.0225	43.3
-0.0023	-0.012	-0.003	-0.0278	43.5
-0.003	-0.0091	-0.0023	-0.0285	43.7
-0.0023	-0.0053	-0.0015	-0.0165	43.9
-0.0015	-0.0046	0	-0.0113	44.1
-0.0023	-0.0008	0.003	-0.0015	44.2
-0.0015	0.003	0.0015	0.0165	44.5
-0.003	-0.0053	0.0007	0.0247	44.6
-0.003	-0.0195	0	0.0352	44.8
-0.0053	-0.021	-0.0015	0.0555	45
-0.0068	0.0067	-0.0046	0.0727	45.2
-0.006	0.039	-0.0053	0.0645	45.4
-0.003	0.0097	-0.0023	0.045	45.6
0.0007	-0.0075	-0.0008	0.0232	45.8
0.0007	0.0277	0.0015	0.0007	46
-0.0008	-0.0015	0.003	-0.006	46.2
0.0015	-0.0165	0.0052	0.0015	46.4
0.003	0	0.0067	0.0097	46.6
0.0015	-0.0053	0.0045	0.0142	46.8
0.0015	0.0105	0.0045	0.0067	46.9
0.0007	0.0007	0.0037	-0.0091	47.2
-0.0008	-0.006	-0.0008	-0.0068	47.3
-0.003	-0.0113	-0.0015	-0.0046	47.5
-0.0053	-0.0278	-0.0015	-0.0083	47.7
-0.0053	-0.03	-0.003	-0.0128	47.9
-0.006	-0.0353	-0.003	-0.024	48.1
-0.0068	-0.045	-0.003	-0.0308	48.3
-0.0046	-0.0263	-0.0008	-0.027	48.5
-0.0038	-0.0023	0.0015	-0.0203	48.6
-0.0015	-0.0143	0.0015	-0.0233	48.8
-0.0008	-0.0158	0.0015	-0.024	49
0.0007	-0.003	0.0007	-0.0285	49.2
0.0007	0.0037	0.0007	-0.0436	49.4
0.0015	0.0112	0	-0.0518	49.6
0.0045	0.0105	-0.0023	-0.063	49.8
0.003	0.0142	0	-0.075	50
0.0052	0.012	0.003	-0.0765	50.2
0.0052	0.0105	0.003	-0.0525	50.4
0.0045	0.009	0.0015	-0.0023	50.5
0.0007	0.006	0.0037	0.0487	50.7
-0.0015	0.003	0.0045	0.0892	50.9
0	0.0052	0.0067	0.1102	51.1
0.0007	0.0187	0.0105	0.093	51.3
0.0007	0.0255	0.0105	0.048	51.5
-0.0015	0.0277	0.009	0.0165	51.7
-0.0038	0.024	0.0052	-0.0083	51.9
-0.0068	0.009	0.003	-0.0233	52.1
-0.0068	0.0037	0.0007	-0.0113	52.2
-0.0083	0.0105	-0.0015	0.021	52.4
-0.0091	0.0022	-0.0053	0.054	52.6
-0.0091	-0.0165	-0.0053	0.0705	52.8
-0.0091	-0.0203	-0.0068	0.0727	53
-0.0083	-0.027	-0.0068	0.0412	53.2
-0.0075	-0.0315	-0.0068	0	53.4
-0.0053	-0.027	-0.0083	-0.027	53.5
-0.003	-0.0128	-0.0075	-0.0413	53.8
-0.0008	0.024	-0.0046	-0.0488	54
0.0007	0.0345	-0.0023	-0.063	54.1
0.0007	0.0045	-0.0046	-0.0743	54.3
0.0007	-0.012	-0.003	-0.0863	54.5
0.0015	-0.0105	-0.0015	-0.09	54.7
0.0022	-0.0015	-0.0008	-0.0893	54.9
0.003	0.009	0.0015	-0.0765	55
0.003	0.0082	-0.0015	-0.0585	55.2
0.0007	0.0127	-0.003	-0.0323	55.3
0.0007	0.0232	-0.0008	0.0015	55.5
0.0007	0.0285	0.003	0.006	55.7
0.0007	0.0457	0.0052	-0.0105	55.9
-0.0008	0.0547	0.003	0.0067	56.1
-0.003	0.0217	0.0022	0.0607	56.2
-0.003	0.0127	0.006	0.123	56.4
-0.0015	0.0045	0.0052	0.1597	56.6
-0.0008	-0.0181	0.0045	0.1477	56.8
-0.0046	-0.0195	0.0007	0.111	56.9
-0.0053	-0.0188	-0.0015	0.0495	57.1
-0.003	-0.0113	-0.0046	-0.0053	57.3
-0.0038	-0.0203	-0.0053	-0.0361	57.5
-0.0046	-0.0256	-0.0068	-0.0503	57.6
-0.0038	-0.024	-0.0068	-0.0533	57.8
-0.0046	-0.0203	-0.0046	-0.0585	58
-0.0053	-0.0128	-0.0046	-0.0563	58.1
-0.0038	-0.0203	0.0015	-0.057	58.3
-0.0038	-0.0218	0.0045	-0.0465	58.5
-0.0023	-0.024	0.0052	-0.024	58.6
-0.0008	-0.03	0.0075	-0.0053	58.8
0.0022	-0.0218	0.0082	-0.0075	59
0.0022	0.0067	0.0052	-0.0195	59.1
0	0.0112	0.0037	-0.0218	59.3
-0.0008	-0.003	0.0015	-0.027	59.5
-0.0038	-0.0015	0.0007	-0.0278	59.6
-0.0023	-0.0053	0	-0.0315	59.8
0	-0.0046	-0.0023	-0.0308	60
-0.0008	-0.0008	-0.0023	-0.0203	60.2
0.0007	0.0135	-0.0015	-0.0008	60.3
0.0007	0.0405	0.0007	0.0195	60.5
0.0007	0.0697	0	0.0352	60.7
0.003	0.0945	-0.003	0.0555	60.8
0.0015	0.0795	-0.006	0.045	61
-0.0008	0.0277	-0.0075	0.0142	61.1
-0.0015	0.0105	-0.0068	0.009	61.3
-0.0046	-0.0075	-0.0068	0.0075	61.4
-0.0046	-0.0233	-0.003	0	61.6
-0.003	-0.024	-0.0008	-0.0068	61.7
-0.0008	-0.0346	0.0007	-0.0173	61.9
0.0007	-0.027	0	-0.0278	62.1
-0.0008	-0.0248	-0.0015	-0.0368	62.2
-0.0015	-0.0195	-0.0008	-0.0383	62.4
-0.0023	-0.0023	-0.0008	-0.0293	62.5
-0.0038	0.0142	-0.0008	-0.0135	62.6
-0.0046	0.0172	0.0015	-0.0008	62.8
-0.0008	0.0075	0.003	0.0127	63
0	0.0082	0.0037	0.033	63.1
-0.0015	0.0037	0.0045	0.0562	63.3
0.0015	0.0067	0.0037	0.0735	63.4
0.0015	0.003	0.0045	0.0562	63.6
0.0015	-0.012	0.003	0.024	63.7
-0.0008	-0.021	0	0	63.9
-0.0046	-0.0293	-0.0015	-0.0173	64
-0.0046	-0.033	-0.0015	-0.0225	64.2
-0.006	-0.0233	-0.0023	-0.0233	64.3
-0.0068	-0.0285	-0.0053	-0.0263	64.5
-0.0083	-0.042	-0.0068	-0.0293	64.6
-0.0075	-0.0248	-0.0075	-0.0233	64.8
-0.0046	-0.0181	-0.0046	-0.0195	64.9
-0.003	-0.0135	-0.0008	-0.0181	65
-0.0023	-0.0068	-0.0046	-0.0113	65.2
-0.0046	-0.0091	-0.0053	-0.0218	65.3
-0.0046	-0.0008	-0.003	-0.0293	65.5
-0.0008	0.003	-0.003	-0.0293	65.6
0.0015	-0.0008	-0.0008	-0.0278	65.7
0.0015	0.0007	0	-0.0225	65.9
0.0015	0.009	0.0045	-0.0256	66.1
0.003	0.0165	0.0052	-0.0188	66.2
0.003	0.0232	0.006	-0.012	66.3
0.0007	0.0232	0.0052	-0.0008	66.5
-0.0015	0.0195	0.006	0.0225	66.6
-0.0046	-0.0038	0.003	0.0457	66.8
-0.0091	-0.0285	-0.0015	0.0787	66.9
-0.0091	-0.0308	0.0007	0.087	67
-0.0053	-0.0256	0.0022	0.0667	67.2
-0.0015	-0.0256	0.003	0.024	67.3
0.0015	-0.0128	0.003	-0.0083	67.4
0.0015	0	0.0045	-0.0083	67.5
0	0.006	0.003	-0.0083	67.7
-0.0015	0.0157	0.0015	0.0037	67.8
-0.0015	0.0397	0.0037	0.0285	67.9
-0.0015	0.0615	0.0015	0.045	68.1
-0.0015	-0.0023	-0.0008	0.027	68.2
-0.0008	-0.0488	-0.003	0.0022	68.3
-0.003	-0.0256	-0.0008	-0.0083	68.4
-0.0023	-0.0308	-0.0008	-0.0203	68.6
-0.0015	-0.0015	-0.003	-0.024	68.7
-0.0015	0.0157	-0.0038	-0.0338	68.8
-0.0008	0.012	-0.0046	-0.0368	69
-0.0015	0.0127	-0.0046	-0.0218	69.1
-0.0023	0.0007	-0.0053	-0.0083	69.2
-0.0015	-0.003	-0.0046	-0.0105	69.3
-0.0008	-0.0128	-0.003	-0.0323	69.5
-0.0008	-0.0135	-0.0015	-0.0458	69.6
0.0015	-0.0008	0.0015	-0.0428	69.7
0.0045	0.0285	0.0075	-0.0361	69.8
0.0022	0.0532	0.0097	-0.012	70
0.0007	0.063	0.0105	0.027	70.1
-0.0015	0.057	0.006	0.057	70.2
-0.0046	0.039	0.0045	0.0697	70.3
-0.0083	0.009	0.0052	0.069	70.5
-0.0091	-0.0173	0.0052	0.063	70.6
-0.0083	-0.0293	0.0045	0.0412	70.7
-0.0053	-0.0338	0.0015	0.0135	70.8
-0.0046	-0.0256	-0.003	-0.0188	71
-0.003	-0.0293	-0.0053	-0.0518	71.1
-0.0046	-0.0256	-0.0068	-0.0578	71.2
-0.0053	-0.006	-0.0075	-0.042	71.3
-0.003	-0.003	-0.0075	-0.0218	71.5
-0.003	-0.0068	-0.006	-0.0068	71.6
0	-0.0083	-0.0038	0.009	71.7
0.0022	-0.0083	-0.0008	0.0142	71.8
0.003	-0.003	-0.0008	0.006	72
0.0045	-0.0173	-0.0053	0.0052	72
0.003	-0.057	-0.0068	-0.003	72.2
0.0022	-0.06	-0.0053	-0.0113	72.3
0.0015	-0.024	-0.0053	-0.0165	72.4
0.0015	0.027	-0.0053	-0.033	72.5
0.003	0.0435	-0.0046	-0.045	72.6
0.0022	0.012	-0.0015	-0.0465	72.7
0.003	0	0.0052	-0.048	72.8
0.0045	0.0022	0.0127	-0.0278	72.9
0.0022	0.0442	0.012	0.024	73
-0.0023	0.0705	0.012	0.051	73.1
-0.0008	0.057	0.0157	0.063	73.2
0.0007	0.0277	0.012	0.078	73.3
-0.0053	-0.0315	0.003	0.0525	73.4
-0.0105	-0.0346	-0.0015	0.024	73.5
-0.0105	-0.0323	-0.0023	0.0082	73.7
-0.0091	-0.033	-0.0053	-0.0091	73.8
-0.0075	-0.0315	-0.0068	-0.0091	73.8
-0.0075	-0.0338	-0.0083	-0.0256	74
-0.0083	0.009	-0.0083	-0.033	74.1
-0.0053	0	-0.0105	-0.0278	74.2
-0.0038	-0.0428	-0.0083	-0.0346	74.2
-0.0023	-0.033	-0.0068	-0.0361	74.3
0.0007	0.0202	-0.003	-0.0346	74.5
0.0052	0.0712	0.003	-0.0368	74.6
0.0075	0.0525	0.003	-0.033	74.7
0.0052	0.0075	0.0037	-0.0098	74.7
0.0052	-0.0105	0.0052	-0.006	74.8
0.0052	-0.0256	0.0142	-0.0195	74.9
0.0082	0.0367	0.0165	-0.015	75.1
0.006	0.09	0.0127	-0.024	75.1
0	0.0352	0.009	-0.027	75.2
-0.0015	0.0202	0.0067	0.009	75.3
-0.006	0.006	0.0067	0.0735	75.4
-0.0091	-0.0256	0.0037	0.1012	75.5
-0.0075	0.0015	-0.0008	0.0787	75.6
-0.0075	0.0615	-0.003	0.0675	75.7
-0.0083	0.1102	-0.0068	0.0517	75.8
-0.012	0.024	-0.015	0.0255	75.9
-0.0158	-0.0623	-0.015	0.0165	76
-0.0128	-0.0706	-0.0083	0.0015	76.1
-0.0083	-0.1103	-0.0068	-0.0323	76.2
-0.0046	-0.09	-0.0053	-0.0315	76.3
0.0007	-0.0375	-0.0008	-0.0195	76.4
0.003	0.006	0.0007	-0.039	76.5
0.0045	-0.0038	-0.0015	-0.0668	76.6
0.0007	-0.0195	-0.003	-0.0668	76.7
-0.0015	0.0465	-0.0015	-0.0495	76.8
0	0.0405	0.0015	-0.012	76.9
0.0015	-0.0091	0.0045	0.024	76.9
0.003	-0.0458	0.0075	0.0202	77
0.003	-0.054	0.0075	0.0067	77.1
0.0022	-0.0361	0.0067	-0.0008	77.2
0.0015	-0.0338	0.0052	-0.0008	77.3
0.0007	0.0165	0.003	-0.0233	77.4
-0.0008	0.0367	-0.0015	-0.045	77.5
-0.0015	0.018	-0.0015	-0.024	77.6
-0.0015	0.0262	-0.003	0.0007	77.7
-0.0008	0.0465	-0.0015	0.003	77.8
0	0.0802	-0.0015	-0.0023	77.9
-0.0008	0.0637	-0.0015	0.012	78
-0.0023	0.009	-0.0023	0.018	78.1
-0.0015	-0.0398	-0.003	0.0127	78.2
0.0007	-0.0728	0.0007	0.0075	78.3
0.0015	-0.0856	0.0037	-0.0008	78.4
0.0037	-0.0773	0.0067	0.0127	78.5
0.0045	-0.0383	0.0067	0.0135	78.6
0.003	-0.0263	0.0075	0.0075	78.7
0.003	0.0075	0.0067	0.0052	78.7
0.0015	0.0697	0.003	0.006	78.8
-0.0015	0.0532	-0.003	0.0202	78.9
-0.0038	0.0082	-0.0053	0.018	79
-0.0046	-0.0008	-0.0053	-0.0091	79.1
-0.0068	-0.0218	-0.0091	-0.039	79.2
-0.0075	-0.0465	-0.0091	-0.0533	79.3
-0.0083	-0.045	-0.0068	-0.0615	79.4
-0.0075	-0.03	-0.0053	-0.057	79.5
-0.0068	-0.012	-0.0053	-0.0285	79.6
-0.0075	-0.0135	-0.003	-0.0015	79.7
-0.006	0.003	-0.0015	0.0262	79.8
-0.0008	0.0217	0.0007	0.0375	79.9
0.0022	0.0165	0.0015	0.0187	80
0.0007	0.0052	0.0007	0.0067	80.1
-0.0015	-0.0143	0	0.0135	80.2
-0.0038	-0.0091	-0.0015	0.0247	80.3
-0.0046	-0.0113	0.0022	0.0172	80.4
-0.0023	-0.0083	0.003	0.0067	80.5
-0.003	0.0052	0.0015	0.0075	80.5
-0.003	-0.0038	0.003	0.0045	80.6
-0.0023	-0.0218	0.0022	0.012	80.8
-0.003	-0.0233	-0.0023	0.0232	80.9
-0.0023	0.048	-0.0023	0.0315	81
0.0022	0.126	0.003	0.0412	81
0.003	0.0712	0.003	0.0075	81.1
0.0045	-0.0023	0.003	-0.0248	81.2
0.0045	-0.0068	0.0015	-0.0263	81.3
0.003	-0.0128	-0.0008	-0.0256	81.4
0.0007	-0.003	-0.003	-0.0091	81.5
-0.003	0.024	-0.003	-0.0075	81.6
-0.0038	0.0315	-0.003	-0.0181	81.7
-0.0038	0.012	-0.006	-0.0181	81.8
-0.0053	-0.0046	-0.0083	-0.0105	81.9
-0.0083	-0.0135	-0.0083	-0.0015	82
-0.0091	-0.0361	-0.0038	0.0015	82.1
-0.0046	-0.048	0.0015	0.012	82.3
-0.0023	0.003	0.0015	0.021	82.3
-0.0023	0.0337	0.0015	0.0112	82.4
-0.0015	-0.003	0.0007	-0.003	82.6
-0.0068	-0.0203	-0.0046	-0.0181	82.7
-0.0105	-0.0488	-0.0083	-0.0188	82.8
-0.0068	-0.0383	-0.0023	-0.0091	82.9
-0.0023	0.0045	0.0045	0.006	83
-0.0008	0.009	0.003	0.0135	83.1
-0.0008	0.0052	0.0045	0.006	83.2
0.0015	0.012	0.0075	0.0067	83.3
0.0015	0.0022	0.003	0.0015	83.4
0.0007	-0.0315	0.0015	0.003	83.5
0.0007	-0.0225	0.0037	0.009	83.6
-0.0015	0.024	0.0015	-0.0015	83.7
0	0.018	0.0045	-0.0165	83.8
0.003	0.0052	0.0045	-0.0113	83.9
-0.003	0.0217	-0.003	0.0097	84.1
-0.0091	0.027	-0.0046	0.042	84.1
-0.0091	0.0412	-0.0015	0.0427	84.3
-0.0075	0.018	-0.0053	0.0262	84.4
-0.0091	0.0127	-0.0068	0.0157	84.5
-0.0091	0.0112	-0.0068	-0.0098	84.6
-0.0068	-0.015	-0.0068	-0.0105	84.7
-0.0053	-0.0256	-0.0083	-0.0165	84.8
-0.0053	-0.0938	-0.0098	-0.0181	84.9
-0.0015	-0.1155	-0.0046	-0.0188	85
0.0052	-0.0128	0.0015	-0.0203	85.1
0.006	0.027	0.0075	-0.012	85.2
0.0067	0.0195	0.0067	-0.0143	85.4
0.0037	0.0307	0.0015	0.003	85.5
0.0007	0.018	0.0015	0.0127	85.5
0.0007	0.0232	0.0045	0.0127	85.7
0.003	0.0255	0.0075	0.0217	85.8
0.0045	0.0105	0.0082	0.0202	85.9
0.0037	-0.0143	0.0067	0.0015	86
0.003	-0.0165	0.0067	-0.0075	86.1
0.0045	0.021	0.0075	-0.0075	86.2
0.0052	0.0555	0.0045	-0.003	86.3
0.0015	0.0787	0.0052	0.0165	86.4
-0.0015	0.0607	0.0037	0.0217	86.5
-0.0053	0.0262	0	-0.0128	86.6
-0.006	0.0195	0.0015	-0.0195	86.7
-0.003	0.003	0.0007	0.0127	86.8
-0.003	-0.0128	-0.0008	0.0105	86.9
-0.0008	-0.0135	-0.0015	0.006	87
0.0015	-0.0188	-0.003	-0.0008	87.1
0.0007	-0.0158	-0.0046	-0.0113	87.2
-0.0015	-0.0233	-0.0053	-0.0158	87.3
-0.003	-0.027	-0.0053	-0.0233	87.4
-0.0008	-0.0263	-0.0023	-0.0225	87.5
0	-0.0233	0.0007	-0.0158	87.6
0.0045	-0.0053	0.0052	0.003	87.7
0.0067	-0.0248	0.0082	0.0127	87.8
0.0037	-0.0585	0.0022	0.0097	87.9
-0.0008	-0.0503	0	0.0187	88
-0.0038	-0.0398	-0.0008	0.0277	88.1
-0.003	0.012	0.0007	0.0352	88.2
-0.0046	0.0525	0.0007	0.0615	88.3
-0.0053	0.0187	-0.0046	0.063	88.4
-0.006	-0.0038	-0.0038	0.0277	88.5
-0.0015	0.0142	-0.0015	0.0045	88.6
-0.0053	0.0225	-0.0075	-0.0038	88.6
-0.0128	-0.0181	-0.0098	0.0052	88.7
-0.0105	0.0142	-0.0083	0.0015	88.8
-0.0091	0.0367	-0.0068	-0.0053	88.9
-0.006	0.0007	0	0.0045	89
-0.0015	-0.0053	0.0052	0.0052	89.1
0	-0.0181	0.0052	0.012	89.2
-0.0046	-0.0105	-0.0015	0.0465	89.3
-0.0083	-0.0046	-0.003	0.0532	89.4
-0.0046	0.0367	0.0037	0.039	89.5
0.0007	0.0742	0.006	0.03	89.5
0.003	0.0547	0.0052	0.0022	89.6
0.003	0.0052	0.003	-0.021	89.7
0.0007	-0.0233	0	-0.0315	89.8
0.0015	-0.0256	-0.0015	-0.0346	89.9
0.003	-0.0518	-0.0008	-0.0203	90
0.003	-0.0585	0.0015	-0.0075	90
0.0045	-0.0683	0.0045	-0.0158	90.1
0.0067	-0.0675	0.0067	-0.0285	90.2
0.0045	-0.0495	0.009	-0.063	90.3
0.0015	-0.0293	0.0052	-0.0608	90.4
-0.0046	0.012	0.0015	-0.0053	90.4
-0.0091	0.033	-0.0008	0.0015	90.5
-0.0075	0.0322	0.0007	0.0195	90.6
-0.0053	0.036	0.0067	0.0255	90.7
-0.0015	0.0097	0.006	0.0127	90.8
-0.003	-0.0105	0.003	0.0195	90.8
-0.0053	-0.0053	0.0015	0.003	90.9
-0.0046	0.003	-0.0046	-0.0105	91
-0.0053	0.03	-0.006	-0.0105	91.1
-0.0068	0.0412	-0.006	0.0022	91.2
-0.0046	0.027	-0.0008	0.009	91.3
0.0007	-0.0098	0.0015	0.018	91.3
0.003	-0.0068	-0.0015	0.009	91.4
0.0015	0.0157	-0.003	-0.0158	91.4
-0.0008	-0.0068	-0.0015	-0.024	91.5
0.0007	-0.0083	0.0022	-0.0225	91.6
0.0022	-0.0338	0.0015	-0.0338	91.6
-0.0008	-0.093	0.0007	-0.0645	91.7
-0.0015	-0.093	-0.0008	-0.0458	91.8
-0.003	-0.0503	-0.0023	-0.0068	91.8
-0.003	-0.0083	-0.0023	-0.0038	91.9
0.0007	0.0022	-0.0015	-0.0143	91.9
0.0022	-0.0038	-0.0038	0.0142	92
0.0022	0.0097	-0.0075	0.0427	92.1
0.0015	0.0135	-0.0083	0.012	92.1
0.0045	-0.0008	-0.0068	-0.0503	92.2
0.0045	-0.0143	-0.0046	-0.081	92.2
0.0015	0.042	-0.0046	-0.0353	92.3
-0.0038	0.105	-0.0023	0.0172	92.4
-0.0046	0.075	0.0067	0.0367	92.4
0	0.051	0.009	0.0315	92.5
-0.0008	0.0442	0.0082	0.0022	92.6
-0.0038	0.033	0.0052	-0.006	92.6
-0.0091	0.0307	0.0015	0.0165	92.7
-0.0143	0.0105	-0.0023	0.0172	92.7
-0.0143	-0.0008	-0.003	-0.0091	92.7
-0.0083	0.0165	-0.003	-0.0225	92.8
-0.0068	0.0382	-0.0053	-0.0038	92.8
-0.0091	0.0307	-0.0053	0.0015	92.9
-0.0075	0.0247	-0.0038	-0.012	92.9
-0.0053	-0.006	-0.0015	-0.0443	93
-0.0105	-0.0353	-0.0015	-0.0518	93
-0.015	-0.0188	0.003	-0.0353	93.1
-0.0113	-0.0555	0.0045	-0.0638	93.1
-0.0075	-0.0691	0.0045	-0.042	93.2
-0.0046	-0.0353	0.0052	-0.006	93.2
0.0007	-0.0218	0.0045	-0.0091	93.3
0.003	0.0165	0.0045	-0.0218	93.3
0.0045	0.015	-0.0008	-0.0428	93.4
0.0052	-0.0113	0.003	-0.042	93.4
0.0067	-0.027	0.0045	-0.0458	93.5
0.0067	-0.015	0.0022	-0.0555	93.5
0.003	0.0142	0.0007	-0.0428	93.6
0.0007	0.0067	0	-0.0285	93.6
0.0022	-0.0083	0.003	-0.0383	93.6
0.006	-0.0218	0.003	-0.0436	93.6
0.0082	-0.0353	0.0052	-0.045	93.7
0.0082	-0.0465	0.0037	-0.0315	93.7
0.0052	-0.0323	0.0037	0.0127	93.7
0.0052	0.009	0.0082	0.0555	93.8
0.0067	0.0225	0.0105	0.039	93.8
0.0052	-0.0353	0.0067	-0.0143	93.9
0.003	-0.0893	0.003	-0.0158	93.9
-0.0015	0.0097	0.0045	0.012	93.9
-0.0008	0.105	0.0045	0.0292	94
-0.0053	0.1087	-0.0046	0.042	94
-0.012	0.141	-0.0075	0.021	94
-0.012	0.1042	-0.003	0.018	94
-0.0143	0.06	-0.003	0.0585	94.1
-0.0135	0.0465	-0.0015	0.0465	94.1
-0.0098	-0.042	-0.003	0.0202	94.2
-0.0083	-0.0908	-0.0091	0.0127	94.2
-0.0083	-0.0871	-0.0105	0.012	94.2
-0.0053	-0.0893	-0.0075	0.0195	94.2
0.0022	-0.0856	-0.003	0.003	94.3
0.0067	-0.0728	-0.0038	-0.021	94.3
0.0052	-0.0368	-0.0068	-0.0256	94.3
0.0015	0.0285	-0.0068	0.0165	94.3
-0.0008	0.0825	-0.0046	0.0502	94.3
-0.0015	0.0967	-0.0015	0.0592	94.3
-0.0046	0.039	-0.0015	0.0457	94.4
-0.0068	-0.0443	-0.0023	0.0232	94.4
-0.0075	-0.0728	-0.0008	0.0142	94.4
-0.0068	-0.0743	-0.0038	-0.0091	94.4
-0.0091	-0.0428	-0.006	-0.0278	94.4
-0.006	-0.0143	-0.006	-0.0218	94.5
-0.0053	0.0045	-0.0083	0.0082	94.5
-0.0046	0.0472	-0.0046	0.0157	94.5
0.0022	0.0195	-0.003	-0.0023	94.5
0.003	-0.024	-0.0015	-0.0218	94.5
0.0015	-0.0346	0.0007	-0.042	94.5
0.003	-0.0203	-0.003	-0.0203	94.5
-0.0015	0.0067	-0.0053	-0.0015	94.5
-0.0038	0.0067	-0.0038	-0.003	94.5
-0.0023	0.0232	0.0015	0.0135	94.5
-0.003	0.0322	0.0082	0.027	94.5
-0.003	0.018	0.0067	0.009	94.5
-0.0023	-0.012	0.0067	0	94.6
-0.0015	0.0112	0.0082	0.0262	94.6
-0.0046	0.0532	0.0067	0.042	94.6
-0.0038	0.0525	0.0045	0.0517	94.6
-0.0053	0.078	0.0045	0.0502	94.6
-0.0046	0.0502	0.0037	0.0352	94.6
-0.0008	-0.0053	0.0022	0.0157	94.6
-0.0015	-0.0256	-0.0008	0.0052	94.6
0.0007	-0.0383	-0.0015	-0.0091	94.6
0.0007	-0.048	-0.0015	-0.0165	94.6
-0.003	-0.0405	-0.003	-0.012	94.6
-0.0023	-0.0225	-0.0038	-0.0158	94.6
0.0007	-0.0203	-0.0008	-0.0105	94.6
0.003	-0.0256	0.0007	-0.0218	94.6
0.0052	-0.0233	0.0015	-0.0278	94.6
0.0052	-0.0165	0.003	-0.0143	94.6
0.0052	0.0067	0.0037	-0.0068	94.6
0.0045	0.0232	0	0.0045	94.6
0.0015	-0.0143	-0.0046	-0.0091	94.6
-0.0008	-0.0405	-0.0046	-0.0293	94.6
0	-0.039	-0.0046	-0.03	94.6
-0.0023	-0.003	-0.0023	-0.0053	94.6
-0.0046	0.0375	-0.0068	0.0142	94.6
-0.0023	0.0135	-0.006	0.024	94.6
0.0007	0.0247	-0.0015	0.0532	94.6
-0.0008	0.0195	0.0015	0.0397	94.6
-0.0015	0.006	0.009	0.0382	94.6
-0.0008	-0.0128	0.009	0.0015	94.6
-0.003	-0.0706	0.0082	-0.0511	94.6
-0.0075	-0.0721	0.0015	-0.0585	94.6
-0.0128	-0.0743	-0.0075	-0.0653	94.6
-0.0165	-0.0218	-0.0135	-0.0181	94.6
-0.0195	0.0712	-0.0158	0.0067	94.5
-0.0128	0.1222	-0.0068	0.0255	94.5
-0.0068	0.0877	-0.0023	0.0487	94.5
-0.0075	-0.0068	0.003	0.039	94.5
-0.0038	-0.033	0.0112	0.0247	94.5
0.0007	-0.0503	0.0127	0.021	94.5
0.003	-0.0533	0.0127	0.0315	94.5
0.0045	-0.027	0.0105	0.018	94.5
0.0022	0.0015	0.0075	0.0157	94.5
-0.0015	0.0472	0.0045	0.012	94.5
0.0007	0.0637	0.003	0.0007	94.4
0.0022	0.0232	0.0015	0.009	94.4
0.0007	-0.0638	0.0015	0.024	94.4
0.0015	-0.0825	0.0022	0.03	94.4
0	-0.0225	0.0015	0.0172	94.4
-0.0023	0.0052	0	0.012	94.3
0	0.0232	-0.0008	0.021	94.3
-0.0008	0.027	0.0015	0.0232	94.3
-0.0008	0.033	0.003	0.0292	94.3
0.0007	0.0667	0.0015	0.0277	94.3
0.0007	0.024	-0.0015	0.0067	94.2
0.0007	-0.0225	-0.006	-0.0053	94.2
-0.0008	-0.0308	-0.0091	-0.0188	94.2
-0.0038	-0.0203	-0.0105	-0.0181	94.1
-0.003	0.0165	-0.0068	-0.0165	94.1
-0.0015	0.0082	-0.006	-0.0195	94.1
-0.003	-0.0315	-0.006	-0.0098	94.1
-0.0068	-0.0458	-0.0068	-0.0083	94.1
-0.0068	-0.0263	-0.0046	0.0067	94
-0.0008	-0.0075	0.0037	0.0052	94
0	0.006	0.0052	0	94
-0.0046	0.0315	0.006	0.0277	94
-0.003	0.0352	0.0075	0.0345	94
-0.0015	0.0052	0.003	0.0015	93.9
-0.0053	-0.0135	-0.0015	-0.0346	93.9
-0.0046	-0.0256	-0.0015	-0.0368	93.9
-0.0046	-0.0353	-0.0083	-0.0278	93.8
-0.0053	-0.0263	-0.0105	-0.0113	93.8
-0.0038	0.009	-0.012	0.0345	93.8
-0.0038	0.054	-0.0105	0.0127	93.7
0	0.0495	-0.003	-0.003	93.7
0.0007	0.054	0.0015	0.0157	93.7
-0.0023	0.0525	0.0045	0.009	93.7
-0.003	0.0345	0.006	0.021	93.6
-0.0046	0.033	0.0075	0.0217	93.6
-0.0046	-0.0083	0.0082	0.0142	93.6
-0.0053	-0.0338	0.0045	0.0097	93.6
-0.003	-0.0383	0.0022	0.0015	93.5
-0.0015	-0.0233	0.0007	-0.006	93.5
-0.0023	-0.015	-0.0008	-0.012	93.5
-0.0008	-0.027	-0.0023	-0.0188	93.4
-0.0008	-0.0158	-0.003	-0.0233	93.4
-0.0008	0.003	-0.003	-0.0195	93.4
0.003	0.027	-0.0008	-0.0128	93.3
0.0045	0.012	0	-0.0053	93.3
0.003	0.0015	0	0.0007	93.3
0.0007	0.009	0.003	-0.0083	93.2
0.0015	0	0.0067	-0.0233	93.2
0.0037	0.003	0.0052	-0.0091	93.1
0.0007	0.0007	0.0045	-0.0083	93.1
0.0007	0.0217	0.0052	-0.0075	93.1
0.0015	0.048	0.0082	-0.0068	93.1
0.003	0.033	0.0082	-0.0046	93.1
0.0022	0.0277	-0.0008	0.0232	93
-0.0015	0.003	-0.0046	0.0157	93
-0.0008	-0.0308	-0.003	0.0172	92.9
-0.003	-0.0105	-0.0083	0.0097	92.9
-0.006	0.003	-0.006	-0.0158	92.8
-0.003	0.0202	-0.0046	-0.0218	92.8
-0.0023	0.0157	-0.0046	-0.0218	92.8
-0.0038	0.0007	-0.0023	-0.0068	92.7
-0.0023	-0.0083	0.0015	-0.0128	92.7
0.0007	-0.0278	0.003	-0.0128	92.7
0.0007	0	-0.0008	-0.0083	92.6
-0.0023	0.0262	-0.0015	-0.003	92.6
-0.003	0.0517	-0.0015	0.0142	92.5
-0.0046	0.039	-0.0053	0.0067	92.5
-0.006	-0.0053	-0.003	-0.0068	92.4
-0.0023	-0.0158	0.003	-0.0098	92.4
0.0007	-0.0098	0.0052	-0.0098	92.4
0.0022	-0.0181	0.0052	-0.0158	92.3
0.0015	-0.0353	0.006	-0.0188	92.3
0.0015	-0.0203	0.0052	-0.0173	92.2
0	-0.0038	0.0052	-0.0173	92.2
-0.0046	0.0037	0.003	0.0052	92.2
-0.0075	0.0232	-0.0015	0.024	92.1
-0.0098	0.0757	-0.003	0.03	92.1
-0.0091	0.0757	-0.0008	0.0315	92
-0.0053	0.0232	0.0022	0.0097	92
-0.0053	-0.0203	0.0015	0.0022	91.9
-0.0053	-0.0615	0.0007	0.006	91.9
-0.0046	-0.0555	0.003	0.0045	91.8
-0.0023	-0.0195	0.0007	0.0045	91.8
-0.003	0	-0.0046	-0.0143	91.8
-0.0046	-0.0053	-0.0053	-0.0173	91.7
-0.003	0.0127	-0.0046	0.0007	91.7
-0.0038	0.0052	-0.0053	-0.0008	91.6
-0.0038	-0.0098	-0.0008	-0.0038	91.6
0.0007	-0.0218	0.003	-0.0158	91.5
0.0045	-0.0518	0.0045	-0.0233	91.5
0.0045	-0.0698	0.0022	-0.0143	91.4
0.0052	-0.0436	0.0007	-0.0023	91.4
0.0052	0.054	-0.0008	0.015	91.3
0.003	0.0457	-0.0023	0.0082	91.3
0	-0.0083	0.0007	0	91.3
-0.0015	-0.0023	-0.0015	0	91.2
-0.0046	-0.03	-0.0015	-0.0105	91.2
-0.0053	-0.0173	0.0015	-0.033	91.2
-0.0038	0.006	0.003	-0.0465	91.1
-0.003	0.0127	0.0015	-0.0346	91.1
-0.0053	0.003	-0.0008	-0.0293	91
-0.0046	-0.0015	-0.0015	-0.0315	91
-0.0015	0.012	-0.0015	-0.006	90.9
-0.0023	0.0045	-0.0015	0.0375	90.9
-0.0015	0.0015	-0.0015	0.033	90.9
0.0007	0.0082	-0.0015	0.0285	90.8
-0.0008	0.0142	-0.0008	0.0277	90.8
-0.003	0.0187	0.0007	0.009	90.8
-0.0038	0.0195	0.0007	0.0165	90.7
-0.003	-0.0015	0.0015	0.0052	90.7
-0.0038	-0.0158	0.0022	0.0015	90.7
-0.0015	-0.024	-0.0008	0.003	90.6
0.0007	-0.0181	-0.003	0.0007	90.6
0.0015	-0.0256	-0.0046	-0.0046	90.5
0.0007	-0.045	-0.0046	-0.021	90.5
0.0022	-0.0181	-0.003	-0.0248	90.4
0.003	-0.0083	-0.0023	-0.0278	90.4
0.003	0.0045	-0.0008	-0.0338	90.4
-0.0015	0.0232	-0.003	0.0052	90.3
-0.0038	0.0427	-0.0046	0.0442	90.3
-0.003	0.0465	0.003	0.042	90.3
0.0007	0.0322	0.006	0.0405	90.2
0.0007	0.0217	0.0067	0.0127	90.2
-0.0008	-0.0105	0.0075	-0.003	90.1
0	-0.015	0.0082	0.0007	90.1
-0.0023	-0.0181	0.0045	-0.0015	90
-0.0053	-0.0443	-0.0015	-0.0068	90
-0.0053	-0.075	-0.0015	-0.0285	90
-0.003	-0.0713	-0.003	-0.033	89.9
-0.003	-0.0181	-0.0068	-0.021	89.9
-0.0046	0.024	-0.003	-0.0248	89.9
-0.0046	0.054	0.0007	-0.0165	89.8
-0.0038	0.0525	0.0022	0.0247	89.8
-0.003	0.0315	0.0007	0.033	89.7
-0.0038	0.015	-0.0023	0.0112	89.7
-0.003	-0.0135	-0.0015	-0.0023	89.6
0	-0.0225	-0.0015	-0.015	89.6
0.0015	-0.0105	-0.0023	-0.0091	89.6
0	-0.0008	-0.0015	-0.0015	89.5
-0.0015	-0.0008	-0.0008	-0.0195	89.5
-0.0015	-0.0091	-0.0008	-0.0383	89.5
-0.0015	-0.0233	-0.0008	-0.0361	89.4
0	-0.0383	-0.0008	-0.0293	89.4
0.0015	-0.027	-0.0008	-0.0181	89.3
0.0022	-0.0038	0.0007	-0.0015	89.3
0.0022	0.0067	0.0015	-0.0068	89.3
0.003	0.0202	0.0052	0.0105	89.2
0.0037	0.0712	0.0045	0.048	89.2
0.003	0.099	0.0015	0.0427	89.1
0	0.0742	0.0007	0.0255	89.1
-0.0015	0.0277	-0.0008	0.0127	89.1
-0.0008	-0.0225	0.0015	-0.0091	89.1
-0.003	-0.0256	0.0007	-0.0203	89
-0.003	-0.021	0.0007	-0.024	88.9
-0.003	-0.0195	-0.0008	-0.0203	88.9
-0.006	-0.0218	-0.0008	-0.0203	88.9
-0.003	-0.0218	0.0007	-0.0143	88.9
0.0007	-0.0165	0.0015	-0.0075	88.9
0.003	-0.0165	0.0045	-0.0038	88.8
0.0052	-0.0068	0.0052	0.003	88.8
0.0052	-0.0091	0.0045	0.0015	88.8
0.0037	-0.0105	0.0022	0	88.7
0.0015	-0.0105	0.0022	-0.0008	88.7
0.0007	-0.0113	0.0007	-0.0053	88.7
0.0015	-0.0083	0.0007	-0.0083	88.6
0.003	-0.0091	0.0015	-0.0068	88.6
0.0007	-0.012	0.0007	-0.0023	88.6
0.0015	-0.015	-0.0008	0.006	88.6
0	-0.024	-0.0015	0	88.6
-0.0008	-0.0278	0	-0.0181	88.5
0.0007	0.009	0	-0.0173	88.5
-0.0023	0.0502	0	-0.0091	88.5
-0.0053	0.051	-0.003	-0.0015	88.5
-0.0083	0.0277	-0.0023	0.0112	88.4
-0.0075	0.003	-0.0015	0.0217	88.4
-0.0046	-0.03	-0.0046	0.018	88.4
-0.0023	-0.0383	-0.006	0.0232	88.4
-0.0008	-0.0203	-0.006	0.0217	88.3
-0.0015	-0.0053	-0.003	0.0052	88.3
-0.0015	0.033	0.0015	-0.0083	88.3
-0.0038	0.0615	0.0022	-0.0053	88.3
-0.012	0.0457	-0.0023	0.0172	88.3
-0.0188	0.018	0.0007	0.0015	88.2
-0.0158	0.0127	0.0082	-0.0105	88.2
-0.0083	0.0247	0.0082	0.0052	88.2
-0.006	0.0045	0.0045	-0.0008	88.2
-0.0068	-0.0278	0.0007	-0.0083	88.2
-0.0083	-0.039	-0.0008	-0.0038	88.2
-0.0075	-0.0691	-0.003	0.003	88.2
-0.0046	-0.0691	-0.006	0.0082	88.2
-0.0023	-0.024	-0.0046	-0.0046	88.1
0.0007	-0.0068	-0.0053	-0.0083	88.1
0.003	-0.0038	-0.0038	0	88.1
0.003	-0.0053	-0.003	-0.0053	88
0.0037	-0.0143	-0.003	-0.0083	88
0.003	-0.0083	0.0007	-0.0105	88
0.0015	0.0045	0.0022	-0.0023	88
0.0015	0.0187	0.003	0.0007	88
0.0022	0.0187	0.0015	-0.0075	88
0.003	0.0255	0.003	0.0015	88
0.0022	0.0315	0.0052	0.0082	88
0	0.0112	0.0045	-0.0015	88
0.0007	-0.0023	0.0022	-0.0091	87.9
0.0007	-0.0098	-0.0008	-0.0008	87.9
0.003	-0.012	0.0007	-0.003	87.9
0.003	-0.0068	0.0045	-0.0068	87.9
0.0037	0.0052	0.0067	0	87.9
0.0067	0.0217	0.0022	0.0007	87.9
0.0075	0.0127	0.003	-0.0053	87.8
0.0067	0.0067	0.0067	-0.0091	87.8
0.0045	0.006	0.0052	-0.0015	87.8
0.003	-0.0046	0.0045	0.0015	87.8
0.003	-0.0195	0.0045	0.0105	87.8
0.0015	-0.0458	0.0022	0.0157	87.7
0.0015	-0.03	0.0007	0.0052	87.7
-0.0015	-0.0091	-0.0015	-0.0038	87.7
-0.0038	-0.0143	-0.0046	-0.0083	87.7
-0.0053	0.0052	-0.0046	-0.0128	87.7
-0.0068	0.018	-0.0053	-0.0143	87.7
-0.0098	0.0217	-0.0083	-0.0091	87.7
-0.0105	0.0052	-0.0053	-0.0046	87.7
-0.0091	-0.0105	-0.003	-0.0046	87.7
-0.0053	-0.0181	-0.0046	-0.0083	87.7
-0.003	-0.0278	-0.0023	-0.0143	87.7
-0.003	-0.0165	0.0015	-0.0181	87.7
-0.0046	0.0007	0.003	-0.0105	87.7
-0.0068	0.018	0.003	0.0045	87.7
-0.0083	0.0307	0.0052	0.0187	87.7
-0.0091	0.0412	0.0082	0.0217	87.7
-0.0091	0.0255	0.0082	0.0127	87.7
-0.0083	0.012	0.0052	0.0022	87.7
-0.0068	0.0247	0.006	0.009	87.6
-0.0038	-0.0023	0.003	0.0082	87.6
-0.003	-0.027	0	-0.0015	87.6
-0.0023	-0.0308	-0.0008	0.0082	87.6
-0.0008	-0.0383	-0.0008	-0.0038	87.6
-0.0023	-0.0263	0.003	-0.0091	87.6
-0.0008	-0.0233	0.0007	0.0142	87.6
-0.003	0.009	-0.0015	0.0187	87.6
-0.0075	0.0712	-0.0046	0.0097	87.6
-0.0083	0.0495	-0.0075	0.006	87.6
-0.0053	-0.0015	-0.0075	-0.0015	87.5
-0.003	0.0007	-0.0046	-0.0181	87.5
-0.0023	-0.0053	-0.003	-0.0128	87.5
-0.0008	-0.0195	-0.0068	-0.0083	87.5
0	-0.0285	-0.0075	-0.0068	87.5
-0.003	-0.0346	-0.0075	-0.0015	87.5
-0.0023	-0.0218	-0.0068	0.0045	87.5
-0.0008	0.0067	-0.0046	0.0127	87.5
0	0.024	0	0.0105	87.5
0	0.0165	0	0.0067	87.5
0.0007	0.0007	0.0007	-0.0046	87.4
0.0007	-0.0068	0.0007	-0.006	87.4
0.0007	-0.0053	0	-0.0038	87.4
0.0015	-0.0068	0	-0.0053	87.4
0.0007	-0.0098	0.0007	-0.0023	87.4
0.0037	-0.0105	0.0015	-0.0023	87.4
0.003	-0.006	0.0007	-0.0015	87.4
0.0015	-0.0105	0.0022	-0.006	87.4
0.003	-0.0128	0.0015	-0.0015	87.4
0.0007	-0.0105	0.003	0.0007	87.3
0.0022	-0.006	0.0075	-0.0008	87.3
0.0037	0.0022	0.006	0.0007	87.3
0.003	0.0052	0.003	0.0015	87.3
0.0022	0.0097	0.0045	0.0015	87.3
0.0022	0.0105	0.0015	0.0052	87.3
0.0022	0.003	0	0.006	87.3
0.003	-0.0046	0	0	87.3
0.0045	-0.0083	0	-0.0015	87.3
0.0022	-0.0015	0.0007	-0.0008	87.3
-0.0015	0.0075	-0.0015	0	87.3
-0.003	0.0112	0	0.003	87.2
-0.003	0.0082	0.003	0.0037	87.2
-0.0008	0.0067	0.003	-0.0038	87.2
-0.0053	0.0165	0.0007	-0.003	87.2
-0.0068	0.0202	0.0007	0.0105	87.2
-0.0068	0.0142	-0.0015	0.0082	87.2
-0.0091	0.0165	-0.003	0.0045	87.2
-0.0083	0.006	-0.003	-0.0053	87.2
-0.0083	-0.0143	-0.0046	-0.0158	87.2
-0.0083	-0.0165	-0.0053	-0.0113	87.2
-0.0068	-0.0091	-0.0075	-0.0113	87.2
-0.0053	-0.0068	-0.0053	-0.0083	87.2
-0.0038	-0.0053	-0.003	-0.0105	87.2
-0.0023	-0.0046	-0.0038	-0.0083	87.2
0.0007	0.0022	-0.0015	-0.003	87.2
0.0007	0.0037	-0.0008	0.0007	87.2
0.0007	0.0015	0.0007	0.0045	87.2
0.0007	-0.003	0.0022	0.003	87.1
0.0015	-0.0075	0.0022	-0.0008	87.1
0	-0.0068	0.0022	-0.0068	87.1
-0.0015	-0.0068	0.0022	-0.0105	87.1
-0.0023	-0.0053	0.003	-0.015	87.1
-0.0015	0.0007	0.0045	-0.0158	87.1
0.0007	0.0067	0.003	-0.0046	87.1
-0.0008	0.009	0.0037	-0.0015	87.1
-0.0015	0.009	0.0045	-0.003	87.1
-0.0046	0.0165	0.003	0.0082	87.1
-0.0053	0.015	0.0015	0.0195	87.1
-0.0068	-0.0135	0.0007	0.027	87.1
-0.006	-0.0315	0.0015	0.0202	87.1
-0.003	-0.0218	-0.0008	-0.0008	87.1
-0.0046	-0.0225	-0.0015	-0.012	87.1
-0.0053	-0.0113	-0.0038	-0.0165	87
-0.0038	0.009	-0.0046	-0.0068	87
-0.0015	0.0202	-0.0046	0.003	87
-0.0008	0.0225	-0.0015	-0.0015	87
-0.0023	0.0022	-0.003	-0.0068	87
-0.003	0.0007	-0.0038	-0.0046	87
-0.0038	0.009	0	-0.0015	87
-0.003	0.0052	0.0037	-0.0023	87
-0.0015	0.009	0.0052	0.0067	87
-0.003	0.0097	0.0037	0.0127	87
-0.003	0.0045	0.003	0.0015	86.9
-0.0008	0.0022	0.0007	-0.0038	86.9
-0.0015	-0.0008	0.0022	-0.003	86.9
0.0007	-0.012	-0.0008	0.0045	86.9
0.0022	-0.0383	-0.0015	0.0112	86.9
0.0015	-0.0578	0.0007	-0.0046	86.9
0.003	-0.0293	-0.0015	-0.012	86.9
0.0022	-0.0083	-0.003	-0.0098	86.9
0.0015	-0.0023	-0.0053	-0.015	86.9
-0.0015	0.0052	-0.0046	-0.0083	86.9
-0.0015	-0.0083	-0.003	0.0037	86.9
-0.0015	0.0007	-0.003	0.0052	86.9
-0.0015	0.0135	0	0.0007	86.9
-0.0008	0.0217	0.0045	0.0142	86.9
0.0015	0.0457	0.0052	0.0322	86.9
0.003	0.0532	0.003	0.012	86.9
0	0.0232	0.0022	-0.0068	86.9
0.0015	-0.0008	0.0015	-0.0038	86.9
0.0007	0.0015	0.003	-0.0015	86.9
-0.0008	-0.0113	0.0007	0.0015	86.9
-0.0015	-0.0225	0.0007	-0.0015	86.8
-0.0038	0.0037	0.0022	-0.0008	86.8
-0.0015	0.0487	0.0007	-0.0105	86.8
-0.0038	0.0232	-0.0015	-0.015	86.8
-0.0053	-0.0233	-0.0053	-0.012	86.8
-0.0046	-0.0248	-0.0068	-0.0105	86.8
-0.0046	-0.0143	-0.0046	0.003	86.8
-0.003	-0.0218	-0.003	0.0052	86.8
-0.0023	-0.0495	-0.003	0.003	86.8
-0.0023	-0.0181	-0.0023	0.0045	86.8
-0.0015	0.0195	-0.0008	0.0015	86.8
-0.0015	0.0232	-0.0023	-0.0023	86.8
-0.0023	0.012	-0.0068	-0.0023	86.8
-0.0046	-0.0038	-0.0091	-0.0015	86.8
-0.0068	0	-0.0083	-0.0046	86.7
-0.0046	0.003	-0.003	-0.0015	86.7
-0.003	0	-0.0015	-0.0023	86.7
-0.0023	-0.0075	0	-0.003	86.7
0	0.0007	0.0007	0.0082	86.7
0.0022	0.0067	0.0007	0.0052	86.7
0.003	0.0142	0.0007	-0.003	86.6
-0.0008	0.0052	-0.0008	-0.0098	86.6
-0.0038	-0.0098	-0.0015	-0.012	86.6
-0.0046	-0.0091	0	-0.0068	86.6
-0.0046	-0.0128	0.0007	-0.0038	86.6
-0.0023	-0.0128	0.0022	-0.003	86.6
-0.0015	-0.021	0.0015	-0.0068	86.6
-0.003	-0.0225	0.0015	-0.0113	86.6
-0.0015	-0.012	0.003	-0.0068	86.5
-0.0015	-0.003	0.0015	-0.0038	86.5
-0.0015	-0.003	0.0037	-0.0091	86.5
-0.0008	-0.0008	0.0052	-0.0023	86.5
-0.0023	0.0007	0.0045	0.0007	86.5
-0.0023	-0.0053	0.006	-0.0008	86.4
-0.0008	-0.0015	0.006	0.0022	86.4
0.0007	0.0007	0.0052	-0.003	86.4
0.0007	0.003	0.003	-0.003	86.4
-0.0015	0.0067	0.0045	0.009	86.4
-0.003	0.018	0.0045	0.015	86.4
-0.0023	0.024	0.0045	0.0127	86.3
-0.0008	0.0217	0.0067	0.0142	86.3
-0.0008	0.0142	0.0067	0.0142	86.3
-0.0008	-0.0008	0.0067	0.0112	86.3
-0.0008	0.0015	0.003	0.0112	86.3
-0.0023	0.0022	-0.0015	0.009	86.3
-0.003	-0.0053	-0.0015	0.0045	86.3
-0.0046	-0.0105	-0.0023	-0.0113	86.2
-0.003	-0.0091	-0.003	-0.0218	86.2
-0.0008	-0.0083	-0.0015	-0.0158	86.2
-0.0008	-0.0143	-0.0038	-0.0143	86.2
-0.0015	-0.0091	-0.0068	-0.0105	86.1
-0.0046	-0.003	-0.0075	-0.0053	86.1
-0.0046	-0.0023	-0.0083	-0.0091	86.1
-0.0046	-0.0046	-0.0083	-0.0091	86.1
-0.0046	-0.0015	-0.006	-0.0075	86.1
-0.0046	-0.003	-0.0046	-0.0015	86
-0.0046	-0.006	-0.0046	0.0022	86
-0.0046	-0.0053	-0.0046	0.0007	86
-0.0046	-0.0143	-0.0046	0.0007	86
-0.0053	-0.0053	-0.0023	0.0015	85.9
-0.0053	0.0082	0.0007	0.003	85.9
-0.0015	0.0105	0.0037	0.0112	85.9
-0.003	0.0127	0.0052	0.0202	85.9
-0.0046	0.0127	0.006	0.0105	85.9
-0.0023	-0.0046	0.0075	0.0052	85.9
-0.0023	-0.024	0.0067	0.009	85.9
-0.0008	-0.0195	0.0037	-0.0105	85.9
0.0007	-0.0083	0.0015	-0.0181	85.8
-0.0015	0.0007	-0.0015	-0.0015	85.8
-0.0046	0.009	-0.003	0.0097	85.8
-0.0046	0.0157	-0.0015	0.0052	85.8
-0.0008	0.0217	0.0015	0.0007	85.8
-0.0008	0.0097	0.0007	-0.0008	85.7
0.0015	-0.0075	0.0015	-0.0195	85.7
0.0015	-0.0023	0.003	-0.0188	85.7
-0.0008	0.0112	0.0022	-0.0015	85.7
-0.0015	0.018	0.0015	0.0015	85.7
-0.003	0.0195	0.0007	0.0052	85.6
-0.0015	0.0165	0.0007	0.0127	85.6
-0.0008	0.0052	0.0045	0.0142	85.6
-0.0008	-0.0053	0.0045	0.0105	85.5
0.0007	-0.0315	0.003	0.012	85.5
0.0015	-0.0525	0.006	0.0007	85.5
0.0015	-0.0308	0.0045	-0.0113	85.5
0.003	-0.0256	0.003	-0.015	85.5
0.0007	-0.0075	0.0015	-0.0158	85.5
0	0.0112	-0.0015	-0.027	85.5
0.0022	0.006	0.0007	-0.0315	85.5
0.0007	0.0225	0.003	0.003	85.5
-0.0008	0.0277	0	0.0202	85.5
-0.0008	0.0255	0.003	0.0157	85.4
0	0.0202	0.0037	0.0142	85.4
0.0007	0.0195	0.0037	0.0067	85.4
-0.0008	0.0165	0.003	0.009	85.4
-0.003	0.0112	-0.0008	0.0157	85.4
-0.003	0.012	-0.0015	0.0142	85.4
-0.003	0.0075	-0.0008	0.003	85.3
-0.0038	0.0045	-0.0008	-0.003	85.3
-0.0015	-0.0015	-0.0015	-0.0015	85.3
0.0015	-0.0075	-0.0023	-0.0068	85.3
0.0015	-0.0143	-0.0038	-0.0105	85.2
0	-0.0158	-0.0038	-0.0105	85.2
-0.0015	-0.0158	-0.003	-0.0068	85.2
-0.003	-0.015	-0.003	-0.006	85.2
-0.0023	-0.0128	-0.0046	-0.0083	85.2
-0.0023	-0.0143	-0.0068	-0.0098	85.2
-0.0023	-0.0105	-0.0053	-0.0068	85.2
-0.0015	-0.0053	0	-0.0008	85.1
-0.0015	-0.0023	-0.0015	-0.0008	85.1
0	-0.003	-0.0046	-0.0046	85.1
-0.0008	-0.0083	-0.0075	-0.003	85.1
-0.0015	-0.0105	-0.006	-0.0068	85.1
0.0007	-0.012	-0.0023	-0.012	85
0.0007	-0.012	0.0007	-0.0091	85
0	-0.003	0.003	-0.0105	85
0.0015	0.003	0.003	-0.0053	85
0.0007	0.012	0.0045	0.0037	85
0	0.0187	0.003	0.009	85
-0.0015	0.0135	0.003	0.0142	85
-0.003	0.0112	0.0015	0.0127	84.9
-0.0046	0.0075	-0.0008	0.0112	84.9
-0.0068	0.006	0.0022	0.0135	84.9
-0.0068	0.0007	0.0007	0.0127	84.9
-0.006	-0.0098	-0.0008	0.003	84.9
-0.0068	-0.0165	-0.0015	-0.0068	84.8
-0.0068	-0.0233	-0.003	-0.0083	84.8
-0.0083	-0.0188	-0.0046	-0.0075	84.8
-0.0068	-0.0165	-0.0053	-0.0075	84.8
-0.0053	-0.0158	-0.0068	-0.006	84.7
-0.0046	-0.0083	-0.0068	-0.0008	84.7
-0.0015	-0.0128	-0.0038	0	84.7
0.0022	-0.0181	-0.0023	-0.006	84.7
0.003	-0.0181	-0.0023	-0.0195	84.7
0.003	-0.0083	-0.0008	-0.0293	84.6
0.0022	0.0045	-0.0015	-0.0218	84.6
-0.0015	0.0127	-0.0023	-0.012	84.6
-0.0015	0.015	0.0007	-0.0068	84.6
-0.0008	0.0232	0.0022	0.0187	84.6
-0.0008	0.027	0.0037	0.0315	84.6
0	0.0262	0.0052	0.0217	84.5
-0.0008	0.0277	0.0037	0.0165	84.5
0.0007	0.0225	0.0082	-0.0015	84.5
0.003	0.0247	0.009	-0.0075	84.5
-0.0008	0.009	0.0067	-0.0046	84.5
-0.0015	-0.0015	0.0015	-0.0046	84.4
-0.003	-0.0038	-0.0008	0.0007	84.4
-0.0038	-0.0181	-0.0008	0.003	84.4
-0.0008	-0.0188	-0.0008	0.003	84.4
-0.0015	-0.0181	0.0015	-0.015	84.4
-0.003	-0.024	-0.0046	-0.024	84.3
-0.0068	-0.0346	-0.0083	-0.0128	84.3
-0.0068	-0.0428	-0.0068	-0.0015	84.3
-0.0038	-0.0346	0.0007	-0.0015	84.3
-0.0015	-0.0436	0.006	0.0007	84.3
0	-0.0405	0.0082	-0.0075	84.2
0.0015	0.033	0.0082	-0.0195	84.2
0.0015	0.0742	0	-0.0091	84.2
-0.003	0.081	-0.0053	0.0105	84.2
-0.0053	0.0855	-0.0083	0.033	84.2
-0.0053	0.0675	-0.003	0.0637	84.1
-0.0038	0.0802	0.0007	0.0735	84.1
-0.0015	0.0367	0	0.0345	84.1
-0.0053	-0.0293	-0.0008	0.0097	84.1
-0.0053	-0.0195	0.0007	0.0045	84.1
-0.003	-0.003	0.0007	-0.003	84.1
-0.003	0.0082	-0.0015	-0.003	84.1
-0.0015	-0.0008	-0.003	-0.0098	84.1
-0.0023	-0.024	-0.0015	-0.0143	84.1
-0.003	-0.027	-0.0008	-0.0143	84
-0.0038	-0.0338	-0.0015	-0.0128	84
-0.0038	-0.0533	-0.0008	-0.0083	84
-0.0046	-0.0585	0.0015	-0.0083	84
-0.003	-0.0195	0.0015	-0.0105	84
-0.0008	-0.0008	0.0007	-0.0083	83.9
-0.0015	-0.003	0.003	-0.003	83.9
0.0007	-0.0015	0.0015	-0.003	83.9
0.0015	-0.0075	0.0007	-0.003	83.9
0.0007	0.0007	0.0007	-0.003	83.9
0	0.0007	0.0007	-0.0083	83.9
0.0007	0.0052	0.0007	-0.0128	83.8
0.0007	0.0052	-0.0008	-0.0091	83.8
-0.0008	0.0037	-0.0015	-0.006	83.8
-0.0008	0.0052	-0.0015	-0.0023	83.8
0	0.0037	-0.003	0	83.8
0	0.0022	-0.0008	-0.0015	83.8
-0.0015	-0.0008	0	-0.0008	83.8
-0.0008	0.0007	0.0015	0.0015	83.7
-0.0008	-0.0008	0.0045	0.003	83.7
-0.0008	-0.0015	0.0045	0.003	83.7
0	-0.0046	0.0015	0.003	83.7
-0.0015	-0.0068	0	0.003	83.7
-0.0015	-0.0098	-0.0038	0.0007	83.7
-0.0015	-0.012	-0.0008	-0.0015	83.7
-0.0008	-0.0091	0.0015	-0.0046	83.7
0.0007	-0.0083	0.0015	-0.0053	83.7
0.0007	-0.0046	0.003	-0.006	83.7
-0.0008	0.0045	0.003	-0.0015	83.7
-0.0023	0.0127	0.003	0.0007	83.7
-0.003	0.0127	0.0015	0.0015	83.6
-0.0046	0.0067	0.0015	0.0007	83.6
-0.0053	0.0052	0	0.0007	83.6
-0.0038	0.0045	0.0007	0.003	83.6
-0.0038	-0.0023	0.0007	0.0007	83.6
-0.006	-0.0038	0.0007	-0.0015	83.6
-0.0038	-0.0023	0.003	-0.0015	83.6
-0.0023	-0.006	0.0022	-0.0046	83.6
-0.0015	-0.0075	0.0015	-0.0053	83.5
0.0007	-0.0083	-0.0015	-0.006	83.5
0	-0.0068	-0.0015	-0.0053	83.5
0	-0.003	-0.0015	-0.0015	83.5
0	0.0037	-0.0015	0.0007	83.5
-0.0008	0.0082	-0.0015	-0.0046	83.5
-0.0015	0.006	-0.003	-0.0046	83.5
-0.003	0.0082	-0.0038	0	83.5
-0.003	0.0052	-0.003	0.0067	83.5
-0.0008	0.0015	0.0015	0.0157	83.4
0.0007	-0.0015	0.0045	0.009	83.4
0	-0.0165	0.0045	0.0007	83.4
-0.0015	-0.03	0.0037	-0.0023	83.4
-0.0023	-0.033	0.0015	-0.0083	83.4
-0.0038	-0.0218	0.0007	-0.0113	83.3
-0.0053	-0.0075	0.0007	-0.0105	83.3
-0.0083	0.0105	-0.0008	-0.003	83.3
-0.0105	0.0255	-0.0015	0.0067	83.3
-0.0083	0.0262	-0.0015	0.0075	83.3
-0.0053	0.024	-0.0008	0.003	83.3
-0.0053	0.0112	-0.0015	-0.0015	83.3
-0.006	-0.0008	-0.003	-0.003	83.3
-0.003	-0.0038	-0.0053	-0.0023	83.3
-0.0023	-0.0083	-0.0053	-0.0068	83.3
-0.0023	-0.0143	-0.0053	-0.0113	83.2
-0.0008	-0.0173	-0.0053	-0.0091	83.2
-0.0015	-0.0083	-0.0046	-0.0046	83.2
0	-0.0075	-0.0038	0.0007	83.2
0.0007	0.0015	0	0.0007	83.2
0.0022	0.0112	0.0015	0.003	83.2
0.0037	0.009	0.003	0.0052	83.2
0.003	0.0052	0.0052	0.0052	83.2
0.0052	0.0015	0.0052	0.0037	83.2
0.0052	0.003	0.003	0	83.2
0.0022	-0.003	0.003	-0.0083	83.1
0.0015	-0.0091	0.0015	-0.012	83.1
-0.0015	-0.0053	0	-0.0083	83.1
-0.0008	-0.0015	0.0015	0	83.1
0.0007	-0.0008	0.003	0.0022	83.1
-0.0008	-0.003	-0.0008	-0.003	83.1
-0.0023	-0.0053	-0.0015	0.0007	83.1
-0.0008	-0.0046	0.0007	0.0082	83.1
0.0007	-0.0053	0.003	0.0105	83.1
0.0007	-0.0165	0.0007	0.012	83.1
0.0007	-0.0173	-0.0015	0.0075	83.1
0.0007	-0.0143	-0.0023	-0.0083	83.1
0.0007	-0.0105	-0.0053	-0.0248	83.1
0.0015	0.0007	-0.0068	-0.0218	83.1
-0.0008	0.0067	-0.0068	-0.0128	83.1
-0.003	0.0172	-0.003	-0.0203	83.1
-0.0008	0.0187	0.0007	-0.0181	83.1
-0.0015	0.0165	0.0015	-0.0046	83.1
-0.0015	0.0247	0.0045	0.012	83.1
-0.0015	0.0292	0.0045	0.0202	83.1
-0.0038	0.0255	0.0022	0.0142	83.1
-0.0053	0.0165	0.0007	0.027	83.1
-0.0068	0.0195	0.0022	0.0375	83.1
-0.0068	0.0082	0.0022	0.0195	83.1
-0.006	-0.0143	-0.0008	-0.0008	83.1
-0.0046	-0.0203	-0.0015	-0.0053	83.1
-0.003	-0.027	-0.0008	-0.0068	83
-0.003	-0.0203	0	-0.0068	83
-0.0046	-0.0143	-0.0008	-0.003	83
-0.003	-0.0218	0.0007	0	83
-0.0015	-0.0083	0.0007	0.0045	83
-0.003	0.0247	0	0.0045	83
-0.003	0.0202	0.0015	-0.0008	83
-0.0038	-0.0083	0.003	-0.0038	83
-0.0015	-0.0015	0.0045	-0.0015	83
0	0.0007	0.0052	0	82.9
0	-0.0008	0.003	0.0007	82.9
-0.0008	0.0007	0.0015	-0.003	82.9
-0.0015	-0.0098	0.0015	-0.0091	82.9
-0.0015	-0.0083	0.0007	-0.0105	82.9
-0.0008	-0.0113	-0.0008	-0.015	82.8
-0.0023	-0.0098	0.0007	-0.0158	82.8
-0.0015	-0.006	0.0015	-0.0158	82.8
-0.0008	-0.0015	0.0037	-0.0105	82.8
-0.0008	0.0045	0.0052	-0.0053	82.8
-0.0008	0.006	0.003	0.003	82.8
-0.0038	0.0097	0.0015	0.0127	82.8
-0.0023	0.012	-0.0008	0.0157	82.8
-0.003	0.0127	-0.0015	0.0202	82.8
-0.0038	0.0097	-0.0015	0.0187	82.8
-0.0023	0.0037	-0.003	0.0097	82.8
-0.0015	-0.0053	-0.006	0.003	82.8
-0.0015	-0.0053	-0.0068	0.0015	82.7
-0.0008	-0.0046	-0.0046	-0.0015	82.7
-0.0008	-0.0083	-0.003	-0.0046	82.7
-0.0023	-0.0068	-0.003	-0.0053	82.7
-0.0008	-0.0075	-0.0015	-0.003	82.7
-0.0015	-0.0083	0.0007	-0.0038	82.7
-0.0046	-0.0023	-0.0008	-0.0083	82.7
-0.0046	-0.0023	-0.0008	-0.0083	82.6
-0.0038	-0.0091	-0.0008	-0.0091	82.6
-0.0023	-0.0068	-0.0008	-0.012	82.6
-0.0023	0.003	-0.0008	-0.0128	82.6
-0.0023	0.0082	0.0007	-0.0143	82.6
-0.0015	0.0075	0.003	-0.012	82.5
-0.0008	-0.003	0.003	-0.0083	82.5
-0.0008	-0.0083	0.003	-0.0053	82.5
-0.0008	-0.0278	0.003	-0.003	82.5
0.0007	-0.042	0.0037	-0.0008	82.5
0.0007	-0.0083	0.0037	0.0037	82.4
0.0015	0.0067	0.0015	0.0075	82.4
0	0.0022	0.0022	0.0067	82.4
0.0007	0.0015	0.0037	0.0112	82.4
0.0022	0.0052	0.0022	0.0105	82.4
0.0007	0.024	0.0007	0.0007	82.3
-0.0008	0.009	0.0015	-0.0053	82.3
-0.0015	-0.0046	0.0007	-0.0053	82.3
-0.003	-0.0188	-0.0008	0.0022	82.3
-0.003	-0.0135	0.0007	0	82.3
-0.003	0.0045	0	-0.0015	82.3
-0.003	-0.0046	-0.0023	-0.0008	82.2
-0.0015	0.0067	-0.0015	0.0015	82.2
-0.0023	0.0067	-0.0015	0.0082	82.2
-0.0008	0.0097	-0.003	0.0045	82.2
-0.0008	0.0112	-0.003	-0.003	82.2
-0.0008	0.0097	-0.0038	-0.0091	82.1
-0.0008	0.0112	-0.0046	-0.0105	82.1
-0.0023	-0.003	-0.0038	-0.0098	82.1
-0.0008	-0.006	-0.0046	-0.0075	82.1
-0.0008	-0.003	-0.003	-0.003	82
-0.0015	0.0015	-0.0046	-0.0038	82
-0.003	-0.0046	-0.0053	-0.0038	82
-0.0023	-0.0083	-0.0046	-0.0068	81.9
-0.0023	0.003	-0.0008	-0.0083	81.9
-0.003	0.0217	0.0022	-0.0015	81.9
-0.0008	0.0255	0.006	0.0007	81.9
-0.0015	0.0097	0.0067	0	81.8
-0.003	0.0082	0.006	0.003	81.8
-0.0015	0.0135	0.009	0.009	81.8
-0.0008	0.0165	0.0067	0.0157	81.8
-0.0015	0.0157	0.0052	0.0255	81.7
-0.0038	0.0015	0.0052	0.027	81.7
-0.0053	-0.0113	0.003	0.0202	81.7
-0.006	-0.0173	0.0015	0.015	81.7
-0.0023	-0.0165	-0.0008	0.0082	81.7
-0.0023	-0.0128	-0.0015	0.0007	81.6
-0.0015	-0.0158	-0.0008	-0.0053	81.6
-0.0023	-0.0181	-0.0023	-0.0083	81.6
-0.0046	-0.0143	-0.0053	-0.0091	81.6
-0.0046	-0.0105	-0.0068	-0.0083	81.5
-0.0046	-0.0038	-0.0053	-0.0053	81.5
-0.0038	-0.0008	-0.003	-0.0046	81.5
-0.0015	0	-0.0015	-0.0038	81.4
0.0007	0.003	-0.003	-0.0068	81.4
-0.0008	0.0067	-0.003	-0.0091	81.4
0.0007	0.0075	-0.0015	-0.0083	81.4
0.0007	0.0015	-0.0008	-0.0083	81.4
0.0007	-0.0046	0.0015	-0.0068	81.4
0	-0.006	0.0007	-0.0046	81.3
-0.0008	-0.003	0.0007	-0.0015	81.3
-0.0015	-0.0015	0.003	-0.0023	81.2
-0.0046	0.0045	0.0037	-0.0053	81.2
-0.0015	0.0105	0.003	-0.0128	81.2
-0.0008	0.0097	0.0015	-0.0165	81.2
-0.0023	0.0082	0	-0.0075	81.2
-0.0015	0.0037	-0.0008	0.0052	81.1
-0.0015	-0.0015	-0.003	0.0045	81.1
-0.0023	-0.0046	-0.0038	-0.0015	81.1
-0.0023	-0.0053	-0.003	-0.0008	81.1
0	-0.0008	-0.0023	-0.0008	81
0.0007	0.012	-0.0015	-0.0015	81
0.0007	0.0157	-0.0015	0	81
-0.0008	0.0127	-0.0008	-0.003	81
-0.0008	0.0075	-0.0008	-0.0023	81
-0.0015	0.003	0.0015	-0.0008	80.9
-0.003	0.0007	0.0015	-0.003	80.9
-0.003	0.0007	0	0.0015	80.9
-0.003	0.0037	-0.0008	0.0037	80.9
-0.0023	0.0015	-0.0008	0.0015	80.8
-0.003	-0.0015	-0.0015	-0.0015	80.8
-0.0015	-0.0046	-0.003	-0.0038	80.7
-0.0008	-0.0053	-0.0046	-0.0068	80.7
0	-0.003	-0.0038	-0.015	80.7
-0.0015	-0.0128	-0.0015	-0.0165	80.7
-0.0015	-0.0248	0	-0.0068	80.7
0.0007	-0.0165	0.0015	0.0015	80.7
0.0015	-0.003	0.0022	0.0007	80.7
0.0007	-0.0105	0.0037	0.0015	80.6
-0.0008	-0.006	0.003	0.0067	80.6
-0.003	-0.0038	0.0015	0.0105	80.6
-0.0046	-0.003	-0.0008	0.0105	80.6
-0.003	0.0232	-0.0015	0.0037	80.6
-0.0046	0.0345	-0.0008	-0.0008	80.5
-0.0046	0.0045	0.0007	-0.0023	80.5
-0.0038	-0.0068	0.003	-0.0008	80.5
-0.0023	0.012	0.003	0.0022	80.5
-0.0015	0.009	0.0045	0.0015	80.5
-0.0023	0.0022	0.0045	0.0045	80.5
-0.0023	-0.0053	0.0045	0.0052	80.5
-0.0023	-0.0008	0.0007	0.0082	80.4
-0.0008	0.0052	0.0015	0.0097	80.4
0	0.0015	0.0037	0.0067	80.4
0	0.0015	0.0015	0.0045	80.4
0.0007	0.0022	0.0022	0.0067	80.4
0.0015	0.012	0.0007	0.0045	80.3
0.0007	0.0082	0.0007	-0.0053	80.3
-0.0015	-0.0046	-0.0008	-0.006	80.3
-0.003	-0.03	-0.003	-0.0053	80.3
-0.0015	-0.0278	-0.0046	-0.0053	80.2
-0.003	0.0037	-0.0053	0	80.2
-0.003	-0.003	-0.0046	-0.0008	80.2
-0.003	-0.0135	-0.003	0	80.2
-0.003	-0.0263	-0.0008	0.0007	80.2
-0.003	-0.0015	-0.0008	0.0007	80.1
-0.003	0.018	0.0007	-0.0046	80.1
-0.0015	-0.0038	0.0007	-0.0083	80.1
-0.0015	0.0052	0.0007	-0.003	80.1
-0.0015	-0.003	0	-0.0023	80.1
0	-0.0015	0.0007	0.0015	80.1
0	0.003	0.0037	0.0067	80
0	-0.0098	0.0015	0.012	80
-0.0008	-0.0143	0.0015	0.0112	80
0	-0.0068	0.0015	0.0067	79.9
-0.0008	0.003	0.003	0.0045	79.9
-0.0015	-0.0053	0.0045	0.003	79.8
-0.0015	-0.0023	0.003	0.0037	79.8
-0.0046	-0.0008	0	0.0015	79.7
-0.0046	0.0075	-0.0015	-0.003	79.7
-0.0053	0.0127	-0.0008	-0.0098	79.6
-0.0053	0.0052	-0.0008	-0.0091	79.6
-0.0046	-0.0008	0.0007	-0.0046	79.5
-0.0053	-0.0091	-0.003	-0.0068	79.5
-0.003	-0.0091	-0.0068	-0.0083	79.4
-0.0008	-0.0105	-0.0038	-0.0083	79.4
-0.0008	-0.0128	-0.0038	-0.0083	79.3
-0.0015	-0.0113	-0.0015	-0.006	79.3
-0.0008	-0.0105	0.0007	-0.003	79.2
0.0015	-0.0046	0.0037	-0.0008	79.2
0.003	-0.0008	0.0067	-0.0008	79.2
0.0045	0.0015	0.0052	-0.0008	79.1
0.0015	0.009	0.006	0.0015	79
0.0007	0.0165	0.0067	0.0045	79
0.0007	0.0195	0.0052	0.0067	79
-0.0008	0.0165	0.003	0.009	78.9
-0.0008	0.009	0.0007	0.006	78.8
-0.0015	-0.006	0	0.0045	78.8
-0.003	-0.0248	-0.0015	0.0082	78.7
-0.003	-0.0128	-0.003	0.0187	78.7
-0.003	-0.0105	-0.003	0.015	78.6
-0.0046	-0.0248	-0.003	-0.0068	78.6
-0.0053	-0.0263	-0.0053	-0.0181	78.5
-0.0046	-0.0346	-0.0046	-0.0173	78.4
-0.0053	-0.03	-0.0053	-0.0128	78.4
-0.006	-0.0285	-0.0053	-0.0105	78.3
-0.0046	-0.0158	-0.0038	-0.0068	78.3
-0.0053	0.0217	-0.0046	0.0015	78.2
-0.0053	0.051	-0.0046	0.0112	78.2
-0.003	0.0622	-0.0015	0.0112	78.1
-0.003	0.051	-0.0008	0.0067	78
-0.0015	0.0307	0.0007	0.006	78
-0.0008	0.012	0.0007	0.0045	77.9
-0.0008	0.0067	-0.0008	0.0052	77.9
-0.0015	0.0045	-0.0015	0.0045	77.8
-0.0023	-0.0015	0.0015	0	77.8
-0.0008	-0.0046	0.003	-0.006	77.7
-0.0008	-0.0068	0.003	-0.015	77.6
-0.0008	-0.0053	0.0052	-0.0173	77.6
0.0007	-0.003	0.0067	-0.0158	77.5
0	-0.0023	0.0037	-0.0135	77.5
-0.0023	0.0052	0	-0.0083	77.4
-0.0008	0.012	-0.0015	0	77.3
-0.0015	0.012	-0.0038	0.012	77.3
0.0007	0.0142	-0.003	0.021	77.2
-0.0008	0.0292	-0.0023	0.018	77.2
-0.003	0.045	-0.003	0.012	77.1
-0.0015	0.0315	-0.0038	0.0082	77
-0.0015	0.0075	-0.0053	-0.0008	77
-0.003	0.0007	-0.0015	-0.0068	76.9
-0.003	-0.0143	0.0007	0.0022	76.9
-0.0023	-0.0256	0.0037	0.018	76.8
-0.0023	-0.033	0.003	0.0105	76.7
-0.0023	-0.0405	0.0007	-0.0068	76.7
-0.0023	-0.0315	0.0015	-0.012	76.6
-0.003	-0.0248	-0.0008	-0.0105	76.6
-0.003	-0.0188	0.0007	-0.0083	76.5
-0.0015	-0.0046	0.0015	-0.0046	76.5
0.0007	0.0277	0.0015	0.0067	76.4
0.0015	0.0367	0.003	0.009	76.3
-0.0008	0.0022	0.0037	0.0015	76.3
-0.0015	-0.003	0.0007	-0.0015	76.2
-0.0023	-0.0038	-0.003	-0.0075	76.1
-0.003	-0.0083	-0.003	-0.0105	76.1
-0.0015	-0.0068	-0.0023	-0.0135	76
-0.003	-0.0233	-0.0015	-0.0128	76
-0.003	-0.0383	-0.0008	-0.003	75.9
-0.0008	-0.0248	0.0015	0.0045	75.8
-0.0008	0.0022	0.0045	0.0105	75.8
-0.0008	0.0045	0.0082	0.0067	75.7
0.0007	0.0105	0.0105	0.0082	75.6
0	0.0075	0.0075	0.009	75.6
0.0007	0.0045	0.0045	0.003	75.5
0.0022	0.0105	0.003	-0.0008	75.5
0.0015	0.0007	0.0007	-0.0046	75.4
0.0015	-0.0023	0.0015	-0.0053	75.3
0.0022	-0.0023	-0.0008	-0.0046	75.2
0.0007	0.0045	-0.003	-0.0023	75.2
-0.0015	0.0052	-0.0038	-0.0091	75.1
-0.0023	0.0075	-0.0023	-0.0105	75.1
-0.0008	0.0097	-0.0046	0.0015	75
-0.0023	0.0037	-0.0053	0.0097	74.9
-0.003	-0.0015	-0.0015	0.009	74.8
-0.003	-0.0068	-0.0015	0.0082	74.8
-0.003	-0.0046	-0.0023	0.0052	74.7
-0.0015	-0.0046	-0.0008	-0.003	74.7
-0.003	-0.0083	-0.0015	-0.0053	74.6
-0.003	-0.012	-0.0023	-0.0075	74.5
-0.003	-0.0165	-0.003	-0.0091	74.5
-0.003	-0.033	-0.0015	-0.0068	74.4
-0.0046	-0.0383	-0.0008	-0.0083	74.3
-0.0046	-0.0046	-0.0008	-0.0105	74.2
-0.0046	0.0015	-0.0015	-0.0158	74.2
-0.003	-0.0038	-0.0023	-0.0143	74.2
-0.0015	0.0015	-0.0023	-0.0083	74.1
-0.0015	-0.0203	-0.0015	-0.0075	74
-0.0023	-0.0135	0.0007	0.0015	73.9
-0.003	0.0127	0.003	0.006	73.9
-0.0015	0.0067	0.003	0.0007	73.8
-0.0015	0.0067	0.0045	0.0007	73.8
-0.0015	0.0232	0	0	73.7
-0.0015	0.0292	-0.003	0.0082	73.6
-0.0046	0.0382	-0.0015	0.018	73.5
-0.0038	0.0255	0.0007	0.0165	73.5
-0.0023	0	-0.0008	0.0165	73.4
-0.0015	-0.0218	-0.0008	0.0127	73.3
-0.0008	-0.0443	-0.0015	0.015	73.3
-0.0008	-0.015	-0.0008	0.0142	73.2
-0.0023	0.009	0.0007	0.0045	73.2
-0.0023	-0.015	0.0007	-0.0008	73.1
-0.003	-0.0046	0.003	0.0015	73
-0.0038	0.0412	0.0015	0	72.9
-0.003	0.0472	0.0022	-0.0083	72.8
-0.0008	0.039	0	-0.0053	72.8
0	0.03	-0.0015	-0.006	72.8
0	0.012	-0.003	-0.0113	72.7
-0.0008	0.0052	-0.003	-0.0091	72.6
-0.0015	0.0045	-0.003	-0.0105	72.6
-0.0015	-0.0015	-0.0038	-0.0113	72.5
-0.0015	-0.0105	-0.003	-0.0105	72.4
-0.0008	-0.0098	-0.003	-0.0105	72.4
0.0007	-0.0105	-0.0008	-0.0105	72.3
-0.0008	-0.0128	0.0037	-0.0158	72.2
0.0007	-0.0128	0.003	-0.0105	72.2
0	-0.0203	0.003	-0.0015	72.1
0	-0.027	0.0037	0.0015	72
0.0015	-0.0383	0.0052	0.0052	72
0.0007	-0.0323	0.0045	0.0105	71.9
-0.0015	-0.0083	0.0022	0.018	71.9
-0.003	0.0045	0.003	0.0195	71.8
-0.0015	0.009	0.0022	0.0187	71.7
0	0.018	0.0022	0.018	71.6
0.0007	0.024	0.003	0.015	71.5
-0.003	0.0142	0.0007	0.006	71.5
-0.0046	-0.0023	-0.0015	0.0052	71.5
-0.0046	-0.0128	-0.0015	0.009	71.4
-0.0053	-0.0218	-0.0008	0.003	71.4
-0.0038	-0.0203	0	-0.0046	71.3
-0.003	-0.0135	0.0015	-0.0113	71.2
-0.003	-0.0068	0.0007	-0.0128	71.2
-0.003	-0.003	0.0007	-0.012	71.1
-0.0046	0.0007	-0.0008	-0.0091	71.1
-0.0038	0.0157	-0.0023	-0.0083	71
-0.0015	0.0255	-0.0008	-0.0128	70.9
-0.0015	-0.003	-0.0015	-0.0165	70.9
-0.0015	-0.0443	0	-0.0225	70.8
-0.0008	-0.0443	0.003	-0.0225	70.7
-0.0008	-0.0225	0.0052	-0.012	70.7
-0.0015	-0.012	0.003	0.003	70.6
-0.0015	0.0067	0.0007	0.009	70.6
-0.0008	0.0427	0	0.0127	70.5
-0.0008	0.0375	-0.0008	0.015	70.4
-0.0015	0.0067	-0.0008	0.003	70.3
-0.0008	0.0105	0	-0.0098	70.3
0.0007	0.018	-0.0023	-0.0143	70.2
-0.0008	0.0232	-0.0046	-0.0105	70.2
-0.0015	0.018	-0.0038	0	70.1
-0.003	0.0045	-0.0046	0.0105	70.1
-0.0038	0.0045	-0.0038	0.0135	70
-0.0038	-0.0075	-0.003	0.0045	69.9
-0.0008	-0.0181	-0.003	-0.0075	69.9
0	-0.0105	0	-0.0173	69.8
0.0007	0.0045	0	-0.0233	69.7
0.0007	0.0045	0	-0.027	69.7
-0.0008	-0.003	0.0015	-0.0225	69.6
-0.0015	-0.0158	0.0007	-0.0105	69.6
-0.0023	-0.024	0.0007	-0.0015	69.5
-0.0015	-0.0256	0.0007	-0.0015	69.4
-0.0038	-0.0383	-0.0008	-0.0068	69.4
-0.003	-0.0203	-0.0015	-0.003	69.3
-0.0023	0.0045	-0.0008	-0.0068	69.3
-0.0023	-0.0008	-0.0015	-0.0256	69.2
-0.0023	0.0015	-0.0008	-0.0248	69.1
-0.003	0.012	0.0015	-0.0263	69
-0.0015	0.0195	0.003	-0.0256	69
-0.0015	0.027	0.0045	-0.003	68.9
-0.0008	0.027	0.0045	0.0165	68.8
-0.0015	0.0217	0.003	0.0195	68.8
-0.003	0.0075	0.003	0.0105	68.7
-0.003	-0.012	0.0037	0.0127	68.6
-0.0053	-0.0128	0.0015	0.024	68.5
-0.006	0.0112	-0.0023	0.0277	68.5
-0.0053	0.003	-0.0015	0.03	68.4
-0.0046	-0.0165	0	0.0255	68.3
-0.003	-0.0105	0.0015	0.0165	68.3
-0.0015	0.0037	0.0007	0.0052	68.2
-0.0008	0.009	-0.0008	-0.0046	68.1
0	0.0052	0.0007	-0.0083	68
0.0007	0.027	0.0015	-0.0143	67.9
0.0007	0.0412	0.0022	-0.0128	67.9
-0.0008	0.012	0.003	-0.0038	67.8
0	-0.0091	0.0007	0.0045	67.8
0.0007	-0.0158	0.0015	0.003	67.6
0.0007	-0.0181	0.0007	-0.0098	67.6
-0.0015	-0.0098	-0.0015	-0.0105	67.5
-0.0015	-0.0053	-0.0008	-0.0128	67.5
-0.0008	-0.003	-0.0046	-0.0105	67.4
-0.0008	-0.0046	-0.0046	-0.006	67.3
-0.0008	0.0022	-0.0053	-0.0046	67.2
-0.0008	0.0225	-0.003	-0.003	67.1
-0.0015	0.0067	-0.0023	-0.0046	67
-0.0008	-0.0203	-0.0008	0.003	67
0.0007	-0.0181	0.0015	0.0052	66.9
0	-0.0278	-0.0008	-0.0015	66.8
0.0007	-0.0346	0.0007	-0.0068	66.8
0	-0.0278	0.0045	-0.0091	66.7
0	-0.024	0.0075	-0.0083	66.6
0	-0.0068	0.0082	-0.0038	66.5
0.0015	0.0202	0.0105	0.0022	66.5
0.0015	0.0555	0.0105	0.012	66.4
-0.0008	0.057	0.0075	0.021	66.3
-0.0038	0.0277	0.0052	0.0202	66.2
-0.0046	0.0052	0.0045	0.0195	66.1
-0.0046	-0.0075	0.0045	0.0195	66.1
-0.0046	-0.0165	0.0045	0.0127	66
-0.0046	-0.0218	0.003	0.006	65.9
-0.003	-0.015	0.0015	-0.0015	65.8
-0.0046	-0.0195	-0.0008	-0.0023	65.7
-0.0038	-0.0225	-0.0008	-0.0015	65.7
-0.0046	-0.012	-0.0008	-0.0053	65.6
-0.0053	0.0112	-0.003	-0.0083	65.5
-0.0046	0.0322	-0.003	-0.0091	65.5
-0.0046	-0.0008	-0.0046	-0.0098	65.4
-0.0038	-0.0046	-0.0053	-0.0046	65.3
-0.0023	0.0052	-0.0053	0.0007	65.2
-0.0015	0.0142	-0.0038	0.006	65.2
-0.0023	0.0615	-0.003	0.0097	65.1
-0.0023	0.0427	-0.006	0.0045	65
-0.0015	-0.0091	-0.0068	-0.0015	64.9
-0.0008	-0.024	-0.0053	-0.0015	64.8
0.0015	-0.0053	-0.0038	-0.0015	64.8
0.0015	0.0015	-0.003	-0.0023	64.7
0.0007	-0.0128	-0.0008	-0.0008	64.6
0.0007	0.0067	0.0007	-0.0015	64.5
-0.0015	0.0435	0.0007	-0.0015	64.5
0	0.033	0.0007	-0.0008	64.4
0.0007	-0.003	0.0015	0.0082	64.3
0.003	-0.0038	0.003	0.0165	64.3
0.003	-0.0181	0.0007	0.0105	64.2
-0.0008	-0.0315	-0.0008	0.003	64.1
-0.0008	-0.0158	-0.0023	0.0015	64.1
-0.0015	-0.0113	-0.006	0.0007	64
-0.0038	-0.0098	-0.0068	-0.0015	63.9
-0.003	-0.0105	-0.0068	-0.006	63.9
-0.0038	-0.0105	-0.003	-0.0068	63.8
-0.0046	-0.0091	-0.003	-0.0023	63.7
-0.0038	-0.0113	-0.0046	-0.0008	63.6
-0.0038	-0.015	-0.0038	-0.0038	63.6
-0.003	-0.0158	-0.003	-0.0053	63.5
-0.0046	-0.0128	-0.0015	-0.0023	63.4
-0.003	-0.0105	-0.0015	0.0007	63.4
-0.0023	-0.0075	0	0.003	63.3
-0.003	-0.0053	-0.0008	-0.003	63.2
-0.0015	-0.0105	-0.0008	-0.0015	63.2
-0.0023	-0.0143	-0.0015	0	63.1
-0.0023	-0.0135	-0.0015	-0.003	63
-0.0015	-0.0105	-0.0015	-0.0075	63
-0.0015	-0.006	-0.0023	-0.012	62.9
-0.0008	0.0007	-0.003	-0.0075	62.9
-0.0008	0.0082	-0.0008	-0.0023	62.8
0.0007	0.0142	0	-0.0008	62.7
0.0007	-0.0008	-0.0015	-0.0046	62.7
0	-0.012	0	-0.0083	62.6
-0.0008	-0.0091	0.0007	-0.0023	62.5
-0.003	-0.0188	0.0007	-0.003	62.5
-0.003	-0.0158	0	-0.0075	62.4
-0.003	-0.0053	-0.0008	-0.0098	62.4
-0.0023	0.0105	-0.003	-0.0015	62.3
-0.0015	0.0285	-0.0023	0.0037	62.2
-0.003	0.024	-0.0008	0.0037	62.2
-0.0023	0.039	-0.0008	0.0015	62.1
-0.003	0.0405	0	-0.0046	62.1
-0.0008	0.0112	0.0015	-0.0068	62
0.0015	0.0195	0.0037	-0.0091	62
0.0007	0.0127	0.0045	-0.006	61.9
-0.0015	-0.003	0.0045	-0.0083	61.9
-0.0015	-0.0293	0.003	-0.0091	61.8
-0.0015	-0.0443	0.0022	-0.0023	61.7
-0.0008	-0.006	0.0022	0.0007	61.7
-0.0015	-0.0046	-0.0015	0.0007	61.6
-0.0008	-0.0083	0.0007	0.0022	61.6
0	-0.0015	0.0007	0.0075	61.6
-0.0015	-0.0023	-0.0008	0.012	61.5
-0.0008	0.0045	-0.0008	0.009	61.4
-0.0015	0.0082	-0.003	-0.0008	61.4
-0.003	0.0045	-0.0015	-0.012	61.3
-0.003	-0.0083	-0.0015	-0.0188	61.3
-0.0046	-0.0158	-0.0015	-0.0135	61.2
-0.0038	-0.0128	-0.0008	0.003	61.2
-0.0015	-0.0143	-0.0008	0.0082	61.1
-0.0023	-0.027	0.0015	0.0127	61.1
-0.0015	-0.015	0.0007	0.0165	61
0	0.027	-0.0008	0.0067	60.9
0.0007	0.0412	0.0007	0.012	60.9
0.0007	0.0247	0.0015	0.0157	60.9
-0.0008	0.0172	-0.0008	0.0045	60.8
-0.0015	0.0015	0.0007	-0.0105	60.7
-0.0023	-0.0083	0.003	-0.0195	60.7
-0.0015	-0.0068	0.003	-0.0128	60.7
-0.0015	-0.0143	0.003	-0.0023	60.6
-0.003	-0.0068	0.0052	-0.0015	60.6
-0.003	-0.0038	0.0067	0.0007	60.5
-0.0015	0.0045	0.003	0.0022	60.4
0.0007	0.0262	0.0015	0.0037	60.4
0	0.027	0.0015	0.0037	60.3
-0.0015	0.0157	0.0045	-0.003	60.3
-0.0023	-0.0008	0.0037	-0.0068	60.3
-0.003	-0.0098	0.003	-0.0135	60.2
-0.0038	-0.0083	0.0015	-0.0165	60.2
-0.0038	-0.0053	-0.0008	-0.0181	60.1
-0.0038	-0.0105	0.0007	-0.0181	60
-0.003	-0.0113	-0.0008	-0.012	60
-0.0015	-0.0068	-0.0008	-0.0053	59.9
-0.0015	-0.012	-0.0015	0.0045	59.9
-0.0023	-0.0218	-0.0015	0.0075	59.8
-0.003	-0.0218	-0.0015	-0.003	59.8
-0.0038	-0.0105	-0.0015	-0.0105	59.7
-0.0023	-0.0053	-0.0008	-0.0098	59.6
0	-0.0098	-0.0008	-0.0083	59.6
0.0007	0.0022	0	-0.015	59.5
-0.0015	0.0322	-0.0008	-0.0225	59.4
-0.0023	0.0532	0.0007	-0.0143	59.4
-0.0023	0.0322	0.0015	-0.0053	59.3
-0.0015	-0.0023	0.0022	0.0067	59.3
0	0.0142	0.0015	0.033	59.2
-0.0008	0.027	0	0.051	59.1
-0.0046	0.0037	-0.0015	0.0517	59.1
-0.0046	0.003	-0.0038	0.0315	59
-0.0053	-0.0015	-0.0015	0.0082	58.9
-0.0068	-0.0203	-0.0008	-0.003	58.9
-0.003	-0.0113	0.0007	-0.0053	58.9
-0.003	-0.0083	-0.0008	-0.0083	58.8
-0.003	-0.0143	-0.003	-0.0158	58.7
-0.0015	-0.0181	-0.0008	-0.0143	58.6
-0.0008	-0.0203	-0.0008	-0.0068	58.6
0.0007	-0.0128	0.0007	-0.003	58.5
-0.0023	-0.0105	-0.0008	-0.0068	58.5
-0.0023	-0.0225	-0.003	-0.0105	58.4
-0.0015	-0.0263	-0.0046	-0.0068	58.3
-0.0008	-0.0053	-0.003	-0.0053	58.3
0.0007	0.051	-0.0015	-0.006	58.2
0	0.0975	0.0007	-0.0105	58.1
-0.0015	0.0232	0.003	-0.0158	58
-0.0015	-0.012	0.0037	-0.0143	58
-0.0008	0.0112	0.0037	-0.012	57.9
-0.0008	-0.0075	0.0045	0.0015	57.8
-0.0008	0.0075	0.0037	0.0105	57.8
-0.0015	-0.0046	0.0015	0.003	57.7
-0.0015	-0.0053	0.0022	0.0022	57.6
-0.0008	-0.0008	0.0045	0.009	57.6
0.0007	-0.0015	0.0067	0.0165	57.5
0	0.0015	0.0052	0.0142	57.5
-0.0015	-0.012	0.006	0.0045	57.3
-0.0046	-0.0128	0.0067	0.0045	57.3
-0.0046	-0.0218	0.0022	0.003	57.2
-0.003	-0.012	0.0045	0.0022	57.1
-0.003	-0.0098	0.0052	0.0015	57.1
-0.0046	-0.0075	0.0052	-0.0008	57
-0.0046	-0.0053	0.003	0.0007	56.9
-0.003	-0.0105	0.0007	-0.003	56.8
-0.0015	-0.0053	-0.0008	-0.0053	56.8
-0.0008	-0.0105	-0.0046	-0.0053	56.7
-0.0008	-0.012	-0.006	-0.0083	56.6
-0.0008	-0.0143	-0.0068	-0.0053	56.6
-0.0008	-0.0023	-0.0053	-0.0008	56.5
0.0007	0.0015	-0.0023	-0.003	56.4
0.0007	-0.0098	-0.0015	-0.0008	56.3
0.0015	-0.0008	-0.0008	0.0037	56.2
0.0022	0.0157	-0.0008	0.003	56.2
-0.0008	0.0127	-0.0023	0.006	56.1
-0.0015	0.0075	-0.003	0.0135	56
-0.0008	0.0142	-0.0015	0.018	56
0	0.009	-0.0023	0.0142	55.8
-0.0015	0.0067	-0.0015	0.0067	55.8
-0.0023	0	0.0007	-0.0008	55.7
-0.0015	-0.0105	0	-0.0068	55.6
-0.0015	-0.0158	0	-0.0046	55.6
-0.003	-0.0203	-0.0015	-0.0053	55.5
-0.0023	-0.0181	-0.003	-0.0091	55.4
-0.0015	-0.0158	-0.003	-0.0105	55.3
-0.0023	-0.0075	-0.0023	-0.0091	55.2
-0.0015	0.0127	-0.0015	-0.0046	55.1
-0.0015	0.0442	-0.003	-0.0015	55
-0.0008	0.0382	-0.003	0.0007	55
-0.0008	-0.0015	-0.0023	-0.003	54.9
0.0007	-0.0165	-0.0023	-0.0053	54.8
-0.0008	-0.0225	-0.003	-0.0068	54.7
0.0007	-0.0203	-0.0015	-0.0053	54.6
0	-0.0256	0	0	54.5
-0.0008	-0.03	0.0007	0.003	54.5
0	0.0052	0.0007	0.0015	54.4
0.0007	0.054	-0.0008	0.0022	54.3
0	0.069	0	0.0082	54.2
-0.0015	0.042	0	0.0037	54.1
-0.0008	0.012	0.0015	0.003	54
-0.0008	0.0045	0.0015	0.0022	54
-0.0015	0.0007	0.0015	0.003	53.9
-0.0015	-0.003	-0.0008	0.006	53.8
-0.0015	-0.0113	-0.0015	0.003	53.7
-0.0023	-0.015	-0.0008	0.0112	53.6
-0.0015	-0.0038	-0.0008	0.009	53.5
-0.0038	-0.003	-0.0008	0	53.4
-0.0046	-0.0105	-0.003	-0.0008	53.3
-0.0053	-0.0105	-0.003	-0.0015	53.3
-0.0068	-0.015	-0.0008	-0.003	53.2
-0.006	-0.0195	-0.0015	-0.0091	53.1
-0.0068	-0.0278	-0.0046	-0.015	53
-0.0046	-0.0338	-0.003	-0.012	52.9
-0.003	-0.0368	0.0007	-0.0098	52.8
-0.0046	-0.0443	0.0015	-0.0023	52.7
-0.003	-0.0405	0.003	0.0082	52.6
-0.003	-0.027	0.0045	0.0142	52.6
-0.003	0.0157	0.0045	0.0277	52.4
-0.0015	0.0622	0.003	0.0232	52.4
-0.0015	0.0322	0.0015	-0.0023	52.3
-0.0008	0.0015	0.0007	-0.0083	52.2
-0.003	0.0345	0.0022	-0.003	52.1
-0.0046	0.0315	0.0022	-0.0015	52
-0.0023	0.018	0.0015	-0.0008	51.9
-0.003	0.015	0.0007	0.0015	51.8
-0.0015	0.018	0.0015	0.0045	51.7
0.0015	0.0202	0.0015	0.0015	51.7
0.0022	-0.006	0.0015	0.0015	51.6
0.0015	-0.027	0.003	0.0045	51.5
0.0007	-0.0465	0.003	0.003	51.4
0.0007	-0.0233	0.0015	-0.0015	51.3
0	-0.0046	0.0015	-0.0083	51.3
-0.0015	-0.0143	0.0007	-0.0105	51.2
-0.0023	-0.0075	-0.003	-0.0091	51.1
-0.0038	-0.0128	-0.003	-0.0091	51
-0.0046	-0.0083	-0.0015	-0.0053	50.9
-0.0053	-0.0091	-0.0008	-0.0008	50.8
-0.0053	-0.0098	0.0007	-0.0053	50.7
-0.0046	-0.0173	0.0022	-0.012	50.6
-0.003	-0.0338	0.0022	-0.0128	50.5
-0.0008	-0.027	0.0007	-0.0113	50.4
0	-0.0091	0.0015	-0.0091	50.4
0.0007	-0.0046	0.0015	-0.0105	50.3
0.0007	-0.006	0.0007	-0.0075	50.2
0.003	0.0315	0.0022	0	50.1
0.0022	0.0862	0.0022	0.0052	50
0.0007	0.0787	0.003	0.0015	49.9
0.0007	0.03	0.0022	-0.0046	49.8
0.0007	0.0255	0.003	-0.0091	49.7
0.0015	0.0202	0.0037	-0.0091	49.6
0.0007	-0.0098	0.0022	-0.0015	49.5
-0.0008	-0.0218	0.0037	0.0007	49.4
-0.0008	-0.0128	0.0022	0.0007	49.3
-0.0023	-0.0143	-0.0015	-0.003	49.2
-0.0015	-0.0383	-0.0008	0	49.1
0	-0.0315	0.0007	0.0097	49
-0.0008	-0.0158	0	0.0187	49
-0.0015	-0.0128	-0.0008	0.0067	48.8
-0.0038	-0.0046	-0.003	-0.0098	48.8
-0.0046	0.0307	-0.0023	-0.0075	48.7
-0.0046	0.057	-0.003	-0.0091	48.6
-0.0038	0.009	-0.0046	-0.0091	48.5
-0.0046	-0.024	-0.003	-0.0046	48.4
-0.0046	-0.024	-0.0023	0.003	48.3
-0.0038	-0.0143	-0.0046	0.012	48.2
-0.003	0.048	-0.0068	0.0135	48.1
-0.0015	0.0517	-0.0068	0.0045	48
0	0.015	-0.0053	-0.0046	47.9
-0.0015	0.0067	-0.0015	-0.0046	47.8
-0.0008	-0.0068	-0.0008	-0.012	47.7
-0.0008	-0.0105	-0.0008	-0.0105	47.6
-0.0015	-0.0398	0.0022	-0.0098	47.6
0	-0.0413	0.0037	-0.0023	47.4
-0.0008	-0.0308	0.0022	0.0105	47.3
-0.0008	-0.0285	-0.0008	0.012	47.2
-0.0015	-0.0008	0.0007	0.0217	47.2
-0.0008	0.0345	0.0007	0.027	47.1
-0.0008	0.0532	0.0007	0.0195	46.9
-0.0008	0.048	-0.0008	0.0142	46.9
-0.0008	0.0525	0.0007	0.0097	46.8
-0.0023	0.024	0.0015	0.0052	46.7
-0.0008	-0.012	0	0.003	46.6
-0.0008	-0.0181	0.0007	-0.003	46.5
-0.003	-0.0181	0.0007	-0.0113	46.4
-0.0038	-0.0128	-0.0008	-0.0105	46.3
-0.003	-0.021	-0.0008	-0.0105	46.2
-0.003	-0.0225	0.0015	-0.0098	46.1
-0.003	-0.0165	0.0007	-0.0128	46
-0.003	-0.0128	-0.0008	-0.0181	45.9
-0.0015	0.0007	-0.0008	-0.0218	45.9
-0.0015	0.0097	-0.0008	-0.0181	45.8
-0.0008	0.0052	0.0015	-0.0105	45.7
-0.0008	-0.0015	0.0007	-0.0038	45.5
-0.0015	-0.0023	0.0007	-0.0023	45.4
0.0007	-0.0128	0.0015	-0.0008	45.4
-0.0015	-0.0181	0.0037	0.003	45.3
-0.0008	-0.0165	0.0037	0.0007	45.2
-0.0008	-0.0203	0.0037	-0.0015	45
-0.0008	-0.0256	0.0037	0.003	45
0.0007	-0.0428	0.0045	0.003	44.9
-0.0015	-0.0405	0.0052	0.0007	44.8
-0.0023	-0.0068	0.0045	0.0037	44.7
-0.003	0.0067	0.0037	0.009	44.6
-0.0015	0.0435	0.0022	0.0127	44.5
-0.0015	0.0615	0.0015	0.0067	44.4
-0.0015	0.0187	-0.0015	0	44.3
-0.003	0.0097	-0.0038	-0.0038	44.2
-0.0008	0.0067	-0.0053	-0.0046	44.1
0.0007	0.0052	-0.0053	-0.0083	44
0	0.0097	-0.003	-0.0083	43.9
-0.0008	0.0015	-0.003	-0.0075	43.8
0.0007	-0.0015	-0.0046	-0.006	43.7
0.0007	-0.0068	-0.0053	-0.006	43.6
0.0007	-0.0053	-0.0068	-0.006	43.5
-0.0008	-0.0068	-0.0053	0.003	43.4
-0.0023	-0.0091	-0.0046	0.0075	43.3
-0.0038	-0.0083	-0.0008	0.0045	43.2
-0.0046	0.009	-0.0015	-0.0091	43.1
-0.0053	0.0292	-0.0008	-0.0165	43
-0.0046	0.0037	0.0015	-0.0128	42.9
-0.0053	-0.0046	0.0007	-0.0008	42.8
-0.0046	-0.0008	0.0015	0.0127	42.7
-0.0046	-0.012	0	0.0172	42.6
-0.0008	-0.0128	-0.0023	0.0172	42.5
0.0007	-0.0256	-0.0023	0.0075	42.4
-0.0015	-0.0158	-0.0008	0.0007	42.3
-0.0015	0.0135	-0.0008	0.003	42.2
-0.0015	0.0105	-0.0015	0.0015	42
-0.0023	0.0007	-0.003	-0.0008	41.9
-0.003	0.0022	-0.003	-0.0015	41.8
-0.0008	0	-0.0023	-0.003	41.7
0.0007	0.0015	-0.0008	-0.0046	41.6
0.0022	0.0022	-0.0015	-0.0053	41.5
0.0007	0.0067	-0.0015	-0.0046	41.4
-0.0023	0.024	-0.0008	-0.0023	41.3
-0.0023	0.0135	-0.0008	-0.0008	41.2
-0.0023	-0.0128	-0.0008	-0.003	41.1
-0.0053	-0.0143	-0.0008	-0.0046	40.9
-0.0091	-0.0105	0	-0.003	40.9
-0.0091	-0.0195	0.0007	-0.0046	40.8
-0.0053	-0.015	0.003	-0.0068	40.7
-0.0038	-0.021	0.0037	-0.006	40.6
-0.003	0.003	0.0052	-0.0046	40.5
-0.0015	0.063	0.0052	-0.0053	40.4
-0.0015	0.0495	0.0037	-0.0023	40.3
-0.0023	0.0052	0.0052	0.0007	40.2
0.0007	0.0037	0.0067	0.0067	40.1
0.0007	-0.0008	0.0067	0.0075	40
-0.0008	-0.0091	0.0052	0	39.9
0	-0.012	0.0037	0.0022	39.8
-0.0015	-0.0203	0.0015	0.0067	39.7
-0.0015	-0.0158	0.0022	0.0075	39.6
-0.0015	0.012	0.0022	0.012	39.5
-0.0008	0.0165	0.0007	0.0097	39.4
0	-0.0023	0.0007	0.0075	39.3
-0.0008	0.0015	0	0.0075	39.1
-0.0008	-0.0068	0.0007	0.0082	39.1
-0.0008	-0.0105	0	0.0067	38.9
-0.0015	-0.0046	0.0007	0.0015	38.9
-0.003	-0.0143	0	0.0015	38.8
-0.0023	-0.0135	0.0007	-0.0023	38.7
-0.0015	-0.0225	0.0015	-0.0068	38.6
-0.0023	-0.0181	0.0007	-0.003	38.5
-0.0015	-0.0015	0	-0.0008	38.4
-0.0023	-0.0046	-0.0023	-0.0008	38.3
-0.0046	-0.0195	-0.003	-0.0023	38.2
-0.0023	-0.039	-0.0046	-0.003	38.1
-0.0008	-0.0428	-0.003	0.0015	38
-0.0008	0.0127	-0.0023	0.0052	37.9
-0.0015	0.066	-0.003	0	37.8
-0.003	0.0307	-0.0015	-0.0038	37.8
-0.0015	0.0285	-0.0008	0.0037	37.7
-0.0008	0.0375	0.0015	0.009	37.5
-0.003	0.0202	0	0.0142	37.4
-0.003	0.0165	-0.0015	0.0045	37.3
-0.003	-0.0225	-0.0008	-0.0068	37.3
-0.003	-0.0158	0.0007	0.0007	37.2
-0.003	-0.0068	0.0015	0.0067	37
-0.003	0.0105	0.0007	0.009	37
-0.0038	0.0225	0	0.003	36.9
-0.0038	-0.0083	-0.0008	-0.0053	36.8
-0.0046	0.0037	-0.0015	-0.003	36.7
-0.0038	0.0105	-0.0015	-0.0008	36.6
-0.003	-0.0038	0.0007	-0.0008	36.5
-0.0046	0.012	0	-0.0015	36.4
-0.0053	0.0105	0.0007	-0.003	36.3
-0.0046	-0.0188	0.0015	-0.006	36.2
-0.003	-0.021	0	-0.0113	36.1
-0.0015	-0.027	0	-0.0128	36
-0.0038	-0.024	-0.0008	-0.012	35.9
-0.0046	-0.0203	-0.0015	-0.0128	35.8
-0.0015	-0.0233	-0.0038	-0.012	35.7
0.0037	-0.0128	-0.0046	-0.0068	35.6
0.0097	-0.003	-0.0053	0.0007	35.5
