File Name: 9Nsen.log
Channel 1: 'RF', 21140 values, engineering units: mV, no filters.
Channel 2: 'BF', 21140 values, engineering units: mV, no filters.
Channel 3: 'VM', 21140 values, engineering units: mV, no filters.
Channel 4: 'ST', 21140 values, engineering units: mV, no filters.
Channel 5: 'FX', 1057 values, engineering units: deg, no filters, extrapolated from 50 to 1000 samples per second.

-0.0015	-0.0008	-0.0008	-0.0015	60
-0.0015	0	-0.0008	-0.0023	60
-0.0015	0.0007	-0.003	-0.003	60
0	0.0007	-0.0023	-0.0015	60
-0.0008	0.0007	-0.0015	-0.0015	60.1
-0.0008	0.003	-0.0015	-0.003	60.1
0.0007	0.0007	-0.0015	-0.0046	60.1
-0.0008	0	-0.003	-0.0046	60.1
-0.0023	0.0007	-0.0008	-0.0053	60.1
-0.0008	0.0007	-0.0015	-0.0068	60.1
0	-0.0015	-0.0038	-0.006	60.1
-0.0008	-0.0015	-0.0046	-0.0075	60.1
-0.0015	-0.0023	-0.0053	-0.0083	60.1
-0.0023	-0.0015	-0.003	-0.0053	60.1
-0.003	-0.0008	-0.0023	-0.0046	60.1
-0.0023	-0.0015	-0.0015	-0.0053	60.1
-0.0008	-0.0023	-0.0008	-0.003	60.1
-0.0015	-0.0008	0	-0.0008	60.2
-0.0008	0	0.0007	-0.0008	60.2
0	-0.0008	0.0022	0.0022	60.2
-0.003	-0.0008	0.0015	0.0007	60.2
-0.0023	0.0007	-0.0015	0.0007	60.2
-0.0038	0.0007	-0.003	-0.0008	60.2
-0.0038	-0.0008	-0.0046	-0.0015	60.2
-0.003	0.0007	-0.0046	-0.0008	60.2
-0.003	0	-0.0053	-0.0015	60.2
-0.0023	-0.0008	-0.0053	-0.0015	60.2
-0.003	0.0007	-0.0053	-0.003	60.2
-0.0008	-0.0008	-0.0038	-0.0015	60.2
-0.0008	0	-0.0015	0	60.2
-0.0008	-0.0008	-0.0015	-0.0008	60.2
-0.0008	0	-0.0015	-0.0008	60.2
0	0	-0.0015	0	60.2
0.0007	-0.0008	0.0007	-0.0008	60.2
0.0007	0.0007	0.0022	-0.0008	60.2
0.0007	0.0007	0.0022	0.0007	60.2
0.0007	0	0.0015	0.0007	60.2
0.0007	0	0.0015	-0.0008	60.2
0.0007	-0.0015	0	0.0015	60.2
-0.0008	-0.0015	-0.0008	0.0007	60.2
-0.0015	-0.0008	0.0007	0.0007	60.2
-0.0008	-0.0008	0.003	0.003	60.2
-0.0008	-0.0015	0.0007	0.003	60.2
-0.0015	-0.0008	0.0007	0.0015	60.2
-0.0008	0	-0.0008	0.0007	60.2
0.0015	0.0007	-0.0008	-0.0023	60.2
0.0015	0.0015	0.003	-0.003	60.2
0.0015	0.0022	0.006	-0.0023	60.2
0.0015	0.0015	0.0052	-0.0008	60.2
-0.0008	0.0007	0.0022	-0.0008	60.2
-0.0008	0.0015	0.0022	-0.0015	60.2
-0.0015	0.0015	0.0015	0	60.2
-0.0008	0.0022	0.003	0.0015	60.2
-0.0015	0.0022	0.006	0.0007	60.2
-0.003	0.0015	0.0045	-0.0015	60.2
-0.0038	-0.0015	0.003	-0.0015	60.2
-0.0038	-0.0015	0.0045	-0.003	60.2
-0.003	-0.003	0.0052	-0.0046	60.2
-0.003	-0.003	0.0037	-0.003	60.2
-0.003	-0.0008	0.003	-0.0046	60.2
-0.003	0	0.003	-0.0046	60.2
-0.003	0.0015	0.0007	-0.0023	60.2
-0.0015	0.003	0.0007	-0.003	60.2
-0.0015	0.0015	0	-0.0046	60.2
-0.0008	0.0007	0	-0.0023	60.2
0.0015	-0.0008	-0.0008	0.0007	60.2
-0.0008	-0.0015	-0.0008	0.003	60.2
-0.003	-0.0015	0.0007	0.003	60.2
-0.0023	-0.0015	0.0015	0.0037	60.2
-0.003	-0.0008	0.0022	0.0037	60.2
-0.003	0	0.0015	0.003	60.2
-0.0023	-0.0015	0.0015	0.0007	60.2
-0.0015	-0.0015	0.003	0.0022	60.2
-0.003	0.0007	0.0015	0.003	60.2
-0.0046	-0.0008	0	-0.0008	60.2
-0.003	-0.0008	0.0015	-0.0015	60.1
-0.0046	-0.0015	0.0015	-0.003	60.1
-0.0053	-0.0015	0.0007	-0.0023	60.1
-0.0053	0.0007	0.0007	-0.0015	60.1
-0.0053	0.0007	0.0015	-0.0008	60.1
-0.0046	0.0007	0.0007	0.0022	60.1
-0.003	-0.0008	-0.003	0.0045	60.1
-0.0015	-0.0015	-0.006	0.0037	60.1
-0.0008	-0.003	-0.0068	0.0015	60.1
-0.0008	-0.003	-0.0068	-0.0023	60.1
-0.0008	-0.0015	-0.0053	-0.0053	60.1
-0.0023	-0.003	-0.0023	-0.0053	60.1
-0.0038	-0.0038	0.0007	-0.0068	60.1
-0.0046	-0.003	0.0007	-0.0083	60.1
-0.0046	-0.0015	-0.0008	-0.0075	60.1
-0.0053	-0.0015	-0.0015	-0.006	60.1
-0.0038	-0.0023	-0.0008	-0.003	60.1
-0.003	-0.0008	0	-0.0008	60.1
-0.0023	-0.0015	-0.0015	0.0015	60.1
-0.0015	-0.0008	-0.0008	0.003	60.1
-0.0015	0.0007	0.0007	0.0007	60
-0.0015	-0.0015	-0.0015	0.0015	60
-0.0046	-0.0015	-0.0015	0.0052	60
-0.0053	0	-0.0008	0.0052	60
-0.0053	-0.0008	0.0007	0.0067	60
-0.0038	-0.0008	-0.0023	0.0067	60
-0.0023	-0.0015	-0.003	0.0067	60
-0.0023	-0.0015	-0.0008	0.0075	60
-0.003	-0.0015	0	0.0067	60
-0.0038	-0.0008	0.0007	0.0037	60
-0.0046	-0.0008	0.0015	0.0007	60
-0.0053	0.0007	0.0007	0.0007	60
-0.0038	-0.0008	0.0007	0.0015	60
-0.0008	-0.0023	0.0015	0.0015	60
0	-0.0015	0.0022	0.0015	60
-0.0015	-0.0015	0.003	0	60
-0.0023	-0.0015	-0.0008	-0.0008	60
-0.0015	-0.0008	-0.0008	-0.0008	60
-0.0008	-0.0023	-0.0015	-0.0008	60
-0.0015	-0.0023	-0.003	-0.0008	60
-0.0008	-0.003	-0.003	-0.003	60
-0.0008	-0.003	-0.0038	-0.0023	60
-0.003	-0.0046	-0.0046	-0.0038	60
-0.0038	-0.0068	-0.0015	-0.0046	60
-0.003	-0.0053	-0.0008	-0.0038	60
-0.0038	-0.003	-0.0008	-0.003	60
-0.003	-0.003	-0.0008	-0.0015	60
-0.0023	-0.0023	-0.0015	-0.0015	60
-0.0015	-0.0015	-0.0015	-0.0008	60
-0.0015	-0.0008	-0.0008	-0.0008	60
-0.0008	-0.0015	-0.0015	-0.003	60
-0.0008	-0.0038	-0.0015	0.0007	60
-0.0008	-0.0023	0	0.0052	60
-0.0008	-0.0008	0.0007	0.0052	60
0.0007	0.0007	0.0015	0.0067	60
0.0007	-0.0008	0.0015	0.0045	60.1
0.0007	-0.0008	-0.0008	0.0022	60.1
0	0	0	0.0037	60.1
-0.0015	0.0007	0.0022	0.0007	60.1
-0.0023	-0.0008	0.0022	-0.003	60.1
-0.0023	-0.0008	0.003	-0.006	60.1
-0.003	0	0.0037	-0.0046	60.1
-0.003	0	0.0052	-0.003	60.1
-0.003	0.0015	0.0037	-0.0053	60.1
-0.003	0.0015	0.0015	-0.006	60.1
-0.003	0.0022	-0.0023	-0.0068	60.1
-0.003	0.0007	-0.003	-0.0068	60.1
-0.0046	-0.0008	-0.0015	-0.0053	60.1
-0.0053	-0.0008	-0.0008	-0.0038	60.1
-0.0046	0.003	-0.0008	-0.0008	60.1
-0.0038	0.003	-0.0015	0.0015	60.1
-0.003	0.0015	-0.0008	0.0015	60.1
0	0.0045	0.0007	-0.003	60.1
0.0007	0.0022	0.0015	-0.003	60.1
0.0007	0.003	0.0015	-0.003	60.1
-0.0008	0.0022	0.003	-0.0046	60.1
-0.003	0.0015	0.0015	0.0015	60.1
-0.0008	0.0022	0.0037	0.0007	60.1
-0.0008	0.0022	0.0052	0.0022	60.1
-0.0015	0.0007	0.003	0.003	60.1
-0.0015	0.0007	0.003	0.0015	60.1
-0.0015	-0.0008	0.0022	0.003	60.1
-0.0008	-0.0008	0.003	0.003	60.1
-0.0008	0.0015	0.0067	0.0052	60.1
-0.0015	0.0022	0.0052	0.0045	60.1
-0.0008	0.0007	0.0037	0.0037	60.1
-0.0008	-0.0008	0.0015	0.0045	60.1
-0.0008	0.0007	-0.0008	0.0022	60.1
-0.0015	0.0007	-0.0008	0.0015	60.1
-0.0023	-0.0008	-0.0008	0.0007	60.1
-0.0015	-0.0023	-0.0015	-0.0015	60.1
-0.0015	-0.003	-0.0038	-0.0046	60.1
-0.0008	-0.0015	-0.0015	-0.0053	60.1
-0.0015	-0.003	-0.003	-0.0046	60.1
-0.0008	-0.0023	-0.003	-0.0015	60.1
-0.0008	-0.003	-0.0015	-0.0015	60.2
-0.0023	-0.003	-0.0015	0	60.2
-0.0015	-0.0015	-0.003	-0.0008	60.2
-0.003	-0.0015	-0.0015	-0.0023	60.2
-0.003	-0.0008	-0.0023	-0.0046	60.2
-0.003	-0.0023	-0.003	-0.0038	60.2
-0.0038	-0.0015	-0.0015	-0.0015	60.2
-0.0038	-0.003	-0.0015	-0.0046	60.2
-0.0046	-0.0023	-0.0008	-0.0046	60.2
-0.0046	-0.003	-0.0008	-0.0015	60.2
-0.0053	-0.0053	-0.0008	-0.0008	60.2
-0.0038	-0.003	-0.0008	0	60.2
-0.0046	-0.0038	-0.0008	0.0015	60.2
-0.0015	-0.0046	-0.0015	0.0007	60.2
-0.0015	-0.0008	-0.0008	0	60.2
-0.0038	-0.0008	-0.0015	-0.0008	60.2
-0.003	-0.0008	0.0007	0.0007	60.2
-0.0023	0.0007	0.0045	0.0015	60.2
-0.0015	0.0015	0.006	0.0022	60.2
-0.0023	0.0007	0.0045	0.0022	60.2
-0.0015	-0.0008	0.0015	0.0022	60.2
-0.0008	0.0007	0	0.003	60.2
0	0.003	0.0007	0.003	60.2
-0.0008	0.0015	-0.0008	-0.0008	60.2
-0.0008	0.0007	-0.0008	-0.003	60.2
0.0015	-0.0008	-0.0015	-0.0008	60.2
0.0015	-0.0015	-0.0023	-0.003	60.2
0.003	-0.0023	-0.0023	-0.0068	60.2
0.0007	-0.003	-0.0046	-0.006	60.2
0.0007	-0.003	-0.0046	-0.0046	60.2
0	-0.003	-0.0015	-0.003	60.2
-0.0008	-0.0015	-0.0023	-0.0015	60.2
0	-0.0015	-0.0046	-0.003	60.2
-0.0008	-0.0015	-0.0038	-0.0023	60.2
-0.0008	0	-0.003	-0.0008	60.2
0.0007	0.0015	-0.0038	-0.0008	60.2
0.0015	0.0007	-0.0038	0	60.2
0.0007	0.0015	-0.0015	-0.0015	60.2
-0.0008	0.0022	-0.003	-0.0023	60.2
-0.0015	0	-0.0015	-0.0015	60.2
-0.0015	-0.0015	0.003	-0.0053	60.3
-0.0015	-0.0008	0.0045	-0.006	60.3
-0.0023	0.0007	0.0052	-0.0053	60.3
-0.0023	-0.0015	0.0045	-0.0068	60.3
-0.003	-0.003	0.0037	-0.0046	60.3
-0.0038	-0.0008	0.0007	-0.0015	60.3
-0.0038	0	0	-0.003	60.3
-0.0038	0.0007	0.0007	-0.003	60.3
-0.0038	-0.0015	0.0007	-0.0038	60.3
-0.003	-0.0015	0.0007	-0.0008	60.3
-0.0015	-0.0008	0.0007	0.0007	60.3
-0.0015	0	0	-0.0015	60.3
-0.0008	0.0015	-0.0015	-0.0015	60.3
-0.0015	0.0022	-0.0015	-0.0008	60.3
-0.0008	0.0015	0	-0.0023	60.3
-0.0008	0.0015	0.0022	-0.0015	60.3
-0.003	0.0022	0.003	-0.0015	60.3
-0.0015	0.0015	0.0022	-0.0008	60.3
-0.0008	-0.0008	0.0015	0	60.3
-0.0015	0.0007	0.0015	0.0007	60.3
-0.0023	0	0.0007	0	60.3
-0.0023	-0.0015	0.0015	-0.0015	60.3
-0.0015	-0.0008	0.0007	-0.0015	60.3
-0.003	0.0007	0.0015	0.0007	60.3
-0.0015	0.0007	0.0045	0.0015	60.3
-0.0008	-0.0008	0.003	0.0015	60.3
0.0015	0.0007	0.0022	0.0007	60.3
0.0022	0.0007	0.003	-0.0015	60.3
0.0022	0.0015	0.0007	-0.0023	60.3
0.003	0.0007	-0.0008	-0.0015	60.3
0.0015	0.0007	0	-0.0015	60.3
0.0007	0.003	0.0007	-0.0015	60.3
-0.0015	0.003	-0.0008	-0.0015	60.3
-0.0008	0.003	-0.0023	-0.0008	60.3
-0.0015	0.003	-0.0015	0.0022	60.3
-0.0015	0.003	0	0.003	60.3
0.0015	-0.0008	0.0015	0.0007	60.3
-0.0008	-0.0015	0.003	-0.0015	60.3
-0.0015	0	0.003	-0.003	60.3
-0.0023	-0.0046	0.003	-0.0023	60.3
-0.0008	-0.0046	0.0015	-0.003	60.3
-0.0008	-0.0015	0.0015	-0.003	60.3
-0.003	-0.0015	0.0007	-0.0023	60.3
-0.0008	-0.0015	0	-0.003	60.3
-0.0008	-0.0008	-0.0008	-0.0023	60.3
-0.0015	0	-0.0008	-0.0015	60.3
-0.0008	-0.0008	0	-0.0015	60.3
-0.0015	-0.0008	-0.0008	-0.0015	60.3
-0.0008	-0.0015	0.0007	-0.0015	60.3
-0.0008	-0.0008	0.0015	0.0015	60.3
-0.0008	-0.0015	0.003	0.003	60.3
0	-0.0023	0.0015	0	60.3
0	-0.003	-0.0015	-0.0008	60.3
0.0007	-0.003	-0.0015	-0.0015	60.3
-0.0008	-0.0038	-0.0008	0.0015	60.3
-0.0008	-0.0023	0.0015	0.0015	60.3
-0.0008	-0.0008	0	0	60.3
0.0007	-0.0015	-0.0008	-0.0008	60.3
0.0015	-0.0015	-0.003	-0.0046	60.3
0.0015	-0.0008	-0.0053	-0.0053	60.3
0.0007	-0.0008	-0.0038	-0.0023	60.4
-0.0008	-0.0015	-0.0015	-0.0008	60.4
-0.0008	-0.0008	-0.0008	-0.0015	60.4
-0.003	0.0007	0.0007	0	60.4
-0.003	-0.0015	0.0007	-0.0015	60.4
-0.0015	-0.0015	-0.0008	-0.003	60.4
-0.003	-0.0015	0.0007	-0.0046	60.4
-0.0046	-0.0008	-0.0008	-0.0038	60.4
-0.0053	-0.0008	-0.0008	-0.003	60.4
-0.0053	-0.0015	0.0007	-0.0053	60.4
-0.0038	-0.0015	-0.0008	-0.003	60.4
-0.0015	-0.003	-0.0008	-0.0015	60.4
-0.003	-0.0046	0.0007	-0.0008	60.4
-0.003	-0.003	-0.0008	0.0022	60.4
-0.0008	-0.003	0	0.0045	60.4
-0.003	-0.0008	-0.0008	0.0052	60.4
-0.0015	0.0007	-0.0008	0.0067	60.4
-0.0015	0.0007	-0.0015	0.0052	60.4
-0.0015	-0.0008	0.0007	0.0037	60.4
0.0007	-0.0023	0.0015	0.0007	60.4
-0.0008	-0.003	-0.0008	-0.003	60.4
-0.0015	-0.003	-0.003	-0.0015	60.4
-0.0038	-0.0015	-0.0038	-0.0015	60.4
-0.0046	-0.0008	-0.003	-0.0023	60.4
-0.0015	-0.0008	-0.003	-0.0015	60.4
-0.003	0	-0.0023	-0.0015	60.4
-0.0038	-0.0008	-0.0023	0.0007	60.4
-0.0046	-0.0008	-0.0015	0.0015	60.4
-0.003	0	-0.0015	0.0007	60.4
-0.003	-0.0008	-0.003	0.0007	60.4
-0.0053	-0.0015	-0.0023	0.0015	60.4
-0.0083	-0.0015	-0.0008	0.003	60.4
-0.0075	0.0007	-0.0008	0.0045	60.4
-0.0053	-0.0008	-0.0008	0.006	60.4
-0.003	-0.0008	0	0.0052	60.4
-0.0015	0.0007	-0.0015	0.0045	60.4
-0.0015	0.0007	-0.0038	0.0022	60.4
0	-0.0008	-0.0015	0.0007	60.4
-0.0015	-0.0046	-0.0015	0	60.4
-0.0008	-0.0038	-0.003	-0.0008	60.4
-0.0008	-0.0046	-0.0015	-0.0015	60.4
-0.0023	-0.0046	0.0015	-0.0008	60.4
-0.003	-0.003	0.0007	-0.003	60.4
-0.003	-0.0015	0.0007	-0.0046	60.4
-0.003	-0.0008	0.0007	-0.0046	60.4
0	-0.0008	0.0007	-0.0053	60.4
0	0.0015	0.0022	-0.0053	60.4
0.0007	0.0007	0.0007	-0.0046	60.4
0	0.0015	0.0015	-0.0023	60.4
-0.0015	0.0015	0.0037	-0.0015	60.4
-0.0008	0.0015	0.0015	0	60.4
-0.0015	0.0015	0.0015	0.0015	60.4
-0.0008	0.0007	0.0007	-0.0015	60.4
-0.0008	0.0007	0.003	-0.003	60.4
-0.003	0.0007	0.0067	-0.003	60.4
-0.0038	0.0015	0.0052	-0.0053	60.4
-0.003	0.0007	0.0045	-0.0053	60.4
-0.0008	-0.0015	0.003	-0.0046	60.4
-0.0023	-0.0015	0.0007	-0.0015	60.4
-0.003	0.0007	0.0015	-0.0008	60.4
-0.003	0.0015	0.0007	-0.0008	60.4
-0.003	0.0015	-0.0015	0.0015	60.4
-0.0038	0.0007	-0.0008	0.0007	60.4
-0.0038	0	0.0015	0.0007	60.4
-0.003	0.0007	0.003	0.0007	60.4
-0.0023	0.0007	0.0015	0.0007	60.4
-0.0038	0.003	0.0007	0	60.4
-0.0046	0.0015	-0.0015	-0.0008	60.4
-0.003	0	-0.0015	-0.0015	60.4
-0.003	0.0007	-0.003	-0.0015	60.4
-0.003	0.0007	-0.0046	0.0007	60.4
-0.0015	0.0007	-0.0023	0.0015	60.4
0	0.0022	-0.003	0.0015	60.4
0	0.0015	-0.0023	0.0015	60.4
0.0007	0.0015	-0.0008	0.0007	60.4
0.0007	0.0015	-0.0008	-0.0008	60.4
0.0007	-0.0015	-0.0008	-0.0015	60.4
0.0022	-0.0008	0	-0.0008	60.4
0.0015	-0.0008	-0.0008	-0.0023	60.4
-0.0008	-0.0008	0	-0.0046	60.4
-0.0008	-0.0008	0.0007	-0.0023	60.4
-0.0015	-0.0023	-0.0008	-0.0015	60.4
-0.0023	-0.0015	-0.0015	-0.0008	60.4
-0.0046	0.0007	-0.0038	0.0022	60.4
-0.0015	0.0022	-0.003	0.003	60.4
-0.0015	0.0015	-0.0008	0.0007	60.4
-0.003	0.0015	0.0015	-0.0015	60.4
-0.003	-0.0008	0.0022	-0.003	60.4
-0.0038	0.0007	0.0007	-0.0015	60.4
-0.003	-0.0008	0	0.0007	60.4
-0.003	-0.0038	-0.0008	0.0007	60.4
-0.003	-0.0038	-0.0008	0.003	60.4
-0.0015	-0.0015	-0.0015	0.0045	60.4
-0.0008	-0.003	-0.0015	0.003	60.4
-0.0008	-0.0023	0.0007	0.003	60.4
-0.0008	0	0.0022	0.003	60.4
-0.0008	-0.0023	0.0007	0.003	60.4
-0.0023	-0.0015	0.0015	0.0037	60.4
-0.003	-0.0008	-0.0015	0.0037	60.4
-0.003	-0.0015	-0.0046	0.0015	60.4
-0.0023	-0.0008	-0.0015	0.0007	60.4
-0.0015	-0.0015	-0.0023	-0.0008	60.4
-0.0015	-0.0015	-0.0008	-0.0008	60.4
-0.0008	-0.0023	-0.0008	-0.0015	60.4
0	-0.0008	-0.0008	-0.0023	60.4
-0.0015	-0.0008	-0.0015	-0.0015	60.4
-0.003	-0.0015	-0.003	-0.0008	60.4
-0.0015	-0.0023	-0.0015	-0.0015	60.4
-0.0015	-0.0015	0.0007	-0.0015	60.4
-0.0015	-0.0015	0.0022	-0.003	60.4
-0.003	-0.0015	0.0015	-0.003	60.4
-0.003	-0.0008	0.003	-0.003	60.4
-0.0046	-0.0023	0.0015	-0.0038	60.4
-0.0038	-0.003	0.0015	-0.003	60.4
0	-0.0015	0.0022	-0.0023	60.4
0	-0.0023	0.0015	-0.0053	60.4
-0.0008	-0.0023	0.0007	-0.0053	60.4
0	0.0007	-0.0008	-0.0053	60.4
-0.0015	0.0007	-0.0023	-0.0046	60.4
-0.0023	-0.0015	-0.003	-0.0015	60.4
-0.0023	-0.0008	-0.003	0	60.4
-0.003	0	-0.0023	0.0022	60.4
-0.0015	-0.0008	-0.0023	0.003	60.4
-0.0046	0.0007	-0.0008	0.0037	60.4
-0.0038	0	-0.003	0.0015	60.4
-0.0015	0	-0.0008	-0.0015	60.4
-0.0015	0	0	-0.0015	60.4
-0.0015	0	-0.0008	-0.0015	60.4
-0.0046	-0.003	-0.0008	-0.0023	60.4
-0.003	-0.0038	-0.0015	-0.0023	60.4
-0.0038	-0.0023	0	-0.0023	60.4
-0.003	-0.0008	0.0007	0	60.4
-0.0046	-0.0008	-0.0015	0.0015	60.4
-0.0046	-0.0008	-0.0015	0.0007	60.4
-0.0015	0.0015	-0.0023	0.0015	60.4
-0.0008	0.0007	-0.0023	0.0015	60.4
-0.0023	-0.0008	-0.0023	0.0015	60.4
-0.003	-0.0008	-0.0008	0.0007	60.4
-0.003	-0.0015	0.0007	-0.0015	60.4
-0.003	-0.0008	0.0015	-0.0038	60.4
-0.0046	-0.0008	0.0037	-0.0015	60.4
-0.003	-0.0015	0.003	-0.0008	60.4
-0.0015	-0.0008	0.0015	-0.0008	60.4
-0.0015	-0.0008	0.0007	-0.0023	60.4
-0.003	0.0007	-0.0008	-0.0053	60.4
-0.0015	-0.0008	-0.003	-0.0075	60.4
-0.0015	-0.0015	-0.003	-0.0083	60.4
-0.0023	-0.0008	-0.0038	-0.0068	60.4
-0.003	-0.0015	-0.0015	-0.0083	60.4
-0.003	-0.003	0.0007	-0.0068	60.4
-0.0015	-0.003	0.0015	-0.0046	60.4
0.0007	-0.0015	0.0015	-0.003	60.4
0.0007	-0.0015	0.0015	-0.0015	60.4
-0.0008	-0.0015	0.0007	0.0007	60.4
0.0015	-0.0008	0.003	0.0045	60.4
0.0015	-0.0008	0.003	0.003	60.4
-0.0015	0.0007	0.0007	0.0007	60.4
-0.0015	0.0015	-0.0015	-0.0023	60.4
-0.003	0.0007	-0.0015	-0.0038	60.4
-0.0015	-0.0015	-0.0008	-0.0015	60.4
0.0007	-0.0008	-0.003	-0.0008	60.4
0.0007	-0.0015	-0.003	-0.0008	60.4
0.0007	-0.0008	-0.0008	-0.0023	60.4
0.0007	0.0015	0	0.0007	60.4
-0.0015	0.0015	0.0015	0.0015	60.4
-0.0015	0.0007	0.0022	-0.0015	60.4
-0.003	-0.0008	0.0015	-0.0015	60.4
-0.003	0	0.0045	-0.0015	60.4
-0.0015	-0.0008	0.0015	-0.0008	60.4
-0.003	-0.0008	0	0.0007	60.4
-0.0023	-0.0008	0	0.0015	60.4
-0.003	-0.0008	-0.0015	0.0022	60.4
-0.003	-0.0008	-0.0038	0.0015	60.4
0.0007	0.0007	-0.0046	0.0022	60.4
0.0007	-0.003	-0.0046	0.0015	60.4
-0.0008	-0.003	-0.0053	0.0007	60.4
0	-0.0008	-0.003	-0.0015	60.4
-0.0015	-0.0008	-0.0015	-0.0046	60.4
-0.0015	0.0015	-0.0015	-0.0046	60.4
-0.003	0.0022	0.0007	-0.0015	60.4
-0.003	0.0015	0.0007	0.003	60.4
-0.003	0.0015	0.0007	0.0045	60.4
-0.0023	0.003	0.0022	0.003	60.4
-0.003	0.0037	0.0007	0.0015	60.4
-0.0015	0.003	-0.0015	0.0015	60.4
-0.0023	0.0022	0.0007	0.0007	60.4
-0.0023	0.0022	0.003	0	60.4
-0.003	0.0015	0.0015	-0.0015	60.4
-0.0053	-0.0008	0.0045	-0.0015	60.4
-0.0053	0.0007	0.0037	-0.0008	60.4
-0.0046	0	0.0015	-0.0038	60.4
-0.003	-0.0015	-0.0008	-0.0038	60.4
-0.0023	-0.0023	-0.003	-0.0046	60.4
-0.003	-0.0015	-0.0015	-0.0046	60.4
-0.0008	0	-0.0015	-0.003	60.4
-0.003	-0.0023	-0.0015	-0.003	60.4
-0.0015	-0.003	-0.0015	-0.0015	60.4
-0.0015	-0.003	-0.0015	-0.0008	60.4
-0.003	-0.0038	-0.0008	0.0015	60.4
-0.0038	-0.0015	-0.0008	-0.0015	60.4
-0.003	-0.003	-0.0008	-0.0008	60.4
-0.003	-0.003	-0.0023	0.0022	60.4
-0.0038	-0.0015	-0.0008	0	60.4
-0.003	-0.0015	0.003	-0.0008	60.4
-0.003	-0.0008	0.003	-0.0023	60.4
0.0007	-0.0023	0.0022	-0.0008	60.4
0.0015	-0.0038	0.0022	0.0015	60.4
0.0007	-0.0023	0.0015	0.0007	60.4
0.0015	-0.003	0.0015	0.0007	60.4
0.0022	-0.0015	0.0015	0.003	60.4
0.003	-0.0015	0.0015	0.0022	60.4
0.003	-0.003	0.0022	0.0007	60.4
0.0022	-0.0015	0.0052	0.0015	60.4
0.0015	-0.0015	0.006	0.0022	60.4
0.0022	0	0.0052	0.0022	60.4
0.0015	0	0.0037	0.0015	60.4
0.0007	0.0007	0.003	0.0022	60.4
0.0015	0.0015	0.0022	0.0007	60.4
0	0	0.0015	-0.0015	60.4
-0.0008	0.0007	0.0037	-0.0023	60.4
0.0007	0.0015	0.003	-0.0038	60.4
0.0007	-0.0008	0.0007	-0.0053	60.4
-0.0008	-0.0023	0.0007	-0.0038	60.4
-0.0008	-0.003	0.0015	-0.0023	60.4
-0.0015	-0.0015	-0.0015	-0.003	60.4
-0.0015	-0.0053	-0.003	-0.003	60.4
-0.0015	-0.0053	-0.003	-0.003	60.4
-0.0023	-0.003	-0.0053	-0.0015	60.4
-0.003	-0.0046	-0.003	-0.0015	60.4
-0.0046	-0.003	-0.0053	-0.0008	60.4
-0.0038	-0.0023	-0.0068	-0.0015	60.4
-0.003	-0.0015	-0.0046	-0.003	60.4
-0.003	-0.0023	-0.006	-0.003	60.4
-0.003	-0.003	-0.0046	-0.0023	60.4
-0.0023	-0.0015	-0.0008	-0.0008	60.4
-0.0015	-0.0008	-0.0015	0.0007	60.4
-0.0023	0.003	-0.0008	0.0052	60.4
-0.0023	0.0045	0.0015	0.0052	60.4
-0.0023	0.0037	0.0045	0.0015	60.4
-0.003	0.003	0.003	0.0007	60.4
-0.003	0.0007	-0.0008	-0.0008	60.4
-0.003	-0.0008	-0.0015	-0.0015	60.4
-0.0038	0.0007	-0.003	-0.0015	60.4
-0.0023	-0.0015	-0.0046	-0.0038	60.4
-0.0008	-0.003	-0.0053	-0.0046	60.4
-0.0015	-0.0023	-0.006	-0.0053	60.4
-0.0015	0	-0.0046	-0.0053	60.4
-0.003	0	-0.003	-0.003	60.4
-0.0023	-0.0008	-0.0008	-0.0015	60.4
-0.0038	-0.0015	-0.0008	-0.0023	60.4
-0.0008	-0.0008	0	-0.003	60.4
0.0007	-0.0008	-0.0008	-0.0008	60.4
-0.0008	-0.0008	-0.0008	-0.003	60.4
-0.0015	-0.0008	0.0015	-0.003	60.4
-0.0008	-0.0008	0.0015	-0.0015	60.4
0	0.0015	0.0022	-0.0015	60.4
-0.0008	0	0.0037	0.0015	60.4
0	0	0.0045	0.0015	60.4
-0.0008	0.0015	0.0045	0.0007	60.4
-0.0038	0.0015	0.003	0.0015	60.4
-0.0038	0.0015	0.0007	0.0007	60.4
-0.0038	0.0007	0.003	0.0015	60.4
-0.0046	0.0015	0.006	0.0022	60.4
-0.0046	0.003	0.0067	0.0015	60.4
-0.0046	0.0037	0.0052	0.0022	60.4
-0.0068	0.0015	0.003	0.003	60.4
-0.0053	-0.0008	0.003	0	60.4
-0.0053	0	0.0045	-0.0008	60.4
-0.0046	0.003	0.003	-0.0015	60.4
-0.0053	0.0045	0.0015	-0.003	60.4
-0.0046	0.0015	0.0007	-0.003	60.4
-0.003	0.0022	-0.0008	-0.0046	60.4
-0.003	0.0015	-0.0038	-0.0053	60.4
-0.003	0.0007	-0.0053	-0.0038	60.4
-0.0023	0.0015	-0.0053	-0.003	60.4
0.0007	0.0015	-0.0038	-0.0015	60.4
-0.0008	0.0007	-0.0023	0.0015	60.4
-0.0008	-0.0008	-0.0008	0.0045	60.4
-0.0008	-0.003	0.0007	0.0037	60.4
-0.0008	-0.0015	0.0015	0.0015	60.4
-0.0008	-0.0008	0.0015	-0.0008	60.4
-0.0008	-0.0023	0.0022	-0.0015	60.4
0	-0.0015	0.0037	-0.003	60.4
0	0.0007	0.0007	-0.0015	60.4
-0.0008	-0.0008	0.0007	-0.003	60.4
0	-0.0008	0.0007	-0.0015	60.4
-0.0015	-0.0015	0	-0.0015	60.4
-0.003	-0.0046	-0.0008	-0.0038	60.4
-0.0015	-0.0046	-0.0008	-0.0038	60.4
-0.0015	-0.0038	-0.0008	-0.0046	60.4
-0.0015	-0.0023	0.0007	-0.0038	60.4
0	-0.0008	0.0022	-0.003	60.4
0.0015	0	0.0007	0.0007	60.4
0.0007	0.0007	0.0015	0.0022	60.4
0.0007	-0.0008	0.0045	0.0037	60.4
0.0007	0	0.0052	0.006	60.4
0.0007	-0.0008	0.0052	0.0052	60.4
-0.0008	-0.0008	0.0045	0.003	60.4
0	-0.0008	0.0045	0.0015	60.4
0.0007	-0.0038	0.003	0.0015	60.4
-0.0015	-0.0038	0.0007	0.0015	60.4
-0.003	-0.0046	0.0007	0	60.4
-0.003	-0.003	-0.0008	-0.0008	60.4
-0.003	-0.0008	-0.003	0.0015	60.4
-0.0023	-0.003	-0.003	0.0007	60.4
-0.003	-0.003	-0.0023	0.0007	60.4
-0.0023	0.0007	-0.0015	-0.0015	60.4
-0.0008	0.0007	-0.0015	-0.0046	60.4
-0.0008	-0.0015	-0.0023	-0.0015	60.4
0.0007	-0.0015	-0.003	-0.0015	60.4
-0.0008	-0.0008	-0.003	-0.0008	60.4
-0.0023	0.0015	-0.0023	-0.0015	60.4
-0.0015	0	-0.0008	-0.0015	60.4
-0.0015	-0.0008	0.0007	0.0007	60.4
-0.0015	-0.0015	-0.0008	-0.0046	60.4
-0.0015	-0.0038	0.0007	-0.006	60.4
-0.0015	-0.003	0.0015	-0.0053	60.4
-0.003	-0.003	0	-0.0068	60.4
-0.0038	-0.0008	-0.0008	-0.006	60.4
-0.003	-0.0023	0.0007	-0.0053	60.4
-0.0008	-0.0023	0.0022	-0.0046	60.4
-0.0015	-0.0008	0.003	-0.0053	60.4
-0.0008	-0.0015	0.0045	-0.0046	60.4
-0.0008	0.0007	0.003	-0.0046	60.4
-0.003	0	0.0015	-0.003	60.4
-0.0023	-0.0008	0.0045	-0.0023	60.4
-0.0008	0.0015	0.0045	-0.0015	60.4
-0.0015	-0.0008	0.0052	-0.0015	60.4
-0.0015	-0.0023	0.0045	-0.0015	60.4
0	0	0.0022	0.0007	60.4
-0.0008	0.0007	0.0007	0.0007	60.4
-0.0008	0.0007	-0.0023	0	60.4
-0.0023	-0.0008	-0.0008	0.0015	60.4
-0.0046	-0.0008	-0.0023	0.0037	60.4
-0.003	-0.0015	-0.003	0.0052	60.4
-0.0023	-0.0008	-0.0046	0.0007	60.4
-0.0015	-0.0008	-0.003	-0.003	60.4
-0.0008	-0.0015	-0.0015	-0.0023	60.4
-0.003	-0.0015	-0.0015	-0.003	60.4
-0.003	-0.0015	-0.0008	-0.0008	60.4
-0.0046	-0.0008	0	0	60.4
-0.0023	-0.0008	-0.0008	0	60.4
-0.0015	-0.0023	0.0007	-0.0008	60.4
-0.0038	-0.0015	0.0022	0.0007	60.4
-0.003	-0.0008	0.0022	0.0015	60.4
-0.003	0.0015	0.003	0.003	60.4
-0.0015	0.0022	0.003	0.006	60.4
-0.0008	0.0015	0.003	0.0052	60.4
-0.0008	0.0015	0.003	0.0015	60.4
-0.0015	0.0007	0	0.0007	60.4
-0.0015	0	-0.0008	0.0022	60.4
-0.0015	0.0007	-0.0023	0.0015	60.4
-0.0046	-0.0008	-0.003	0.0015	60.4
-0.0046	-0.0008	-0.0023	0.0015	60.4
-0.0053	0	-0.0038	0	60.4
-0.0068	-0.0008	-0.0038	-0.0015	60.4
-0.0053	0	-0.003	-0.003	60.4
-0.0053	0	-0.003	-0.0046	60.4
-0.0046	0.0015	-0.003	-0.0046	60.4
-0.0023	-0.0008	-0.0015	-0.0068	60.4
-0.0015	-0.003	-0.003	-0.0046	60.4
-0.0015	-0.0008	-0.0008	-0.003	60.4
-0.0008	0	0.0015	-0.003	60.4
0.0007	-0.0008	0	0	60.4
0.0007	-0.0008	0.0007	-0.003	60.4
0	-0.0015	-0.0008	-0.0015	60.4
-0.0008	-0.0015	-0.0015	0.0015	60.4
-0.0015	-0.0008	-0.003	0.0007	60.4
-0.003	-0.0038	-0.0046	-0.0008	60.4
-0.003	-0.003	-0.0023	-0.0008	60.4
-0.003	-0.0008	-0.0015	0.0007	60.4
-0.0008	-0.0008	0.0007	0.0022	60.4
-0.0015	-0.0015	-0.0008	0.0022	60.4
-0.003	-0.0023	-0.0015	0.0007	60.4
-0.0015	-0.0015	-0.0023	-0.0008	60.4
-0.0015	-0.0015	-0.0046	0.0007	60.4
-0.0015	0.0007	-0.0046	0.0015	60.4
-0.0008	0.003	-0.0023	-0.0015	60.4
-0.0015	0.003	-0.0015	-0.0023	60.4
-0.0008	0.0015	0	-0.0008	60.4
-0.0023	0	0.0015	0.0015	60.4
-0.003	0.0007	0.0015	0.0022	60.4
-0.0023	0.0007	0.0022	0.0007	60.4
-0.003	0	0.0007	0.0007	60.4
-0.0015	-0.0008	-0.0008	0.0007	60.4
-0.003	-0.0008	-0.0008	0.003	60.4
-0.0046	0.0007	-0.0008	0.0022	60.4
-0.0053	-0.0008	0	-0.0008	60.4
-0.0053	0.0015	-0.0015	-0.0008	60.4
-0.0053	0.0015	-0.0023	-0.0008	60.4
-0.0053	0	-0.0008	0.0007	60.4
-0.0038	0	0.0007	-0.0008	60.4
-0.0046	0.0007	0.003	-0.0038	60.4
-0.003	0.0007	0.0052	-0.0038	60.4
-0.003	-0.0023	0.0052	-0.0023	60.4
-0.0015	-0.0008	0.0045	-0.0008	60.4
0.0007	-0.0015	0.006	0.0007	60.4
0.0007	-0.0046	0.0052	0.0022	60.4
0.0007	-0.0046	0.0022	0.0007	60.4
0.0015	-0.0053	0.0015	0.0007	60.4
-0.0008	-0.0046	-0.0008	0.0037	60.4
-0.0008	-0.003	0.0015	0.0015	60.4
-0.0008	-0.0023	0.0015	-0.0015	60.4
-0.0023	-0.0023	-0.0008	0.0007	60.4
-0.003	-0.003	0	-0.0008	60.4
-0.003	-0.003	0.0007	-0.003	60.4
-0.0023	-0.0015	0.0007	-0.0023	60.4
-0.0015	-0.0008	0.0007	-0.0015	60.4
-0.0015	-0.0015	0.0007	-0.0015	60.4
-0.0008	0.0007	0.0007	0	60.4
-0.0008	-0.0008	0.0007	-0.0008	60.3
-0.0008	-0.0008	0.003	-0.0023	60.3
-0.0008	-0.0023	0.0015	-0.0008	60.3
-0.0023	-0.003	-0.0015	-0.0015	60.3
-0.0038	-0.0008	-0.0023	-0.0008	60.3
-0.0038	-0.0023	-0.0015	-0.0008	60.3
-0.003	-0.0008	0.0007	-0.0015	60.3
-0.0015	0.0007	0.0022	-0.0046	60.3
-0.0008	-0.0015	0.0045	-0.0053	60.3
0.0007	-0.0008	0.0045	-0.0038	60.3
0.0015	0.0007	0.0045	-0.003	60.4
0.0007	-0.0008	0.003	-0.0015	60.4
-0.0008	0.003	0.003	-0.003	60.4
0.0007	0.0015	0.0007	-0.0046	60.4
0.0015	0.0007	-0.0015	-0.0046	60.4
0.0007	0.0015	-0.0015	-0.0046	60.4
-0.0008	-0.0008	0.0015	-0.003	60.4
0	0.0007	0.003	-0.003	60.4
-0.0008	0.0022	0.0015	-0.0015	60.4
0.0007	0.0037	0.0015	0	60.4
0.0015	0.0037	0.0015	0.0007	60.4
-0.0015	0.003	0.0007	0.0007	60.4
-0.0008	0.0007	0	0.0007	60.4
-0.0015	-0.003	0	0.0007	60.4
-0.0023	-0.0023	0.0007	-0.0008	60.4
-0.0023	-0.0008	-0.0015	0.0007	60.4
-0.0023	-0.0015	-0.0023	-0.0015	60.4
-0.0008	-0.0015	-0.003	-0.003	60.4
-0.0008	-0.0008	-0.0046	-0.0015	60.4
-0.0015	-0.0008	-0.0015	-0.0008	60.4
-0.0015	-0.0015	-0.0023	-0.0023	60.4
-0.0015	-0.0015	-0.003	-0.0015	60.4
-0.0015	-0.0008	-0.0046	-0.003	60.4
-0.003	0	-0.0015	-0.0015	60.4
-0.003	0	0.0007	0.0007	60.4
-0.0015	0.0007	0.0007	0.0007	60.4
-0.0008	0.003	0.0007	0.0022	60.4
-0.0015	0.003	-0.0015	0.0022	60.4
-0.0046	0.0015	-0.0023	0.0015	60.4
-0.0053	0.0007	-0.0038	0.0037	60.4
-0.003	0	-0.0046	0.0015	60.4
-0.003	0	-0.0008	0.0022	60.4
-0.0023	-0.0015	-0.0015	0.0052	60.4
-0.0015	-0.0015	-0.0008	0.0022	60.4
-0.0008	-0.0008	0.0007	0.0007	60.4
-0.0008	-0.0008	0.0015	0	60.4
-0.003	-0.0023	0.0015	-0.0023	60.4
-0.0015	-0.0023	0.0007	-0.0053	60.4
-0.003	-0.0015	0.003	-0.0046	60.4
-0.003	-0.0008	0.003	-0.0046	60.4
0	0.0007	0.0007	-0.006	60.4
-0.0008	-0.0008	-0.0008	-0.0053	60.4
-0.0015	-0.0015	-0.0008	-0.003	60.4
-0.003	-0.0008	-0.0008	-0.0015	60.4
-0.003	-0.0015	-0.0023	-0.0008	60.4
-0.0023	-0.0008	-0.0015	-0.0015	60.4
-0.0023	-0.0023	-0.0008	-0.0008	60.4
-0.0015	-0.003	0	-0.0015	60.4
-0.003	-0.0015	0.0015	-0.0038	60.4
-0.003	-0.0008	0.0022	-0.0015	60.4
-0.0023	-0.0008	0.0007	0.003	60.4
-0.0015	-0.0008	0	0.0052	60.4
-0.0015	0	0.0007	0.0052	60.4
0	-0.0008	0	0.0052	60.4
-0.0015	-0.0023	0.0007	0.0022	60.4
-0.003	-0.0008	0.0007	0.0007	60.4
-0.003	-0.003	0	0.0007	60.4
-0.003	-0.003	-0.0008	-0.0015	60.4
-0.0015	-0.0008	-0.003	-0.0015	60.4
-0.0008	-0.0023	-0.0046	-0.0015	60.4
0.0007	-0.003	-0.0068	-0.003	60.4
0	-0.003	-0.0068	-0.0046	60.4
0.0007	-0.0015	-0.0068	-0.0046	60.4
0.0015	-0.0015	-0.0068	-0.0015	60.4
-0.0008	-0.0015	-0.0038	-0.0038	60.4
-0.0008	0.0007	-0.0015	-0.003	60.4
-0.0015	-0.0015	-0.0015	-0.0008	60.4
-0.0008	-0.0015	0.0007	-0.003	60.4
-0.0015	-0.0008	0.0022	-0.0023	60.4
-0.0008	-0.0015	0.0022	-0.0008	60.4
-0.0008	0	0.0022	-0.0008	60.4
-0.0023	-0.0008	0.0045	0.0015	60.4
0	-0.0015	0.0045	0.0022	60.4
-0.0015	-0.0015	0.0045	0.003	60.4
-0.003	-0.003	0.003	0.0052	60.4
-0.003	-0.0008	0.0015	0.0045	60.4
-0.0046	-0.0008	0.0045	0.0045	60.4
-0.0023	-0.0008	0.0045	0.0037	60.4
-0.0015	-0.0008	0.0022	0.0045	60.4
-0.003	-0.0008	-0.0015	0.0015	60.4
-0.0046	-0.0008	-0.0046	-0.0008	60.4
-0.0015	-0.0015	-0.0046	-0.0008	60.4
-0.0023	-0.0015	-0.0046	-0.0053	60.4
-0.0053	-0.0008	-0.0015	-0.006	60.4
-0.0046	-0.0015	0	-0.0053	60.4
-0.0038	-0.0023	-0.0015	-0.0053	60.4
-0.0015	-0.0008	-0.0008	-0.0046	60.4
-0.0008	-0.0015	-0.0008	-0.003	60.4
0	-0.0008	0	0.0007	60.4
0.0007	-0.0008	-0.0008	0.003	60.4
0.0007	-0.0008	0	0	60.4
0	0.0007	0	-0.0015	60.4
-0.0008	-0.0008	0.0007	0	60.4
-0.0008	-0.0008	0.0022	-0.0015	60.4
-0.0023	0.0007	0.0015	-0.003	60.4
-0.003	0.0015	0.0015	-0.0023	60.4
-0.003	0.0015	0.003	-0.0046	60.4
-0.0023	0.0007	0.0037	-0.003	60.4
-0.0015	0.0015	0.0015	-0.0046	60.4
-0.0015	0.0015	0.0007	-0.003	60.4
-0.0015	0	0.0015	-0.0023	60.4
-0.0015	0.0007	0.0015	-0.006	60.4
0	0	0.0022	-0.0068	60.4
-0.0015	-0.0008	0.0007	-0.0068	60.4
-0.003	-0.0015	0.0007	-0.0046	60.4
-0.0008	0.0007	0	-0.0046	60.4
0	0.0015	-0.0008	-0.003	60.4
-0.0015	0	0.0007	-0.0015	60.4
-0.0015	-0.0008	0	0.0007	60.4
-0.0046	0	0.0007	0.0007	60.4
-0.0053	-0.0015	0.0015	0.0015	60.4
-0.0038	0	0.0007	0.0022	60.4
-0.003	0.003	0.0007	0.0007	60.4
-0.0015	0.003	0	0.003	60.4
-0.0015	0.003	-0.0008	0.003	60.4
-0.0008	0.0015	0	0.0015	60.4
-0.0015	0.0007	0.0007	0.003	60.4
-0.0015	0.003	0.0015	0.0007	60.4
-0.0015	0.0015	0.0007	0.003	60.4
-0.0008	-0.0008	0.0007	0.0037	60.4
-0.0008	-0.0008	0.0022	0.0037	60.5
-0.0023	-0.0008	0.0007	0.0045	60.5
-0.0023	-0.0008	-0.0008	0.0037	60.5
-0.0008	-0.0015	0.0007	0.0045	60.5
-0.0008	-0.0015	0	0.0052	60.5
-0.0008	0	-0.0015	0.006	60.5
0.0007	0.003	-0.0008	0.0052	60.5
0.0007	0.0015	-0.0038	0.003	60.5
-0.0023	0.0007	-0.0008	0.0015	60.5
-0.003	-0.0008	0.0015	-0.0008	60.5
-0.0046	-0.0008	-0.0008	-0.0008	60.5
-0.0068	-0.0008	0	-0.0046	60.5
-0.0053	-0.0008	-0.0015	-0.0046	60.5
-0.0053	-0.0023	-0.0015	-0.0046	60.5
-0.0053	-0.0038	-0.0015	-0.0068	60.5
-0.0046	-0.003	-0.0046	-0.0053	60.5
-0.0038	-0.0046	-0.003	-0.0068	60.5
-0.0023	-0.0038	-0.003	-0.0053	60.5
-0.003	-0.0046	-0.0053	-0.0038	60.5
-0.003	-0.0046	-0.0038	-0.0053	60.5
-0.0008	-0.0053	-0.003	-0.0046	60.5
0	-0.0053	-0.0038	-0.003	60.5
0	-0.0046	-0.0015	-0.0046	60.5
-0.0008	-0.0053	-0.0008	-0.003	60.5
0.0015	-0.0038	0.0007	-0.0008	60.5
0.006	-0.0023	0.0037	0.0007	60.5
0.009	-0.0015	0.0082	0.0015	60.5
0.0052	-0.0008	0.0045	0.0022	60.5
-0.0008	0	0.0045	0.003	60.5
-0.0015	-0.0008	0.0015	0.003	60.5
-0.0015	-0.0008	-0.003	0.003	60.5
-0.0015	0	-0.0015	0.003	60.5
-0.0023	-0.0023	-0.0008	0.003	60.5
-0.0015	-0.003	-0.0015	0.0022	60.5
-0.0015	-0.0015	-0.0015	0	60.5
0.0007	0	0.003	0	60.5
0.003	0.003	0.003	0	60.5
-0.0008	0.0015	-0.0015	0	60.5
-0.003	0.0007	-0.0015	-0.0008	60.5
-0.003	0.0007	0	-0.0015	60.5
-0.003	0.0007	0.0015	-0.003	60.5
-0.003	0.0007	-0.0008	-0.0015	60.5
-0.003	-0.0008	-0.0015	-0.0008	60.5
-0.0038	-0.0008	-0.0008	-0.0015	60.5
-0.0046	0.0007	-0.0008	-0.0038	60.5
-0.003	0.0015	0.0007	-0.0068	60.5
-0.0008	0.0037	0.006	-0.0053	60.5
-0.0015	0.0022	0.0082	-0.0046	60.5
-0.0015	0.0022	0.0045	-0.003	60.5
-0.0008	0.003	0.003	-0.0053	60.5
-0.0008	0.003	0.0007	-0.0053	60.5
-0.0008	0.0022	-0.0008	-0.0038	60.5
-0.0015	0	-0.0008	-0.0053	60.5
-0.0008	-0.0008	-0.0015	-0.0046	60.5
-0.0015	-0.0008	0.0007	-0.0053	60.5
-0.0015	0	0.0022	-0.006	60.5
-0.0038	-0.0008	0.003	-0.0046	60.5
-0.0053	-0.0023	0.003	-0.0046	60.5
-0.0046	-0.0008	0	-0.0038	60.5
-0.0053	0.0007	-0.0015	0.0007	60.5
-0.006	-0.0008	-0.0015	0.0015	60.5
-0.0068	-0.003	-0.0023	-0.003	60.5
-0.0083	-0.0015	-0.0038	-0.0046	60.5
-0.0068	-0.0015	-0.006	-0.0046	60.5
-0.0068	-0.003	-0.0053	-0.0046	60.5
-0.0068	-0.0015	-0.006	-0.0053	60.5
-0.0053	-0.0015	-0.006	-0.0046	60.5
-0.0038	-0.0015	-0.0046	-0.0023	60.5
-0.003	-0.0008	-0.003	-0.0008	60.5
-0.0008	-0.003	0	-0.0008	60.5
0.0015	-0.003	0.0007	-0.0008	60.5
0.0022	-0.003	-0.0008	-0.0008	60.5
0.0022	-0.0008	-0.0008	-0.0015	60.5
0.003	0.0007	-0.0008	-0.0008	60.5
0.0015	-0.0008	0.0007	0	60.5
0.0015	0	0.0022	-0.0008	60.5
0.0022	0	0.003	0.0007	60.5
0.0007	0.0015	0.0037	0.0015	60.5
0.0015	0.0022	0.0052	0	60.5
0	0.0022	0.0045	0.0007	60.5
0	0.0007	0.0045	0.0022	60.5
-0.0015	0.0007	0.0052	0.003	60.5
-0.003	0	0.0015	0.003	60.5
-0.0015	-0.0015	0.0007	0.0022	60.5
-0.0023	0	-0.0015	0.0015	60.5
-0.0023	0	-0.003	0.003	60.5
0	-0.0015	-0.0008	0.003	60.5
-0.0008	-0.0008	0.003	0.0007	60.5
-0.0015	0	0.0022	0.0037	60.5
-0.003	-0.0015	0.0015	0.0037	60.5
-0.003	-0.0015	-0.0015	0.0037	60.5
-0.0046	-0.0015	-0.003	0.0037	60.5
-0.0053	-0.0008	-0.0023	0.0007	60.5
-0.0046	-0.0015	-0.0008	0.0015	60.5
-0.0046	-0.0023	0.0007	0.003	60.5
-0.0038	-0.003	0	0.0015	60.5
-0.0015	-0.0038	-0.0008	0.0007	60.5
0.0007	-0.003	-0.0008	0.0015	60.5
0.0007	-0.0015	-0.0015	0.003	60.5
0.0007	-0.0008	-0.0008	0.0022	60.5
-0.0008	0	0	-0.0008	60.5
-0.0015	0.0007	-0.0008	-0.003	60.5
0	0.0007	-0.003	-0.003	60.5
0.0022	0.0007	-0.006	-0.003	60.5
0.0022	0	-0.003	-0.0075	60.5
-0.0008	0	-0.0008	-0.0143	60.5
-0.0015	0.0007	-0.0038	-0.0165	60.5
-0.0008	-0.0008	-0.0046	-0.0165	60.5
-0.0008	0.0007	-0.0008	-0.0173	60.5
-0.0008	0.003	0.0015	-0.0181	60.5
-0.0015	0.003	0.0015	-0.0158	60.5
0.0015	0.003	0.0007	-0.0143	60.5
0.0015	0.0015	0.0045	-0.012	60.5
-0.0008	0	0.003	-0.0105	60.5
-0.0015	0.0007	0.0022	-0.006	60.5
-0.0053	-0.0008	0.0015	-0.0008	60.5
-0.0053	-0.0015	0.0007	0.0022	60.5
-0.0046	0	0.0015	0.003	60.5
-0.0038	-0.0015	0.0037	0.0022	60.5
0.0007	-0.003	0.0045	0.0015	60.5
0.003	-0.003	0.003	0.0007	60.5
0.0015	-0.0023	0.0015	0.0037	60.5
-0.0023	-0.0023	0.0007	0.006	60.5
-0.0015	-0.0023	0.003	0.006	60.5
0	-0.0008	0.0015	0.0052	60.5
-0.0008	0.0007	0	0.0067	60.5
-0.0008	0.0015	0.0007	0.012	60.5
-0.003	-0.0008	0.0007	0.0127	60.5
-0.0046	0.0007	0.0007	0.0105	60.5
-0.0053	0.0007	-0.0008	0.009	60.5
-0.0068	-0.0015	-0.003	0.0082	60.5
-0.0068	-0.0008	-0.0046	0.0067	60.5
-0.0046	-0.0008	-0.0038	0.0075	60.5
-0.003	-0.0015	-0.0023	0.0075	60.5
-0.0015	-0.0015	0	0.0052	60.5
0.0052	-0.0015	0	0.0052	60.5
0.0075	-0.0038	-0.003	0.0037	60.5
0.0045	-0.0023	-0.0046	0.0015	60.5
0.0022	-0.0015	-0.0008	0.0022	60.5
0.003	-0.0008	0.003	0.0045	60.5
0.0022	0.0007	0.003	0.0052	60.5
-0.0008	-0.0008	0	0.0015	60.5
-0.0008	-0.0015	0	-0.0008	60.5
-0.0015	-0.003	0.0007	-0.0015	60.5
-0.0015	-0.003	0.0007	-0.0008	60.5
-0.003	-0.003	0.0022	-0.0015	60.5
-0.0046	-0.0015	0.0015	-0.0008	60.5
-0.0053	-0.0008	0.0007	0.0007	60.5
-0.003	-0.0008	-0.0008	0.003	60.5
-0.0015	0.0007	-0.003	0.0015	60.5
0.0007	-0.0015	-0.0008	-0.0008	60.5
0.0015	-0.0015	0.0015	-0.0008	60.5
0.0022	-0.0023	0.003	0.0007	60.5
0.003	-0.003	0.0052	0.0007	60.5
0.009	-0.0015	0.0052	0.0007	60.5
0.0112	-0.0038	0.0045	0.0045	60.5
0.0045	-0.003	0.0022	0.003	60.5
-0.003	-0.0008	0	0.0015	60.5
-0.0053	0	-0.0015	0.0015	60.5
-0.006	0.0007	-0.0023	-0.0008	60.5
-0.0105	-0.0008	-0.0038	-0.0015	60.6
-0.0105	-0.0015	-0.0046	0.0007	60.6
-0.0091	-0.0015	-0.0038	0.0015	60.6
-0.0091	-0.0008	-0.0046	-0.0008	60.6
-0.0083	-0.0015	-0.0046	0.0007	60.6
-0.0083	-0.0023	-0.0015	-0.0015	60.6
-0.0038	-0.0015	0.0007	0.0007	60.6
0.0015	-0.0015	0.0037	0.0015	60.6
0.0022	0	0.0045	-0.0015	60.6
-0.0023	0	0.0007	-0.0008	60.6
-0.0046	0.0007	0.0015	-0.0008	60.6
0	0.0015	0	-0.0015	60.6
0.0007	0.0037	-0.0008	-0.0008	60.6
-0.003	0.0045	0	0	60.6
-0.0075	0.0045	0.0015	0.0007	60.6
-0.0068	0.0037	0.0007	-0.0015	60.6
-0.0068	0.003	-0.0038	-0.0053	60.6
-0.006	0.0037	-0.003	-0.0068	60.6
-0.0053	0.0007	-0.003	-0.0053	60.6
-0.0046	0	-0.0008	-0.0068	60.6
-0.0038	-0.0008	-0.003	-0.0053	60.6
-0.0046	0	-0.003	-0.0046	60.6
-0.0015	0.003	-0.003	-0.003	60.6
0	0.0015	-0.0015	-0.0038	60.6
0	0.0007	0.0007	-0.0046	60.6
-0.0015	0.0015	-0.0008	-0.0015	60.7
-0.003	0.0015	0	0.0007	60.7
-0.003	0.0015	0.0007	0.0015	60.7
-0.0046	-0.0015	-0.0008	-0.0015	60.7
-0.0046	-0.0015	-0.0008	-0.0023	60.7
-0.0075	-0.0015	-0.003	-0.0015	60.7
-0.0091	-0.0038	-0.0015	0	60.7
-0.0068	-0.0046	-0.0008	-0.0008	60.7
-0.006	-0.0053	0	-0.003	60.7
-0.0046	-0.0046	0.0007	-0.003	60.7
-0.0008	-0.0015	0.0015	-0.0008	60.7
0.0015	-0.0015	0.0007	0.0015	60.7
0.0052	-0.0046	-0.0015	0.0007	60.7
0.0067	-0.0046	0.0007	0	60.7
0.0082	-0.003	0.0015	0.0037	60.7
0.012	-0.0023	0.003	0.0067	60.7
0.0067	-0.0038	0.0022	0.0045	60.7
-0.0038	-0.0038	0.0022	0.0007	60.7
-0.0023	-0.0038	0.0022	0.0015	60.7
-0.0015	-0.0046	0.003	0	60.7
-0.0023	-0.0023	0.0022	0	60.7
0.0052	-0.0015	0.0007	-0.0008	60.7
0.006	-0.0008	0.0022	-0.0046	60.7
0.0015	-0.0008	0	-0.003	60.7
-0.0038	0.0007	0.0007	0.0007	60.7
-0.0068	0.0015	-0.0008	0.0015	60.7
-0.012	0.0007	0.0007	0.0015	60.7
-0.0135	0	0.0045	0.003	60.7
-0.0098	0.0007	0.0007	0.0022	60.7
-0.0083	0.0015	-0.0015	0.0015	60.7
-0.0023	0.003	-0.0015	0.0007	60.7
0.0015	0.0045	-0.0008	-0.0023	60.7
0.0015	0	-0.0046	-0.0046	60.7
0.003	-0.0008	-0.0023	-0.006	60.7
0.0067	-0.0008	0	-0.0046	60.7
0.006	0	-0.0008	-0.0046	60.7
-0.0015	0.0022	-0.0015	-0.003	60.7
-0.0091	0.0015	-0.003	-0.003	60.7
-0.006	0	-0.0015	-0.003	60.7
-0.0015	-0.0008	-0.0015	-0.003	60.7
0.003	0	-0.0008	-0.0023	60.7
0.0052	0.0015	0.0007	-0.0023	60.7
0	0	-0.0008	-0.0053	60.7
-0.0023	-0.0008	-0.0015	-0.006	60.7
-0.0023	-0.0008	-0.003	-0.0068	60.7
-0.0075	-0.0015	-0.0023	-0.0075	60.7
-0.0083	0.0015	0	-0.0053	60.7
-0.0075	0	0	-0.0015	60.7
-0.0068	-0.0008	-0.0008	-0.0008	60.7
-0.0008	0	0.0007	-0.0008	60.7
0.0045	0.0007	0.0045	0	60.7
0.0015	0	0.0067	-0.0008	60.7
-0.003	-0.0015	0.0045	-0.0015	60.7
-0.0008	-0.0008	-0.0015	-0.0008	60.7
0	-0.003	-0.003	-0.0023	60.7
-0.0046	-0.003	-0.0015	-0.003	60.8
-0.003	-0.0015	-0.0008	-0.0038	60.8
-0.0038	-0.003	-0.0008	-0.003	60.8
-0.0038	-0.003	0.0007	-0.0008	60.8
-0.0015	-0.0015	0	0.0007	60.8
-0.0038	0.0007	-0.0015	0	60.8
-0.003	0.0015	-0.003	-0.0023	60.8
-0.0015	0.0015	-0.0008	-0.0008	60.8
-0.0008	0.0007	-0.0008	0.0007	60.8
0.0022	-0.0008	0.0015	0	60.8
0.0067	-0.0008	0.006	-0.0008	60.8
0.0037	-0.0015	0.0067	-0.0023	60.8
-0.0053	-0.0008	0.0067	-0.0023	60.8
-0.0075	-0.0015	0.003	-0.003	60.8
-0.0068	-0.0023	0.0007	-0.0038	60.8
-0.0083	-0.0015	-0.0008	-0.003	60.8
-0.0068	-0.0023	-0.0015	-0.0015	60.8
-0.0053	-0.0023	0	-0.0046	60.8
-0.0015	-0.0023	0.0015	-0.0068	60.8
0.003	-0.0008	0.0007	-0.0046	60.8
0.0075	-0.0015	0.0007	-0.0015	60.8
0.0082	-0.0015	-0.0015	-0.0015	60.8
0.0007	-0.0008	-0.0008	0	60.8
-0.0015	-0.0008	0.0015	0.0022	60.8
0	0.0015	0.0007	0.003	60.8
-0.0008	0.0015	-0.0008	0.0045	60.8
0.0007	0.0015	-0.0023	0.0045	60.8
-0.0015	0.0007	-0.003	0.0007	60.8
-0.0053	0.0007	-0.0046	-0.0038	60.8
-0.0046	0.0007	-0.0046	-0.0023	60.8
-0.0015	0.003	-0.0023	0.0007	60.8
-0.0015	0.0037	0.0007	0.003	60.8
0	0.0022	0.0037	0.0045	60.8
-0.0015	0.003	0.0037	0.0037	60.8
-0.0038	0.0007	0.0052	0.0037	60.8
-0.0068	-0.0015	0.0067	0.0045	60.8
-0.0075	-0.0008	0.006	0.0022	60.8
-0.0046	-0.0008	0.0015	0.003	60.8
-0.0046	0.0007	-0.0008	0.0007	60.8
-0.003	0.0007	0	-0.0015	60.8
-0.0008	-0.0008	0.0007	-0.0008	60.9
-0.0015	-0.0015	0	-0.0015	60.9
-0.003	-0.003	-0.0046	-0.0015	60.9
0.0007	-0.0046	-0.003	-0.0023	60.9
0.0007	-0.0053	-0.0053	-0.0015	60.9
-0.003	-0.003	-0.0053	-0.003	60.9
-0.0046	-0.0015	-0.0053	-0.003	60.9
-0.0046	0.0007	-0.0075	-0.003	60.9
-0.003	0.0007	-0.0046	-0.0015	60.9
-0.003	-0.0008	-0.0008	-0.0008	60.9
-0.0046	0.0007	0.0015	-0.0015	60.9
-0.0046	-0.0008	0.0007	-0.0015	60.9
-0.0008	-0.0015	0.0052	-0.003	60.9
-0.0015	-0.0015	0.0045	-0.0008	60.9
-0.003	-0.0008	0.0015	-0.0008	60.9
-0.0008	0.003	0.0015	0.0022	60.9
-0.003	0.0015	0.0015	0.0075	60.9
-0.003	0.0022	0.0007	0.0075	60.9
-0.003	0.0007	-0.0038	0.0067	60.9
-0.0053	-0.0023	-0.0098	0.003	60.9
-0.0068	-0.003	-0.0091	0.0022	61
-0.0075	-0.0023	-0.0083	0.0015	61
-0.006	-0.0015	-0.0038	0.0007	61
-0.006	-0.0023	-0.0015	0	61
-0.0053	-0.0015	0	-0.003	61
-0.0015	-0.0015	0.0075	-0.0046	61
0.0045	-0.0015	0.0165	-0.003	61
0.0112	-0.0015	0.021	-0.0046	61
0.012	-0.003	0.0112	-0.0038	61
0.0135	-0.0015	0.0045	-0.003	61
0.0112	-0.003	-0.003	-0.0046	61
0.0007	-0.0015	-0.0068	-0.006	61
0.0007	-0.0023	-0.003	-0.006	61
-0.003	-0.0046	-0.0053	-0.0075	61
-0.006	-0.0038	-0.0046	-0.0075	61
-0.0068	-0.003	-0.0023	-0.0053	61.1
-0.012	-0.003	0.0007	-0.0053	61.1
-0.0098	-0.0015	0.006	-0.0068	61.1
-0.0068	0.0015	0.009	-0.0053	61.1
-0.0068	0.0007	0.0067	-0.003	61.1
-0.0083	-0.0008	-0.0008	-0.0008	61.1
-0.0091	0.0007	-0.0091	0.0007	61.1
-0.0053	0.0007	-0.0091	0.0007	61.1
0.0015	-0.0008	-0.0075	-0.0008	61.1
0.009	-0.0008	-0.0046	0.003	61.1
0.0112	0	0.0007	0.0037	61.1
0.0045	-0.0008	-0.0038	0.0022	61.1
0.0007	0	-0.0083	0.0037	61.1
0.0037	-0.0008	-0.003	0.0022	61.1
0.0067	-0.0008	0.0067	0.0015	61.1
0.0067	0	0.006	0.0007	61.1
0.0015	-0.0008	0.0075	0.0015	61.1
-0.003	0.0022	0.0082	0.0007	61.1
-0.0053	0.0007	0.0067	-0.0008	61.1
-0.0053	0.0007	0.012	0.0007	61.1
-0.0053	0.0015	0.0127	-0.0015	61.2
0	0	0.009	-0.0038	61.2
0.003	0.0007	0.003	-0.0023	61.2
-0.003	-0.0008	0	-0.0023	61.2
-0.006	-0.0008	-0.0038	-0.0023	61.2
-0.0053	-0.0015	-0.006	0.0015	61.2
0	-0.0015	-0.0091	0.0007	61.2
0.0075	0.0015	-0.0105	0.0015	61.2
0.009	0.0015	-0.0091	0.0052	61.2
0.0045	0.0007	-0.012	0.0037	61.2
-0.0008	-0.0008	-0.0083	0.0007	61.2
-0.0015	-0.0008	-0.0038	-0.0008	61.2
0.0007	-0.0008	0.0015	0	61.2
0	0.0007	0.0075	-0.0008	61.2
-0.0053	0.0007	0.0082	-0.0015	61.2
-0.0105	0	0.0082	-0.0023	61.2
-0.0105	-0.0015	0.0105	-0.0046	61.2
-0.0098	-0.0023	0.0082	-0.0046	61.2
-0.0091	-0.0015	0.0045	-0.0046	61.2
-0.0075	-0.0008	0.0007	-0.0053	61.2
-0.0046	0	-0.0008	-0.0046	61.2
-0.0053	0.0007	0	-0.003	61.2
-0.0091	0.0007	0	-0.0015	61.2
-0.0128	0.0007	-0.0046	-0.0023	61.2
-0.015	-0.0008	-0.006	-0.0015	61.2
-0.0143	-0.0008	-0.0068	-0.003	61.3
-0.0128	-0.0008	-0.0105	-0.0015	61.3
-0.0091	-0.0008	-0.0098	-0.0008	61.3
-0.0068	0	-0.0091	0	61.3
-0.0053	0.0015	-0.0083	0.0022	61.3
0.0015	0.0007	-0.0046	0.0015	61.3
0.009	-0.0008	-0.0046	0.003	61.3
0.021	0.0007	0.0022	0.003	61.3
0.024	0.0007	0.0135	0.0015	61.3
0.0067	-0.003	0.0165	0.0015	61.3
-0.0015	-0.003	0.015	0.0007	61.3
-0.0008	-0.0053	0.009	0.0015	61.3
-0.0046	-0.0046	0.0007	0.0015	61.3
-0.0008	-0.0023	-0.0046	0.0007	61.3
0.0007	-0.0046	-0.0046	-0.0008	61.3
-0.003	-0.0015	-0.0091	-0.0008	61.3
-0.0008	0	-0.012	0.0015	61.3
0.0015	0.0007	-0.012	0.003	61.3
0.0015	-0.0023	-0.0128	0.0015	61.3
-0.003	-0.0015	-0.0091	0.0045	61.3
-0.003	0	-0.0053	0.0052	61.4
-0.0015	-0.003	-0.0023	0.0015	61.4
-0.0015	-0.003	0.003	-0.0015	61.4
-0.0053	-0.003	0.0112	-0.0038	61.4
-0.0053	-0.003	0.015	-0.003	61.4
-0.0038	-0.0015	0.009	0	61.4
0.0007	-0.0008	0.0052	0	61.4
-0.0008	-0.0015	0.0022	-0.0023	61.4
-0.0053	-0.0023	0.0015	-0.0015	61.4
-0.0075	-0.0023	0.0015	0	61.4
-0.0105	-0.0008	0.0007	0.0007	61.4
-0.0075	0.0015	0.0007	0.0007	61.4
-0.0083	0	0.0007	0	61.4
-0.0105	0.0007	0.009	0	61.4
-0.0128	0.0007	0.015	0	61.4
-0.0091	-0.0008	0.0165	0.0015	61.4
0.0007	0	0.012	0.003	61.4
0.0022	0	-0.0008	-0.0008	61.4
0.0052	0.0007	-0.0098	-0.0015	61.4
0.0082	0.0007	-0.012	-0.0023	61.4
0.003	0.0007	-0.0143	-0.003	61.4
-0.0046	0.0015	-0.0143	-0.0023	61.4
-0.0075	-0.0008	-0.0165	-0.0053	61.4
-0.0083	-0.0008	-0.0203	-0.0083	61.4
-0.0053	-0.0008	-0.0188	-0.0068	61.4
-0.003	-0.0008	-0.0165	-0.0053	61.5
-0.0068	0.0015	-0.0128	-0.0068	61.5
0.0022	0.0015	-0.0046	-0.0068	61.5
0.0127	0.0015	0.0067	-0.0015	61.5
0.0135	0.0022	0.0082	0.0007	61.5
0.0105	0.0022	0.0082	0.003	61.5
0.009	0.0015	0.0075	0.003	61.5
0.0007	0.0015	0.006	0.0015	61.5
-0.003	0.0007	0.0105	-0.0008	61.5
-0.0023	0.0007	0.0142	-0.0023	61.5
-0.0015	0.0007	0.0157	-0.0008	61.5
0.0007	-0.0008	0.0067	-0.0015	61.5
-0.0015	-0.0015	0.0037	-0.0015	61.5
-0.006	-0.003	0.006	0.0007	61.5
-0.006	-0.003	0.0045	-0.0008	61.5
-0.0015	-0.0038	0.0022	-0.0038	61.5
0.0015	-0.003	-0.0038	-0.003	61.5
-0.003	-0.0023	-0.0083	-0.0046	61.5
-0.0023	-0.0008	-0.0083	-0.0053	61.5
0.003	0.0015	-0.006	-0.003	61.5
0.006	0	-0.0053	-0.003	61.5
0.0075	-0.0015	-0.0053	-0.0015	61.5
0.0082	-0.0038	0.0007	-0.0008	61.5
0.0105	-0.003	0.006	-0.0038	61.5
0.0052	-0.0008	0.012	-0.0053	61.5
-0.0038	-0.0023	0.018	-0.006	61.5
-0.0075	-0.003	0.0157	-0.0053	61.5
-0.0068	-0.003	0.006	-0.0046	61.5
-0.0053	-0.003	-0.0008	-0.003	61.5
-0.0068	-0.0023	-0.0091	-0.0015	61.5
-0.003	-0.0015	-0.015	-0.0008	61.5
-0.0038	0	-0.0143	-0.0015	61.5
-0.0008	0	-0.0113	0.0015	61.5
0.003	0.003	-0.0038	0.0037	61.5
0.0015	0.003	0.003	0.003	61.5
-0.0015	0.0015	0.003	0.0015	61.5
-0.0053	0.0015	0	0.0015	61.5
-0.0053	0.0015	0	-0.0008	61.5
-0.0075	0.0015	-0.003	0.0007	61.5
-0.0083	0	-0.003	0.0015	61.5
-0.0091	0.0007	0.0007	0.0022	61.5
-0.0091	0.0015	0.0015	0.0022	61.5
-0.0091	-0.0008	-0.0008	0.0015	61.5
-0.0083	-0.0015	-0.0008	0.0037	61.5
-0.0015	-0.003	0.006	0.0015	61.5
0	-0.003	0.0045	-0.0015	61.5
0	-0.003	0.0007	0.0007	61.5
0.0045	-0.0008	0.003	0.0022	61.5
0.003	0.0007	0.0075	0.003	61.5
-0.003	0	0.0067	0.0022	61.5
-0.0053	0.0007	0.0045	0.0022	61.5
-0.0038	0.0007	0.0037	0.0015	61.5
-0.0053	0.0007	-0.0008	0.0015	61.5
-0.003	0.0007	-0.0053	0.0015	61.5
0.0015	-0.0023	-0.0068	0.0007	61.5
0.003	-0.003	-0.0046	-0.0008	61.5
0.0052	-0.0023	-0.0046	-0.0008	61.5
0.0015	-0.0008	-0.0068	-0.0023	61.5
-0.0046	-0.0008	-0.0105	-0.003	61.5
-0.0068	-0.0046	-0.0128	-0.0015	61.5
-0.0075	-0.003	-0.0091	0	61.5
-0.0083	-0.0015	-0.0083	0.0007	61.5
-0.0098	-0.0015	-0.0053	-0.0008	61.5
-0.0053	-0.0015	-0.0008	-0.0015	61.5
0.0045	-0.0008	-0.0008	-0.0008	61.5
0.0052	0.0007	-0.0015	0	61.5
0.0045	0.0007	0	-0.0008	61.5
0.003	-0.0015	0.0052	-0.0008	61.5
0.0015	-0.0023	0.0022	0.003	61.5
-0.0008	-0.0015	-0.0023	0.0045	61.5
-0.0008	-0.0015	-0.0008	0.0045	61.5
0.009	-0.0008	0.009	0.0037	61.5
0.0127	-0.003	0.0195	0.0015	61.5
0.0037	-0.0023	0.0232	0.003	61.5
-0.003	-0.0015	0.0142	0.003	61.5
-0.0053	-0.0015	0.003	0.0037	61.4
-0.0023	-0.0015	-0.003	0.0037	61.4
-0.003	-0.0008	-0.012	0.0015	61.4
-0.0038	0.0015	-0.0203	0.0022	61.4
-0.0038	0.0007	-0.0158	0.003	61.4
-0.0046	0.0007	-0.0091	0.0015	61.4
-0.0053	-0.0008	-0.003	-0.0008	61.4
-0.0053	-0.0008	0.0015	0.0007	61.4
0.0007	0.0015	0.0067	-0.0008	61.4
0.0037	0.0007	0.024	-0.0015	61.4
0.0007	-0.0008	0.0307	-0.0038	61.3
-0.0091	-0.0015	0.0127	-0.0068	61.3
-0.0098	-0.0015	-0.0053	-0.0053	61.3
-0.0046	0.0015	-0.0098	-0.0046	61.3
-0.0053	0.0015	-0.012	-0.0046	61.3
-0.0038	0.0015	-0.0105	-0.003	61.3
-0.0008	0.0022	-0.0091	-0.0023	61.2
0.0007	0.003	-0.0046	-0.0023	61.2
-0.0023	0.0015	0.0045	-0.0008	61.2
-0.0068	-0.0008	0.0127	-0.0023	61.2
-0.0105	0	0.0157	-0.0023	61.2
-0.0083	-0.0023	0.0105	-0.003	61.2
-0.003	-0.003	0.0045	-0.0046	61.2
-0.003	-0.0008	-0.0046	-0.0053	61.1
-0.0038	-0.0015	-0.0053	-0.0038	61.1
-0.003	0.0015	-0.0053	-0.0008	61.1
-0.0015	-0.0008	-0.0046	-0.0008	61.1
0	0	-0.0008	0.0007	61
0.0045	0.0007	-0.0008	0.0007	61
0.003	-0.0008	0.0015	-0.0015	61
0.0015	-0.0008	0.0037	-0.0015	60.9
0.0015	-0.0015	0.0037	-0.003	60.9
-0.0015	-0.0023	0.0007	-0.0053	60.9
-0.0015	0	-0.0053	-0.0046	60.9
-0.003	-0.0008	-0.0091	-0.0053	60.8
-0.0038	-0.0008	-0.0098	-0.0053	60.8
-0.0008	0.0007	-0.012	-0.0053	60.8
-0.003	0.0007	-0.0105	-0.0053	60.7
-0.003	-0.0008	-0.0083	-0.0068	60.7
0.0067	-0.0023	-0.0053	-0.0038	60.7
0.0165	-0.0015	0.0037	-0.0015	60.7
0.0157	0.0015	0.0105	-0.0015	60.7
0.0112	0	0.0127	-0.0008	60.6
0.0007	-0.0015	0.0127	-0.0015	60.6
-0.0053	-0.0015	0.0105	-0.003	60.6
-0.0098	0.0007	0.0082	-0.0015	60.5
-0.0135	0.0015	0.009	-0.0008	60.5
-0.012	0.0015	0.0067	-0.0008	60.5
-0.0128	0.0015	0	-0.0008	60.4
-0.0098	0	-0.003	-0.0008	60.4
-0.0083	0.0007	-0.0015	-0.0015	60.3
0.0007	-0.0008	-0.0015	-0.0015	60.3
0.0127	-0.0015	-0.0038	0.0007	60.3
0.0105	-0.0038	-0.0053	0.0007	60.3
0.0067	-0.0046	-0.003	0.0015	60.3
0.0015	-0.0053	-0.0008	0.003	60.2
-0.0038	-0.0046	0	0.0015	60.2
-0.0053	-0.0053	0.0015	0.0007	60.2
-0.006	-0.006	0.0015	0.0015	60.1
-0.0068	-0.0046	-0.003	-0.0015	60.1
-0.006	-0.0038	-0.0083	-0.003	60.1
-0.0023	-0.0038	-0.0091	0	60
-0.0038	-0.0038	-0.0068	0	60
-0.0023	-0.0038	-0.0068	-0.0008	60
0.0007	-0.0015	-0.0053	-0.0015	59.9
0.0015	-0.0015	-0.0038	0.0007	59.9
0.0015	-0.0015	-0.0015	0.0007	59.9
-0.0015	-0.0015	-0.0046	0.0007	59.8
0.0022	-0.0008	-0.0083	0.0007	59.8
0.006	0.0007	-0.0091	-0.003	59.8
-0.0008	0	-0.0068	-0.0038	59.7
-0.0075	0.0007	-0.003	-0.0023	59.7
-0.0105	0.0015	0.0015	-0.0008	59.7
-0.0046	0.0015	0.0022	0	59.7
-0.0046	0.0022	0.0052	-0.0008	59.6
-0.0113	0.0015	0.0112	-0.003	59.6
-0.0083	0	0.012	-0.003	59.5
-0.0023	0.0007	0.012	-0.0023	59.5
0	0.003	0.0127	-0.0046	59.5
-0.0053	0.0015	0.0075	-0.0083	59.4
-0.0068	0.0007	0.0045	-0.0075	59.4
-0.0046	0.003	0.0082	-0.0053	59.4
-0.0008	0.0037	0.0097	-0.006	59.3
0.0067	0.0015	0.003	-0.0068	59.3
0.0097	0.003	-0.0008	-0.0053	59.3
0.0045	0.0015	0.0007	-0.0053	59.2
0.0007	0.0015	-0.0015	-0.0068	59.2
0	0.0007	-0.003	-0.0038	59.1
-0.0046	-0.003	-0.003	-0.0015	59.1
-0.0083	-0.0023	-0.0046	-0.0015	59.1
-0.0083	-0.003	-0.0068	-0.0015	59
-0.0091	-0.0038	-0.0128	-0.0015	59
-0.006	-0.0023	-0.0091	0.0007	58.9
-0.0046	-0.0023	-0.0053	0.0022	58.9
-0.0053	-0.0023	-0.0023	0.0022	58.9
-0.0068	-0.0046	0	0.0015	58.9
-0.0023	-0.0053	0.0045	0.0007	58.8
0.0067	-0.0008	0.0127	0	58.8
0.0097	-0.0008	0.012	-0.0008	58.8
0.006	0.0007	0.009	-0.0008	58.7
0.0037	0.0007	0.0105	-0.0008	58.7
0.0015	0.0015	0.0082	0.0015	58.6
0	0.003	0.009	0.0007	58.6
0.0007	0.0015	0.0097	-0.0008	58.6
-0.0038	0.0007	0.0127	0.0007	58.5
-0.0068	-0.0008	0.0127	-0.0008	58.5
-0.0053	-0.0015	0.0015	-0.0023	58.5
-0.0046	0	-0.0046	-0.0008	58.4
0.0022	0.0015	-0.0053	-0.0008	58.4
0.0015	0.0015	-0.0083	-0.0015	58.4
0.0007	-0.0015	-0.0091	0.0007	58.3
0.0045	0	-0.0105	0.003	58.3
0.0045	-0.0008	-0.0098	0.0045	58.2
0.0067	-0.0015	-0.0075	0.0015	58.2
0.006	-0.0015	-0.0046	0.0007	58.2
0.0045	-0.0015	-0.003	0.003	58.1
0.0015	-0.0015	-0.0046	0.0015	58.1
-0.003	-0.003	-0.0053	0.0007	58
-0.0053	-0.0015	-0.0068	-0.0015	58
-0.0091	-0.0023	-0.0083	-0.0038	58
-0.0075	-0.0046	-0.003	-0.003	57.9
-0.0068	-0.0046	0.003	-0.0008	57.9
-0.0091	-0.003	0.0045	-0.0015	57.9
-0.0075	-0.0023	0.0022	-0.0053	57.8
-0.003	0	-0.0015	-0.0046	57.8
0.0022	-0.0008	-0.0105	-0.0008	57.7
-0.0008	-0.0023	-0.0203	-0.0008	57.7
-0.0038	-0.003	-0.0165	0	57.7
0	-0.0038	-0.0091	0	57.6
-0.0023	-0.0038	-0.0053	0.0007	57.6
-0.0046	-0.0015	0.0022	-0.0008	57.5
-0.0023	-0.0015	0.0172	-0.003	57.5
-0.0075	-0.0008	0.0345	-0.0008	57.5
-0.0143	0.0015	0.042	-0.0015	57.4
-0.0105	0.003	0.0277	-0.0015	57.4
-0.006	0.0015	0.0067	-0.003	57.3
-0.0075	0.0015	0	-0.0023	57.3
-0.0046	0.0022	-0.0083	-0.0008	57.2
0.0015	0.0007	-0.0098	-0.0015	57.2
0.0067	-0.0015	-0.0105	-0.0023	57.1
0.009	-0.0008	-0.0143	-0.0015	57.1
0.0015	0.0007	-0.012	-0.0008	57
-0.0046	0.003	-0.012	0.003	57
-0.0046	0.003	-0.0091	0.0045	56.9
-0.003	0	-0.006	0.003	56.9
-0.0015	0.0022	-0.003	0.0007	56.8
-0.003	0.0015	-0.0023	0.0007	56.8
-0.0075	0.0022	-0.0015	0.003	56.7
-0.0091	0.0015	0	0.0007	56.7
-0.0083	0.0007	0.003	-0.0008	56.7
-0.0053	0.0007	0.0067	-0.0015	56.6
-0.003	-0.0008	-0.0015	0.0022	56.6
-0.0046	0	-0.0091	0.0037	56.5
-0.0068	0	-0.0128	0.0007	56.4
-0.0083	-0.0015	-0.0173	0	56.4
-0.0046	-0.0023	-0.0128	-0.003	56.3
0	-0.0015	-0.0046	-0.0015	56.3
0.0045	0.0015	0.0052	-0.0023	56.2
0.0082	0.0015	0.018	-0.003	56.2
0.0082	0	0.0307	-0.0046	56.1
0.0097	-0.0008	0.0307	-0.0053	56.1
0.0142	-0.0008	0.0165	-0.003	56
0.009	-0.0015	0.0007	-0.0015	56
0.0007	-0.0015	-0.003	-0.0023	55.9
0.0007	0	-0.003	-0.0015	55.8
-0.0023	-0.0015	-0.0068	-0.0015	55.8
-0.0046	-0.003	-0.0046	-0.0015	55.8
-0.006	-0.003	-0.0068	0.0007	55.7
-0.0105	-0.0015	-0.006	0.0007	55.6
-0.0113	-0.0015	-0.0083	-0.0015	55.6
-0.0075	-0.0008	-0.0188	-0.003	55.5
-0.0053	0	-0.0165	-0.0023	55.5
-0.0015	-0.0008	-0.012	0	55.4
0.0067	0	-0.0046	0.0007	55.3
0.0097	0	0.009	0.003	55.3
0.006	-0.0015	0.0157	0.003	55.3
0.0015	-0.0015	0.0157	0.003	55.2
0.0007	-0.003	0.0075	0.0052	55.2
0	-0.0023	-0.0008	0.003	55.1
-0.0046	-0.0008	0.0007	0.0007	55
-0.003	-0.0015	0.0037	0.003	55
0.003	-0.0015	0.009	0.0037	54.9
0.0015	-0.0008	0.0165	0.0037	54.9
-0.0053	0.0007	0.0165	0.003	54.8
-0.003	0.0007	0.012	0.003	54.8
-0.0053	0	0.009	0.0015	54.7
-0.0091	0.0015	0.0052	-0.0015	54.7
-0.0053	0.0007	-0.0023	0	54.6
-0.0046	0.0007	-0.0075	-0.0008	54.5
-0.003	0.0007	-0.0083	0	54.5
0	0	-0.0015	0.0007	54.4
0.0007	-0.0008	0.0082	-0.0038	54.4
-0.0068	0.0007	0.006	-0.0046	54.3
-0.015	-0.0008	-0.003	-0.003	54.3
-0.0135	-0.003	-0.006	-0.0008	54.2
-0.0091	-0.0015	0.0007	-0.0046	54.1
-0.0083	-0.0023	0.0075	-0.006	54.1
-0.0083	-0.003	0.0045	-0.0053	54
0	-0.0023	-0.0008	-0.0046	54
0.0105	-0.0023	0.0015	-0.0008	53.9
0.0142	-0.0015	-0.0008	-0.0008	53.8
0.0105	0.0007	-0.0053	-0.0008	53.8
-0.0008	0.0022	-0.0053	0	53.7
0.003	0.003	-0.0105	0	53.6
0.0097	0.0007	-0.0165	0.0007	53.6
0.0067	0.0007	-0.0218	0	53.5
0.0082	-0.0023	-0.0188	0.0007	53.5
0.0082	-0.003	-0.0113	-0.0008	53.4
0.003	-0.0015	-0.0046	0	53.4
-0.0068	-0.003	0.0067	0.0015	53.3
-0.0075	-0.0008	0.0135	0	53.2
-0.0083	-0.0008	0.009	0	53.2
-0.0188	0.0007	-0.0008	-0.0015	53.1
-0.0165	0.0007	-0.0128	-0.0008	53.1
-0.0128	0	-0.0173	0.0015	53
-0.012	0.0015	-0.0128	0.0015	52.9
-0.0053	0.0015	-0.0046	0.0007	52.9
-0.0008	0.0007	0.0015	-0.0008	52.8
0.0082	-0.0008	0.0015	-0.0015	52.7
0.0105	-0.0023	0.0082	-0.0008	52.6
0.006	-0.0015	0.012	-0.0015	52.6
0.0007	-0.0008	0.012	-0.0015	52.6
-0.0075	-0.0008	0.0075	-0.0008	52.5
-0.006	-0.0015	-0.0023	0	52.4
-0.003	-0.003	-0.0046	0	52.3
-0.006	-0.003	-0.0038	0	52.3
-0.006	-0.0046	-0.0015	0.0015	52.2
-0.0046	-0.0053	-0.0053	0.0022	52.2
0.0007	-0.0046	-0.0046	0.0007	52.1
-0.0053	-0.0046	0.003	-0.0015	52
-0.0143	-0.0053	0.009	-0.003	51.9
-0.0068	-0.0046	0.0082	-0.0015	51.9
-0.0053	-0.0015	-0.0015	-0.0015	51.8
-0.0068	0.0015	-0.0046	-0.0046	51.8
-0.0046	0.0022	-0.0068	-0.0046	51.7
-0.006	0.0015	-0.0068	-0.0053	51.7
-0.0015	0.0015	-0.0113	-0.0053	51.6
0.0015	0.003	-0.0218	-0.0068	51.5
0.0067	0.003	-0.024	-0.006	51.4
0.0105	0.0007	-0.0165	-0.0053	51.4
0.0052	0.0007	-0.0038	-0.0068	51.3
0.009	-0.0008	0.0037	-0.0038	51.3
0.0105	-0.0015	0.0127	-0.0046	51.2
0.0067	-0.0038	0.033	-0.0053	51.1
-0.003	-0.0046	0.0547	-0.0038	51.1
-0.006	-0.0023	0.051	-0.0015	51
-0.0068	0	0.0165	-0.0008	50.9
-0.0128	0.0007	-0.0038	-0.0015	50.8
-0.0083	-0.0008	-0.0053	-0.0015	50.8
-0.0008	0	-0.0053	-0.0008	50.7
0.0045	-0.0015	-0.0008	0.0015	50.6
0.0067	-0.0023	0.0037	0.0007	50.6
0.003	-0.003	0.0045	-0.0008	50.5
0	-0.0046	0.0037	-0.0008	50.4
0.0007	-0.0046	0.0037	-0.0015	50.4
0.0037	-0.0023	0.003	-0.0008	50.3
-0.0053	0.0015	0	-0.0015	50.3
-0.012	0.0015	-0.0015	0	50.2
-0.0098	0.0045	-0.0046	0.0015	50.1
-0.0053	0.003	-0.0098	0.0007	50
0.0015	0.0015	-0.0098	0.0007	50
0.012	0.0015	-0.0083	0.0007	49.9
0.0165	0.0007	-0.0083	-0.0015	49.9
0.0067	0.0015	-0.0091	-0.0046	49.8
-0.0053	-0.0008	-0.0068	-0.0046	49.7
-0.015	-0.003	-0.006	-0.0046	49.6
-0.0203	-0.0038	-0.0053	-0.003	49.6
-0.0158	-0.003	-0.0023	-0.0015	49.5
-0.0053	-0.0008	-0.0008	0.0007	49.5
0.0045	0.0007	0	0.0015	49.4
0.0022	0.0015	-0.0015	-0.0008	49.3
-0.003	0.0007	0.0015	0	49.3
0.003	0.0015	0.0007	-0.0008	49.2
0.0052	-0.0015	-0.003	0.0007	49.1
0.0045	-0.003	-0.0068	0.0015	49
0.0052	-0.0023	-0.0181	0.0022	49
-0.0008	-0.0015	-0.0181	0.0045	49
-0.0046	-0.0015	-0.0173	0.003	48.9
-0.0023	-0.003	-0.0218	0.0007	48.8
0.0015	-0.0008	-0.015	-0.0008	48.7
0.0007	0	-0.0008	-0.0008	48.7
-0.003	0.0007	0.0225	-0.0023	48.6
-0.0091	0.0015	0.0315	-0.0046	48.6
-0.0098	-0.0008	0.0202	-0.0053	48.5
-0.0068	-0.0008	0.027	-0.006	48.4
-0.012	0	0.0285	-0.0046	48.4
-0.0105	0.0007	0.0142	-0.0015	48.3
-0.0053	0.0015	0.003	-0.003	48.2
-0.0046	0.0015	-0.0113	-0.006	48.2
-0.003	0.0022	-0.0158	-0.0053	48.1
-0.0038	0.0007	-0.0158	-0.0046	48
-0.0038	0.0007	-0.015	-0.003	48
0.0022	0.0045	-0.0091	-0.0008	47.9
0.012	0.003	0.0045	0.0007	47.8
0.0097	0.003	0.0202	-0.0015	47.8
-0.0023	0.0045	0.0165	-0.0023	47.7
-0.0046	0.0015	0.0082	-0.0008	47.6
-0.003	0.0022	0.0037	0.0007	47.6
0	0.0007	0.003	0.003	47.5
-0.0008	0.0007	0.0052	0.0045	47.4
-0.0046	0	0.0015	0.003	47.3
-0.0075	-0.0008	-0.0046	0.0015	47.3
-0.012	-0.0015	-0.0143	0.003	47.2
-0.0091	-0.0015	-0.0225	0.006	47.2
-0.003	0.0007	-0.0233	0.0067	47.1
0.0037	0.0007	-0.0188	0.006	47
0.0105	0.0007	-0.0113	0.006	46.9
0.0082	-0.0008	0.0045	0.0045	46.9
0.0007	0.0007	0.0262	0.0037	46.8
-0.0008	-0.0015	0.0352	0.0037	46.8
0.006	-0.0008	0.0255	0.003	46.6
0.0075	-0.0008	0.0082	0.003	46.6
-0.003	-0.0015	-0.0068	0.0037	46.5
-0.0113	-0.0023	-0.0098	0.0015	46.5
-0.0053	-0.0023	-0.0068	0	46.4
0.0015	0	0.0007	-0.0015	46.3
0.003	-0.0015	0.009	-0.0008	46.3
-0.0015	-0.003	0.003	0.0007	46.2
-0.0046	-0.0046	-0.0053	-0.0008	46.2
-0.0068	-0.0053	-0.0068	0	46.1
-0.0053	-0.0023	-0.0143	-0.0008	46
-0.0015	-0.003	-0.0158	-0.0008	46
0.0015	-0.0015	-0.0128	0.0007	45.9
-0.0015	-0.0023	-0.015	-0.0008	45.9
-0.0098	-0.0046	-0.0181	-0.003	45.8
-0.0105	-0.0053	-0.0188	-0.003	45.7
-0.0015	-0.0053	-0.015	-0.0008	45.7
0.0067	-0.0053	-0.006	0.0015	45.6
0.0127	-0.0068	0.0022	0.0015	45.5
0.0165	-0.0053	0.0067	0.0022	45.4
-0.0008	-0.0068	0.0157	0.0022	45.4
-0.0105	-0.0046	0.0247	0.0015	45.4
-0.0091	-0.0008	0.0255	0	45.3
-0.0091	-0.0008	0.0217	-0.0008	45.2
-0.006	0	0.0142	-0.0015	45.1
-0.0128	0.0007	0.0022	-0.0008	45.1
-0.0091	0.0015	-0.0068	0.0007	45
-0.003	0.0022	-0.0091	0.0007	45
-0.0038	0.0015	-0.0105	0.0007	44.9
0.003	-0.0008	-0.0105	-0.0008	44.8
0.0127	-0.003	-0.0053	-0.0008	44.7
0.0217	-0.0046	-0.0038	-0.0015	44.7
0.0255	-0.003	-0.0008	-0.0015	44.6
0.024	-0.0015	0.003	-0.0008	44.5
0.0225	-0.0023	0.0127	-0.0023	44.5
0.0142	-0.0008	0.0202	-0.0038	44.4
-0.0068	0	0.021	-0.0015	44.4
-0.0233	0.0007	0.0247	-0.0008	44.3
-0.0218	0.003	0.0217	0.0007	44.2
-0.0203	0.0022	0.0007	0.0015	44.1
-0.015	0.0022	-0.0135	-0.0008	44.1
-0.0098	0.0007	-0.0105	-0.0015	44.1
-0.0173	-0.0015	-0.012	-0.0053	44
-0.0285	-0.0015	-0.0128	-0.0068	43.9
-0.03	-0.003	-0.0098	-0.0046	43.8
-0.024	-0.003	-0.0046	-0.0038	43.8
-0.0188	-0.0015	0.003	-0.0015	43.7
-0.0195	-0.0015	0.0015	0	43.6
-0.0225	-0.0015	-0.0023	0	43.6
-0.0135	0.0007	0	-0.003	43.5
0.006	0.0015	0.0007	-0.003	43.4
0.027	0.0045	-0.003	-0.0008	43.4
0.0367	0.0037	0.003	-0.0015	43.3
0.0315	0.003	0.015	-0.0068	43.2
0.0202	0.0022	0.0135	-0.0143	43.2
0.0112	0	0.0052	-0.0143	43.1
0.0097	0	-0.003	-0.0128	43.1
0.0067	-0.0008	-0.0128	-0.0098	43
0.0015	-0.0008	-0.015	-0.0068	42.9
0.0007	-0.0023	-0.0143	-0.0068	42.8
0	-0.0038	-0.0135	-0.0038	42.7
-0.0113	-0.0023	-0.0128	-0.003	42.7
-0.024	-0.0015	-0.0105	-0.003	42.7
-0.024	-0.0015	-0.003	0.0007	42.6
-0.0165	-0.0008	0.0045	0.0022	42.5
-0.012	-0.0008	0.0112	0.0015	42.4
0.0007	-0.0015	0.0097	0.0022	42.4
0.0142	0	0.0075	0.0022	42.3
0.0247	0.0015	0.0247	0.0007	42.3
0.0277	0.0007	0.0345	0.0007	42.2
0.0037	-0.0015	0.012	0.0007	42.1
-0.0128	-0.0008	-0.003	0.0007	42
-0.012	0.0007	0.0015	0.0022	41.9
-0.015	0.0015	-0.0008	0.003	41.9
-0.0105	0.0007	0.003	0.0007	41.8
-0.0091	0.0015	0.0075	0.0015	41.8
-0.0083	0.003	0.0105	0.0015	41.7
-0.0091	0	0.0067	0	41.6
-0.0128	-0.0008	-0.0053	0.0007	41.5
-0.0158	0.0015	-0.0083	0.0015	41.5
-0.0143	0.0007	-0.0105	0.003	41.4
-0.006	0	-0.0128	0.0037	41.4
0.0015	0	-0.015	0.0045	41.3
0.018	-0.0008	-0.0091	0.0045	41.2
0.021	-0.0015	0.0015	0	41.1
0.012	-0.0015	0.0045	-0.003	41.1
0.009	-0.0008	0	-0.0046	41
0.0075	-0.0015	-0.0053	-0.0068	40.9
0.0045	-0.003	-0.0053	-0.0053	40.9
0.0007	-0.003	-0.0091	-0.0015	40.8
-0.0008	-0.0015	-0.0105	-0.0008	40.8
-0.0015	-0.003	-0.0143	-0.0008	40.7
-0.0083	-0.0046	-0.0203	-0.0008	40.6
-0.0128	-0.0023	-0.0203	0	40.6
-0.0128	-0.0008	-0.0143	0.0007	40.5
-0.0068	0.0007	-0.0083	0.0007	40.5
-0.0046	0.003	-0.0053	0.0015	40.4
-0.0068	0.0022	0.003	0.0022	40.3
-0.003	0.0007	0.012	0.0015	40.3
0.0067	-0.0008	0.0127	0.003	40.2
0.0045	-0.0015	-0.0023	0.003	40.1
0.0015	0.0007	-0.0143	0.003	40.1
0.0052	0.0022	-0.003	0.003	40
0.0067	0.0007	0.009	0.0007	39.9
0.0022	0.0015	0.015	-0.0008	39.9
-0.0053	0.0015	0.015	-0.0008	39.8
-0.012	0.0007	0.012	0.0015	39.7
-0.0113	0.0007	0.009	0.003	39.7
-0.0046	0.0015	0.0105	0.0022	39.6
-0.0046	0.003	0.0157	0.003	39.5
-0.0053	0.0022	0.018	0.0015	39.5
-0.0098	0.0007	0.012	0.0007	39.4
-0.0128	-0.0023	0.0067	-0.0008	39.3
-0.0091	-0.003	0.009	0.0007	39.2
0.0007	-0.003	0.0007	0.0007	39.2
0.0075	-0.003	-0.0083	0.0007	39.1
-0.0015	-0.003	-0.0038	0.0007	39.1
-0.0023	-0.0038	-0.0015	-0.003	39
0.0037	-0.0053	-0.0008	-0.0038	38.9
0.0052	-0.0053	-0.0046	-0.0046	38.8
0.0172	-0.003	-0.0068	-0.0023	38.7
0.0315	-0.003	-0.0068	-0.0015	38.7
0.024	-0.0008	-0.0105	-0.0015	38.6
0.0067	-0.0023	-0.0158	0.0007	38.6
-0.0008	-0.0023	-0.012	-0.0008	38.5
-0.0046	-0.0015	-0.0113	0.0015	38.4
0.0037	-0.0008	-0.012	0.0015	38.3
0.012	0.0015	-0.0046	0	38.2
0.009	-0.0008	-0.0015	0	38.2
0.0015	-0.0008	0.0075	-0.006	38.1
-0.012	-0.003	0.0217	-0.0098	38
-0.0278	-0.0038	0.0195	-0.0113	37.9
-0.0428	-0.0046	0.003	-0.0105	37.9
-0.0511	-0.0046	-0.0046	-0.0053	37.8
-0.039	-0.0008	0.0082	-0.0046	37.7
-0.0158	-0.0008	0.0225	-0.003	37.6
0.0022	-0.0008	0.0255	-0.0015	37.6
0.0075	-0.003	0.0262	-0.0023	37.5
0.0097	-0.0038	0.024	-0.0015	37.4
0.0157	-0.0046	0.0112	-0.0008	37.3
0.0105	-0.003	-0.0068	-0.0008	37.2
-0.0023	-0.0015	-0.0173	-0.0008	37.2
0.0015	-0.0023	-0.0158	-0.0008	37.1
0.009	0.0007	-0.0128	-0.0015	37
0.0127	-0.0015	-0.012	-0.0008	37
0.0082	-0.0008	-0.0098	-0.0008	36.9
0.0037	0.0015	-0.0105	-0.0015	36.8
0.0052	-0.0008	-0.0105	0.0007	36.8
0.0067	0.0007	-0.0143	0.0015	36.7
0.0045	-0.0008	-0.0165	0.0037	36.6
-0.0083	0	-0.0143	0.0037	36.5
-0.0113	0.0015	-0.0053	0.0037	36.4
-0.012	0.003	-0.0053	0.0045	36.4
-0.0143	0.0037	-0.0158	0.003	36.3
-0.012	0.0015	-0.024	0.0022	36.3
-0.0075	0	-0.024	0.0015	36.2
0.0007	-0.0008	-0.012	0.0007	36.1
-0.0046	0.0007	0.0112	0	36
-0.0075	0.0022	0.0352	0.0007	36
0.0052	0.0015	0.0495	-0.0008	35.9
0.0157	0.0007	0.0457	-0.0015	35.8
0.0142	0	0.0105	-0.0046	35.7
0.0142	0	-0.0165	-0.0158	35.7
0.0127	0.0007	-0.015	-0.0203	35.6
-0.0083	-0.0008	-0.0046	-0.0143	35.5
-0.027	0.0015	0.0142	-0.0113	35.4
-0.0346	0.003	0.0165	-0.0083	35.4
-0.027	0.0015	0.003	-0.0083	35.3
-0.0143	0	0.0052	-0.0053	35.2
-0.003	-0.0008	0.003	-0.0015	35.1
0.0105	0.0015	-0.0105	-0.003	35.1
0.0195	-0.0008	-0.0158	-0.0015	35
0.012	-0.0015	-0.015	0.0022	34.9
-0.006	-0.0023	-0.015	0.006	34.8
-0.0203	-0.0053	-0.0135	0.0075	34.7
-0.012	-0.0038	-0.0008	0.006	34.6
0.0045	-0.0023	0.0142	0.006	34.6
-0.0008	-0.0008	0.0217	0.006	34.5
-0.0128	-0.0023	0.0157	0.003	34.4
-0.0203	-0.0023	0.0037	0.0045	34.4
-0.0105	-0.0015	-0.0038	0.006	34.2
0.009	-0.0008	-0.0098	0.0052	34.2
0.027	0.0007	-0.0083	0.0045	34.1
0.0427	0.0007	-0.0165	0.0015	34.1
0.0562	-0.0008	-0.0188	0	34
0.0562	-0.0008	-0.0068	-0.003	33.9
0.039	0.0007	0.0082	-0.0015	33.8
0.0105	0.0015	0.003	0	33.7
-0.039	0.003	-0.0068	0.0022	33.7
-0.0735	0.0007	0.003	0.0052	33.6
-0.0706	-0.0015	0.0052	0.0052	33.5
-0.054	-0.0015	0.0052	0.006	33.5
-0.0361	0	0.0022	0.006	33.4
-0.021	0.0022	0	0.0067	33.3
0.0112	0.0007	-0.0008	0.0052	33.3
0.0465	-0.0008	0.0007	0.006	33.2
0.0495	-0.0015	-0.006	0.0067	33.1
0.0337	-0.0038	-0.0143	0.0037	33
0.0195	-0.003	-0.0128	0.0037	32.9
-0.0046	-0.0053	-0.006	0.0007	32.9
-0.0293	-0.0068	0.0142	0.0015	32.8
-0.0203	-0.0023	0.0247	0.0015	32.7
-0.0128	0	0.0217	-0.0038	32.7
-0.0233	0.0007	0.0202	-0.0053	32.6
-0.0143	0.0007	0.0142	-0.0053	32.5
-0.003	0.0007	-0.0015	-0.0053	32.4
0.009	0.0015	-0.0083	-0.0105	32.4
0.0187	0.0007	-0.0091	-0.0105	32.3
0.0157	0.0015	-0.0143	-0.0091	32.2
0.009	0.0015	-0.0098	-0.0098	32.1
-0.0015	0.0007	-0.0053	-0.0083	32
-0.0068	0.0007	0	-0.0083	31.9
-0.0203	0.0015	0.0007	-0.0046	31.9
-0.0263	0.003	0	0.0015	31.8
-0.0068	0.003	0.0007	0.003	31.7
0.0105	0.003	-0.0068	0.003	31.6
0.0165	0.0015	-0.0083	0	31.6
0.0075	-0.003	0.0007	-0.0015	31.5
-0.0135	-0.0068	0.0097	-0.003	31.4
-0.0143	-0.0075	0.0232	-0.0023	31.4
0.0067	-0.006	0.0172	0.0015	31.2
0.0142	-0.0015	0.0045	0.0022	31.2
-0.0075	-0.0008	0.006	-0.0008	31.1
-0.0143	-0.0023	0.0022	-0.0008	31
-0.0105	-0.003	-0.0046	-0.0023	31
-0.0173	-0.0015	-0.0053	-0.0046	30.9
-0.0158	0.0007	-0.0008	-0.0008	30.8
-0.0091	0.0015	0.003	0.0007	30.7
0	0.0015	0.003	0.003	30.6
-0.0008	0	0.0015	0.0045	30.6
-0.0008	-0.0015	0.0007	0.0067	30.5
0.006	-0.0015	0	0.009	30.4
-0.0046	-0.0008	0.0097	0.0082	30.4
-0.0068	0.0015	0.027	0.0105	30.3
-0.0053	0.0007	0.0195	0.009	30.2
-0.0098	-0.0023	-0.0008	0.0075	30.1
-0.0083	-0.003	-0.0158	0.006	30.1
-0.0023	-0.0015	-0.033	0.0045	30
0.0082	-0.0023	-0.0338	0.0015	29.9
0.0142	-0.0023	-0.0285	-0.003	29.8
0.009	-0.0015	-0.0218	-0.0038	29.7
0.0015	0.0007	-0.0068	-0.003	29.7
-0.0068	0.0015	0.0082	-0.0038	29.6
-0.021	0.0007	0.0247	-0.0091	29.5
-0.0218	0.0007	0.0247	-0.012	29.4
-0.0113	0.0007	0.0067	-0.0068	29.3
0.0007	-0.0008	-0.0113	-0.0053	29.3
0.0105	-0.0023	-0.0165	-0.0046	29.2
0.0082	-0.0046	-0.0105	-0.0015	29.1
0.003	-0.0046	-0.003	-0.003	29.1
-0.0008	-0.0015	-0.003	-0.0015	29
-0.0015	0.0007	-0.0053	-0.0023	28.9
0.0045	0.0007	0.0015	-0.0023	28.8
0.0045	0.0015	0.012	-0.0053	28.8
0.003	0.0007	0.0142	-0.0068	28.7
0.0067	-0.0008	0.0105	-0.0046	28.6
0.003	-0.0008	-0.0015	-0.0053	28.5
0.0052	0.0015	-0.0098	-0.003	28.4
0.0067	0.0007	-0.0165	-0.0023	28.3
-0.0046	-0.0023	-0.0181	0	28.3
-0.0038	-0.0008	-0.0165	0.0007	28.2
-0.0008	0.003	-0.0135	0	28.1
-0.0053	0.0045	-0.0046	-0.0008	28
-0.0098	0.0022	0.0037	-0.003	27.9
0.0015	0	0.0097	-0.0046	27.9
0.015	-0.0008	0.0082	-0.0053	27.8
0.0157	-0.0008	0.0052	-0.0068	27.7
0.0142	-0.003	0.0202	-0.0046	27.6
-0.006	-0.0023	0.0465	-0.0023	27.5
-0.042	-0.0008	0.051	-0.0015	27.4
-0.0518	-0.0015	0.021	-0.003	27.4
-0.0256	-0.0008	-0.0128	-0.003	27.3
0.0007	-0.0008	-0.03	-0.003	27.2
0.003	0	-0.0338	-0.0046	27.1
-0.0083	-0.0015	-0.0405	-0.0015	27
-0.0053	0.0007	-0.0465	-0.0015	27
0.0165	0.0022	-0.0398	-0.0015	26.9
0.0345	0.0022	-0.03	-0.0023	26.8
0.039	-0.0008	-0.0203	-0.003	26.7
0.033	-0.0053	-0.024	-0.0046	26.6
0.0255	-0.0098	-0.0315	-0.0068	26.5
0.018	-0.0105	-0.0203	-0.0046	26.5
0.0045	-0.0053	0.0015	-0.0008	26.4
-0.024	-0.0023	0.0195	0.003	26.3
-0.0405	-0.0008	0.0412	0.0037	26.2
-0.039	0.0007	0.054	0.0022	26.1
-0.0443	0.0007	0.0345	0.0015	26.1
-0.0293	-0.0023	0.0195	0.0015	26
0.0052	-0.0015	0.0187	0.0015	25.9
0.021	0.0015	0.0135	0.0015	25.9
0.0045	0.0007	0.0075	0.0015	25.8
0.0037	-0.0008	0.0045	0.003	25.7
0.0217	-0.0023	0.0022	0.0067	25.6
0.0195	0	0.0105	0.009	25.6
0.0097	0.0015	0.024	0.0045	25.5
0.0015	0.0007	0.0247	0.0007	25.4
-0.0046	-0.0008	0.024	0.0015	25.3
-0.0218	-0.0015	0.021	0.003	25.2
-0.0256	-0.0015	0.018	0.0015	25.2
-0.0195	0.0007	-0.0008	-0.012	25.1
-0.0203	0.0015	-0.0181	-0.0293	25
-0.015	0.0007	-0.0203	-0.0368	24.9
-0.0015	0.0037	-0.0293	-0.033	24.9
0.0255	0.0022	-0.0225	-0.0308	24.8
0.0382	0.0007	-0.0075	-0.0263	24.7
0.0277	0	0.0015	-0.0248	24.6
-0.0053	-0.0015	0.0105	-0.0203	24.6
-0.0218	0.0007	0.0202	-0.0105	24.5
-0.0068	0.0015	0.0157	-0.006	24.4
0.009	0.0015	0.009	-0.0068	24.3
0.009	0.0022	0.0045	-0.0083	24.3
-0.003	-0.0008	-0.012	-0.0038	24.2
0.0015	-0.0015	-0.0113	-0.0008	24.1
0.0067	-0.0015	0.0007	0.0015	24
-0.0046	-0.0015	-0.0046	0.0052	23.9
-0.0068	-0.003	-0.0158	0.0075	23.8
0.0142	-0.0023	0.0015	0.009	23.8
0.0292	-0.003	0.0172	0.009	23.7
0.024	-0.0053	0.0052	0.012	23.6
0.0345	-0.003	-0.0105	0.0165	23.6
0.0615	0.0007	-0.006	0.0165	23.4
0.0465	0	0.0127	0.0142	23.4
-0.0083	-0.0023	0.0105	0.0142	23.4
-0.0428	-0.0046	0.003	0.012	23.3
-0.057	-0.0023	0	0.0142	23.2
-0.048	0.0015	0.0045	0.0165	23.1
-0.0293	0.0045	0.003	0.0112	23
-0.0315	0.0037	-0.003	0.0022	22.9
-0.0375	0.0007	-0.0091	-0.003	22.9
-0.0293	0.0007	-0.0143	0.0007	22.8
-0.0203	0.0007	-0.0098	0.0045	22.7
-0.0225	-0.0008	-0.015	0.006	22.6
-0.0203	-0.0015	-0.0218	0.0052	22.6
-0.0165	-0.003	-0.0165	0.0067	22.5
-0.0105	-0.0008	-0.0053	0.012	22.4
-0.0046	-0.0008	0.0007	0.0105	22.3
-0.0098	0.0022	0.0037	0.009	22.3
-0.0285	0.0007	0.012	0.0052	22.2
-0.0278	-0.0008	0.0082	0.006	22.1
-0.0068	0.0007	0.0007	0.0075	22
-0.0068	-0.0015	0.0007	0.0045	21.9
-0.0105	-0.003	0.0037	0.006	21.9
-0.0173	-0.0015	0.0045	0.0067	21.8
-0.0083	-0.0008	0.0007	0.0082	21.7
0.018	0.0015	-0.0008	0.0052	21.7
0.0202	0.003	-0.0091	0.0007	21.6
0.021	0.0007	-0.012	-0.0008	21.5
0.0292	0.0015	-0.0091	0	21.5
0.0367	0.0007	-0.0008	-0.0015	21.4
0.042	0.0015	0.0165	-0.003	21.3
0.0427	0.003	0.021	-0.0053	21.2
0.0382	0.0015	0.0067	-0.0075	21.1
0.0315	0	-0.0105	-0.0053	21.1
0.024	0.0007	-0.0165	-0.003	21
0.0127	0.0022	-0.0135	-0.0023	21
0.0007	0.0007	-0.015	-0.003	20.9
-0.0135	-0.0015	-0.0135	-0.0015	20.8
-0.0158	-0.003	-0.0015	-0.003	20.7
-0.0083	-0.0015	0.0097	-0.0046	20.7
-0.0113	-0.0015	0.0105	-0.0008	20.6
-0.0165	-0.0015	0.0007	0.0022	20.5
-0.015	-0.0008	-0.003	0.0015	20.5
-0.0143	-0.0015	-0.0075	0.0037	20.4
-0.0181	-0.0015	-0.0083	0.0052	20.3
-0.0143	0.0007	0.0037	0.0052	20.3
-0.0015	0.003	0.009	0.0045	20.2
0.0142	0.0007	0.0105	0.0037	20.2
0.0105	-0.0008	0.0157	0.0045	20.1
-0.0188	-0.0015	0.018	0	20.1
-0.0218	-0.0068	0.0112	-0.003	20
-0.0195	-0.0083	0.0082	-0.003	19.9
-0.024	-0.0068	0.0052	-0.0046	19.9
0.009	-0.0046	0.0022	-0.0008	19.8
0.0277	-0.0023	-0.003	-0.0015	19.8
0.0015	-0.0046	-0.0068	-0.003	19.7
-0.0143	-0.0068	-0.0053	-0.0015	19.6
-0.021	-0.006	-0.0083	-0.0053	19.6
-0.0233	-0.006	-0.0105	-0.0046	19.5
-0.0038	-0.003	-0.0068	-0.006	19.5
0.0052	-0.0023	0.0037	-0.0083	19.4
-0.003	-0.0046	0.0082	-0.0098	19.3
-0.0075	-0.0015	0.0127	-0.0068	19.3
-0.0091	0.0015	0.015	-0.003	19.2
-0.003	0.0007	-0.0038	-0.003	19.2
0.0105	0.0007	-0.0173	-0.003	19.1
0.018	0	-0.0165	-0.0008	19
0.015	-0.0008	-0.0128	0.003	19
0.0015	0.0007	-0.0105	0.003	18.9
-0.012	-0.0008	-0.012	0.0052	18.9
-0.0181	0.0015	-0.012	0.0067	18.8
-0.0165	0.003	-0.0015	0.0045	18.7
-0.0083	0.0015	0.0022	0.0015	18.7
0.0075	0.003	0.0037	0.0007	18.6
0.0172	0.0045	0.0232	0.003	18.5
0.009	0.0052	0.0367	0.003	18.4
0.0022	0.0045	0.0217	0.0037	18.4
0.0045	0.0052	0.0052	0.0022	18.4
0.009	0.0082	-0.0053	0.003	18.3
0.0142	0.0067	-0.0256	0.0015	18.2
0.0255	0.003	-0.0218	-0.0008	18.1
0.0427	0.003	0.0015	-0.0015	18
0.0367	0.0007	0.0165	-0.0046	18
0.003	-0.003	0.0202	-0.0046	18
-0.0195	-0.0046	0.012	-0.0046	17.9
-0.015	-0.0038	0.0067	-0.0053	17.9
0.0037	0	0.0067	-0.0053	17.8
0	-0.0023	0.0075	-0.0038	17.8
-0.0188	-0.003	0.0105	-0.003	17.7
-0.0225	-0.003	0.0217	-0.0008	17.6
-0.0203	-0.003	0.0187	0.0022	17.6
-0.0203	-0.0008	-0.0128	0.003	17.5
-0.033	-0.0008	-0.03	0.003	17.5
-0.033	0	-0.0293	0	17.5
-0.0195	0.0015	-0.024	-0.003	17.4
-0.0113	0.003	-0.0181	-0.0015	17.3
-0.0068	0.0022	-0.0158	-0.003	17.3
-0.0173	-0.0008	-0.0091	-0.0098	17.2
-0.0263	-0.0023	-0.0068	-0.0143	17.2
-0.0113	-0.0023	-0.012	-0.0173	17.1
0.009	-0.0008	-0.0008	-0.0203	17
0.024	-0.006	0.006	-0.0203	17
0.0232	-0.0105	-0.0023	-0.0203	17
0.0157	-0.012	-0.003	-0.015	16.9
0.0195	-0.0083	-0.0038	-0.0091	16.9
0.0015	-0.0068	-0.0068	-0.0046	16.8
-0.0203	-0.0046	0.0022	0.0015	16.8
-0.0143	0.0007	0.0142	0.009	16.8
-0.0098	-0.0015	0.0187	0.0097	16.7
-0.024	-0.0015	0.0202	0.0097	16.7
-0.033	-0.0046	0.0172	0.0112	16.6
-0.0143	-0.0068	-0.0015	0.0112	16.6
0.0277	0	-0.0105	0.0127	16.6
0.06	0.0015	-0.0091	0.0105	16.5
0.0585	-0.0015	-0.006	0.0045	16.5
0.036	-0.003	0.0015	0.0037	16.4
0.0037	-0.0008	-0.0053	0.0075	16.4
-0.0023	0.0037	-0.0113	0.0112	16.4
0.018	0.0052	-0.0091	0.012	16.3
0.0142	0.0045	-0.0046	0.0052	16.3
-0.0128	0.0022	-0.006	0.0022	16.2
-0.024	-0.003	-0.0053	0.0015	16.2
-0.0181	-0.003	0.003	0.0007	16.2
-0.0203	0	0.0015	-0.0008	16.1
-0.015	0.0015	0.0015	-0.003	16.1
-0.0098	0.0007	0.0007	-0.0068	16.1
-0.0113	-0.0008	0.0097	-0.0091	16
-0.0128	0.0015	0.0195	-0.0091	16
-0.0165	0.0052	0.0142	-0.0113	15.9
-0.0135	0.0045	0.0135	-0.0098	15.9
-0.0105	0.0007	0.0217	-0.0091	15.9
-0.0128	0.0007	0.0337	-0.0075	15.8
-0.015	0.0007	0.0202	-0.003	15.8
-0.0203	0.0015	0.003	-0.0015	15.7
-0.0225	0.0037	-0.0023	-0.0008	15.7
-0.0181	0.0045	-0.0091	0	15.7
-0.0068	0.0015	-0.0158	-0.0023	15.7
0.0247	-0.0008	-0.0203	-0.0046	15.6
0.0487	-0.003	-0.006	-0.006	15.6
0.0315	-0.0068	0.0022	-0.003	15.6
0.0105	-0.0075	-0.0046	0.0007	15.5
0.0052	-0.0053	-0.0091	0.0007	15.4
0.015	-0.003	-0.0046	-0.0015	15.4
0.0157	-0.0015	0.003	-0.0038	15.4
-0.0135	0.0015	-0.0008	-0.0046	15.4
-0.0278	0.003	-0.0068	-0.0053	15.3
-0.0465	0.0015	-0.0053	-0.0046	15.3
-0.0645	-0.0008	-0.0015	-0.0008	15.3
-0.0338	-0.0015	-0.0015	-0.0023	15.2
-0.0008	-0.0008	-0.0008	-0.003	15.2
-0.0046	-0.0008	-0.0068	-0.0015	15.2
-0.0015	0	-0.0098	-0.003	15.1
0.0037	-0.0015	-0.003	0	15.1
-0.0083	-0.003	-0.0008	0.0022	15
-0.0053	-0.003	-0.0008	0.003	15
0.0015	-0.0038	0.0052	0.0007	15
-0.0023	-0.003	0.0082	-0.003	14.9
0.0067	-0.003	0.009	-0.0038	14.9
0.0202	-0.003	0.0285	-0.0075	14.8
0.0052	-0.0015	0.0427	-0.0091	14.8
-0.0173	0.0007	0.0195	-0.0068	14.8
0.0045	0.003	-0.0068	-0.0008	14.7
0.0277	0.0045	-0.024	-0.0015	14.7
0.0195	0.0037	-0.033	-0.0091	14.7
0.0157	0.0022	-0.0203	-0.0113	14.7
0.018	-0.0008	0.0007	-0.0105	14.6
0.0135	-0.0023	0.0157	-0.0068	14.6
-0.0128	-0.0083	0.009	-0.0083	14.6
-0.027	-0.0143	-0.006	-0.0091	14.5
-0.0233	-0.012	-0.0173	-0.0053	14.5
-0.0075	-0.0075	-0.0143	-0.003	14.5
0.0015	-0.0068	-0.0181	0.0007	14.4
-0.0113	-0.0083	-0.0203	0.0045	14.4
-0.0046	-0.0091	-0.0008	0.0045	14.4
-0.0158	-0.0091	0.0052	0.003	14.4
-0.0248	-0.0091	0.0015	0.0052	14.3
-0.0143	-0.0083	-0.0053	0.009	14.3
-0.0068	-0.0046	-0.012	0.0142	14.3
0.0015	0.0045	-0.0135	0.018	14.2
0.0142	0.0187	-0.0143	0.0187	14.2
0.0442	0.024	-0.0091	0.0202	14.2
0.048	0.0142	-0.003	0.0195	14.1
0.042	0.0142	0.0172	0.0165	14.1
0.0412	0.0142	0.0232	0.0202	14.1
0.0315	0.0112	0.0105	0.0225	14
0.0165	0.0097	0.0015	0.015	14
0.0082	0.0045	0.0082	0.012	14
0.0247	0.0075	0.0322	0.0127	13.9
0.0225	0.0052	0.0315	0.012	13.9
-0.0046	-0.0008	0.0142	0.012	13.9
-0.0188	-0.003	0.0067	0.006	13.9
-0.0218	-0.0023	-0.006	0.0022	13.9
-0.0315	-0.0015	-0.0046	0.0067	13.8
-0.039	-0.0015	0.0067	0.006	13.8
-0.0585	-0.0023	0.0075	0.003	13.8
-0.0945	-0.006	-0.0068	0.0022	13.8
-0.111	-0.0053	-0.024	0.003	13.7
-0.0691	-0.0046	-0.0218	0.003	13.7
-0.0083	-0.0015	-0.012	0.003	13.7
-0.0023	-0.0023	0.0015	0.003	13.6
-0.0098	-0.0015	0.0142	0.003	13.6
-0.0053	-0.0015	0.0142	0.0045	13.5
0.0232	-0.0038	-0.003	0.0015	13.5
0.0802	-0.0008	-0.003	0.0007	13.5
0.1155	-0.0008	0.0217	-0.0046	13.5
0.093	-0.006	0.0292	-0.0091	13.5
0.0337	-0.0091	0.0082	-0.0098	13.5
-0.0008	-0.0068	-0.015	-0.012	13.5
-0.0008	-0.0023	-0.0203	-0.0105	13.4
0.012	0.0007	-0.0158	-0.0083	13.4
0.018	0.0007	-0.0128	-0.0105	13.4
0.009	-0.0015	-0.0083	-0.012	13.3
0.0007	-0.0023	-0.0083	-0.012	13.3
-0.0008	0.0015	-0.0143	-0.0098	13.3
0.0067	0.0022	-0.0113	-0.0113	13.3
0.0112	0.003	-0.0113	-0.0143	13.2
-0.0015	0.0045	-0.012	-0.015	13.2
-0.0113	0.0015	-0.0046	-0.0105	13.2
-0.0046	0	0.0015	-0.0075	13.2
-0.0075	-0.0008	0.0135	-0.0038	13.1
-0.0068	0.0007	0.0315	0.0037	13.1
-0.0105	0.0015	0.0255	0.0052	13
-0.0248	0.003	0.0127	0.0067	13
-0.0368	0.0022	-0.0015	0.006	13
-0.0353	0.0022	-0.0256	0.0075	13
0	0.0022	-0.0293	0.0052	13
0.0067	-0.003	-0.0068	-0.0015	13
-0.0075	-0.0075	0.0187	-0.0015	13
-0.015	-0.0053	0.0232	-0.0008	12.9
-0.0278	-0.0023	0.024	0.0037	12.9
-0.0203	-0.0008	0.0067	0.003	12.9
-0.0315	-0.0015	-0.021	0.0007	12.8
-0.0256	0.0015	-0.0218	0.0022	12.8
0.021	0.003	-0.0053	0.0037	12.8
0.0442	0.0015	0.0165	0.0052	12.8
0.036	0.003	0.0165	0.0067	12.7
0.009	0.0037	0.0075	0.006	12.7
0.0015	0.0037	0.009	0.0045	12.7
-0.0091	0.0022	0.009	0.003	12.7
-0.012	0.0007	0.0112	0.003	12.6
-0.0091	-0.0008	0.0067	0.0045	12.6
-0.0091	-0.0015	0.0007	0.0045	12.6
0.006	0.0037	0	0.0052	12.6
0.0022	0.0022	-0.012	0.003	12.6
-0.0023	-0.0046	-0.0173	-0.0015	12.5
0.0015	-0.0053	-0.0128	-0.0008	12.5
-0.0046	-0.0015	-0.0158	0	12.5
-0.0173	-0.003	-0.0293	-0.0015	12.5
-0.0293	-0.0068	-0.039	-0.003	12.4
-0.0143	-0.003	-0.0353	-0.0015	12.4
0.009	0	-0.0128	-0.0008	12.4
0.0165	0.0015	0.0277	-0.0015	12.3
0.009	-0.0015	0.042	-0.0008	12.3
0	-0.003	0.0217	-0.0015	12.3
0.0202	0	-0.003	0	12.3
0.0442	-0.003	-0.0023	-0.0008	12.2
0.0405	-0.0046	0.0165	-0.0083	12.2
0.0202	-0.0053	0.0105	-0.0105	12.2
-0.0188	-0.0075	0	-0.0105	12.2
-0.0465	-0.0068	0.003	-0.0083	12.1
-0.0495	-0.0068	-0.0075	-0.0053	12.1
-0.0293	-0.0046	-0.012	-0.0046	12.1
-0.0165	-0.0008	-0.0113	-0.0046	12.1
-0.0083	-0.0015	-0.0173	-0.0038	12.1
-0.0068	0.0007	-0.0008	-0.0053	12.1
-0.0308	0.0045	0.0127	-0.003	12
-0.0015	0.0067	0.0022	-0.0015	12
0.0315	0.0045	-0.0015	-0.003	12
0.0105	0.0015	0.0067	-0.0046	12
-0.0143	-0.0008	0.0142	-0.0053	12
-0.042	-0.0046	0.0142	-0.003	11.9
-0.048	-0.003	0.0022	-0.0008	11.9
-0.0488	-0.0008	-0.0143	0.0015	11.9
-0.0361	0.0022	-0.0165	0.0015	11.9
-0.0008	0.003	0.0007	-0.0015	11.9
0.021	0.0007	0.027	-0.0046	11.8
0.0315	0.0007	0.0397	-0.0053	11.8
0.0127	0.0007	0.039	-0.0046	11.8
0.012	-0.0015	0.0255	-0.003	11.8
0.0322	-0.003	0.0097	-0.003	11.8
0.0675	0.0022	0.0037	-0.0023	11.7
0.1132	0.006	-0.003	-0.0008	11.7
0.0945	0.0067	-0.0053	-0.0023	11.7
0.0367	0.0052	-0.0135	-0.0023	11.7
-0.0173	0.003	-0.0143	0.0007	11.7
-0.0375	0.0007	-0.015	0.0007	11.7
-0.0503	-0.0046	-0.0135	-0.0015	11.7
-0.0893	-0.0105	-0.0038	-0.006	11.7
-0.0983	-0.0105	0.0015	-0.0075	11.7
-0.0878	-0.0091	0.0067	-0.0075	11.7
-0.0488	-0.0083	-0.0008	-0.0091	11.6
-0.0128	-0.0068	-0.0165	-0.0105	11.6
-0.0023	-0.003	-0.0188	-0.012	11.6
0.0037	-0.0015	-0.0248	-0.012	11.6
-0.0068	0.0015	-0.03	-0.0083	11.6
-0.0068	0.0045	-0.0233	-0.0053	11.6
-0.0068	0.0045	-0.0143	-0.0046	11.5
0.0007	0.0052	-0.0008	0	11.5
0.0337	0.0052	0.012	0.0037	11.5
0.0465	0.0067	0.012	0.0045	11.5
0.0142	0.0052	0.0075	0.0015	11.5
-0.0083	0.0037	0.0045	0.0015	11.4
-0.024	0.0037	-0.0008	0.0015	11.4
-0.0436	0.003	-0.006	-0.0008	11.4
-0.0405	0.0007	-0.0128	-0.003	11.4
-0.0405	-0.0046	-0.0075	-0.0068	11.4
-0.012	-0.006	-0.0038	-0.0083	11.4
0.0217	-0.0023	0.0045	-0.0091	11.4
0.0375	-0.0015	0.0217	-0.0135	11.4
0.027	-0.0068	0.0097	-0.012	11.3
0.0172	-0.0075	-0.0143	-0.0083	11.3
0.0427	-0.0083	-0.0181	-0.0091	11.3
0.0412	-0.0143	-0.0068	-0.0113	11.3
0.0457	-0.021	0.0202	-0.0083	11.3
0.0465	-0.024	0.0427	-0.0053	11.2
0.033	-0.0188	0.057	-0.0046	11.2
0.0165	-0.0158	0.0405	-0.0038	11.2
0.003	-0.0075	0.0142	-0.0038	11.2
0.0037	0.0097	0.0045	-0.003	11.2
-0.0128	0.0067	0.0015	-0.0046	11.2
-0.021	0.0015	-0.003	-0.003	11.2
-0.0113	0.015	-0.0098	-0.0008	11.1
-0.0113	0.0187	-0.0113	0.0015	11.1
-0.0233	0.0255	-0.012	0.0022	11.1
-0.0173	0.0315	-0.0173	0.0022	11.1
-0.0128	0.0345	-0.0315	-0.0015	11.1
-0.0203	0.0262	-0.0195	-0.003	11.1
-0.021	0.0105	0.0082	0.0045	11.1
-0.0233	0.0082	0.0015	0.0052	11.1
-0.0113	0.0007	-0.0083	0.0052	11.1
-0.003	-0.0038	0.0097	0.0037	11
-0.012	-0.0046	0.0277	0.0015	11
-0.0105	-0.0046	0.0255	0.0052	11
0.0045	-0.003	0.0067	0.0045	11
0.0202	-0.0083	-0.0091	0.0022	11
0.03	-0.0091	-0.0053	-0.0008	11
0.0315	-0.012	-0.0046	0	10.9
0.0247	-0.0128	-0.0068	0.0015	10.9
0.0127	-0.0128	-0.0091	0	10.9
0.0052	-0.0135	-0.0135	-0.0015	10.9
0	-0.0091	-0.012	-0.0015	10.9
-0.0091	-0.0068	-0.0158	0.0015	10.8
-0.0361	-0.0053	-0.0263	0	10.8
-0.0555	-0.0023	-0.0278	-0.0008	10.8
-0.039	-0.0008	-0.0195	0.0022	10.8
-0.0181	-0.0008	-0.0105	0.003	10.8
-0.0091	-0.003	-0.0038	0.003	10.8
-0.0083	-0.0038	0.003	0.003	10.8
-0.006	-0.0023	0.0037	0.0045	10.8
0.003	-0.003	-0.0068	0.0052	10.8
0.0315	-0.0015	-0.0015	0.0075	10.8
0.0652	-0.003	0.0262	0.006	10.8
0.051	-0.0046	0.0315	0.0037	10.8
0.027	-0.0083	0.0225	-0.0015	10.8
0.0157	-0.0091	0.0135	-0.006	10.7
-0.0053	-0.0046	-0.0158	-0.0053	10.7
-0.0158	-0.0038	-0.0248	-0.006	10.7
-0.012	-0.0046	-0.0128	-0.0091	10.7
-0.0046	-0.003	0.003	-0.0091	10.7
0.0045	0.0015	0.024	-0.0068	10.7
0.0127	0.0007	0.0262	-0.0053	10.7
-0.0098	-0.0075	0.0105	-0.0075	10.7
-0.0293	-0.0068	-0.0046	-0.0068	10.7
-0.0263	-0.0068	-0.003	-0.0105	10.7
-0.0383	-0.0091	0.0007	-0.0083	10.7
-0.033	-0.0068	0.0007	-0.003	10.7
-0.0248	-0.0046	0.0022	-0.0038	10.7
-0.0105	-0.0015	0.003	0	10.7
0.015	0.0007	-0.0008	0.0022	10.6
0.0285	0.0015	-0.0075	0.003	10.6
0.03	-0.0015	0.0007	0.0045	10.6
0.0142	-0.0008	0.0067	0.0037	10.6
0.0202	0.0037	-0.0015	0.0052	10.6
0.0292	0.0052	0.0022	0.0067	10.6
0	0.006	0.009	0.006	10.6
-0.0323	0.006	-0.0023	0.0075	10.5
-0.0308	0.009	-0.027	0.0082	10.5
0.0487	0.0075	-0.033	0.0067	10.5
0.1402	0.0022	-0.0173	0.0052	10.5
0.132	0.003	-0.0015	0.0045	10.5
0.0675	0.0015	0.0075	0.0052	10.5
-0.003	-0.0008	0.0015	0.0052	10.4
-0.078	0.0007	0.0082	0.003	10.4
-0.0773	0.0022	0.012	0.0045	10.4
-0.0593	0.003	0.0142	0.0007	10.4
-0.0863	-0.0023	0.0232	-0.0068	10.4
-0.0683	-0.0053	0.0255	-0.0068	10.4
-0.075	-0.0053	0.0255	-0.0023	10.4
-0.0968	-0.0046	0.0105	0.0015	10.4
-0.0518	-0.003	-0.0008	0.003	10.4
-0.0135	-0.0015	0.006	0.0007	10.4
-0.0098	-0.0008	0.018	-0.0008	10.3
-0.003	-0.0015	0.0127	-0.0008	10.3
0.012	0	-0.0008	-0.0015	10.3
0.0135	0.0037	-0.003	-0.0023	10.3
0.009	0.0052	-0.0053	0.0007	10.3
0.0105	0.0045	-0.006	0.0007	10.3
0.015	0.0045	-0.0091	-0.0038	10.3
0.018	0.0067	-0.0158	-0.0083	10.3
0.0202	0.006	-0.0053	-0.0113	10.3
0.0232	0.0045	-0.0008	-0.0135	10.3
0.024	0.0037	0	-0.0128	10.2
0.0195	0.0022	0.003	-0.0098	10.2
0.0052	0.003	0.0007	0.0007	10.2
-0.0008	0.0045	-0.0068	0.0067	10.2
-0.0038	0.0015	-0.0091	0.0082	10.2
0.0045	0	0.0007	0.0067	10.2
0.0157	-0.003	-0.0008	0.003	10.2
0.009	-0.0023	-0.003	0.0015	10.2
-0.0023	0.0015	-0.0053	0	10.2
-0.0173	0.0015	-0.0023	-0.0023	10.2
-0.0165	0.0007	-0.0053	-0.0068	10.1
-0.0091	-0.0015	-0.0098	-0.0083	10.1
-0.0083	-0.0023	-0.0068	-0.0083	10.1
-0.0068	0	-0.0091	-0.0083	10.1
-0.0098	0.0007	-0.0083	-0.0053	10.1
-0.003	0	-0.012	-0.003	10.1
0.006	-0.0008	-0.0091	-0.0015	10.1
0.0097	-0.0015	0.0015	-0.0008	10.1
0.0082	-0.0046	0.0037	0.0007	10
0.003	-0.0046	-0.0015	0.0052	10
0.009	-0.0023	-0.012	0.006	10
0.027	-0.0046	-0.0135	0.0015	10
0.039	-0.0128	-0.006	0.0015	10
0.021	-0.0158	-0.003	0.0007	10
0.003	-0.0091	-0.0053	0.0007	10
0.0135	0.0037	-0.0143	0	10
0.0135	0.0067	-0.0083	-0.0038	10
-0.0053	-0.0023	0.006	-0.003	10
-0.0068	-0.003	0.0142	-0.0015	10
0.0045	0.003	0.0195	0	10
-0.003	0.0165	0.018	0	9.9
-0.0165	0.0277	0.03	-0.003	9.9
-0.0075	0.0135	0.039	-0.0008	9.9
-0.003	0.0067	0.0217	0.0015	9.9
-0.0008	0.0067	-0.003	0.003	9.9
0.0165	-0.0008	-0.015	0.0045	9.9
0.0052	-0.0023	-0.0188	0.0015	9.9
-0.0128	-0.006	-0.024	0.0007	9.9
-0.0158	-0.0046	-0.0203	-0.0008	9.9
-0.0278	-0.003	-0.0128	0	9.9
-0.0375	-0.0083	-0.0075	0.0015	9.9
-0.033	-0.0091	0.0015	0.003	9.9
-0.0023	-0.0105	0.006	0	9.9
0.0322	-0.006	-0.0015	-0.0015	9.9
0.0165	0.0007	-0.0068	-0.0023	9.9
-0.024	-0.0015	-0.0105	-0.0083	9.9
-0.0308	-0.003	-0.0015	-0.0083	9.9
-0.0293	-0.0023	0.012	-0.0068	9.9
-0.033	-0.0038	0.0202	-0.0046	9.9
-0.024	-0.0008	0.0187	0	9.9
-0.012	0.0045	0.006	0.0045	9.9
0.0202	0.0052	0	0.0045	9.9
0.0427	-0.0008	0.0007	0.0022	9.9
0.0435	-0.0083	0.0022	0	9.9
0.0495	-0.0091	-0.0008	0.0007	9.9
0.0517	-0.0075	-0.0068	0.0007	9.9
0.0495	-0.0068	-0.0046	0.0007	9.9
0.0405	-0.0038	0.0052	0.0045	9.9
0.0255	-0.0015	0.0067	0.0037	9.9
0.0052	-0.0008	-0.0008	0.003	9.9
-0.0158	0.003	-0.0068	0.003	9.9
-0.03	0.0015	-0.0091	0	9.9
-0.039	0	-0.0068	-0.0008	9.9
-0.0353	0.0037	-0.0015	-0.0008	9.9
-0.024	0.0007	-0.0008	-0.0008	9.9
-0.003	-0.0008	0.0015	-0.0008	9.9
0.0052	0	0.0067	-0.0023	9.9
-0.012	-0.0015	-0.0046	-0.0008	9.9
-0.0143	0	-0.0165	-0.0008	9.9
-0.0158	-0.0038	-0.0135	0	9.9
-0.039	-0.006	-0.0015	0	9.9
-0.0346	-0.0015	0.0105	0.0015	9.9
0.0045	0	0.0202	0.003	9.9
0.0075	-0.0053	0.0262	-0.0023	9.9
-0.027	-0.0083	0.0112	-0.0046	9.9
-0.0308	-0.0075	-0.0105	-0.0023	9.9
-0.0008	-0.0068	-0.0015	0	9.9
0.0037	-0.0046	-0.0023	0	9.9
-0.0015	-0.0046	-0.0023	-0.0008	9.9
-0.003	-0.0046	0.018	0	9.9
-0.0203	-0.0008	0.0165	-0.0008	9.9
-0.0195	0.0007	0.0105	0.0007	9.9
-0.0008	0.0015	0.0067	0.003	9.9
0.0165	0.0015	0.0127	0.0022	9.9
0.0472	0.0045	0.0195	0.003	9.9
0.069	0.006	0.0097	0.0037	9.9
0.072	0.0022	-0.0015	0.0022	9.9
0.0607	0.0015	-0.0068	0.0015	9.9
0.015	0.0022	-0.003	0.0015	9.9
-0.0181	0.0015	0.0052	0.0022	9.9
-0.042	0.0007	0.0045	0.0015	9.9
-0.0915	-0.0023	-0.0091	-0.0008	9.9
-0.105	-0.0015	-0.0143	-0.0023	9.9
-0.0675	0.003	-0.0128	-0.0008	9.9
-0.0256	0.003	-0.012	0	9.9
-0.0195	0.003	-0.0173	-0.0015	9.9
-0.021	0.0037	-0.0338	-0.003	9.9
-0.0195	0.003	-0.0443	-0.003	9.9
-0.0015	0.003	-0.0278	-0.0053	9.9
0.0172	-0.0008	0.009	-0.0068	9.9
-0.0015	-0.003	0.0217	-0.0053	9.9
-0.0203	-0.0046	-0.0008	-0.0075	9.9
-0.0428	-0.003	-0.0203	-0.0046	9.9
-0.039	0.003	-0.0038	-0.0015	9.9
-0.012	0.0037	0.036	-0.0015	9.9
-0.0165	0.0037	0.0487	0	9.9
-0.0248	0.003	0.0232	-0.0008	9.9
-0.0135	0.0037	-0.0008	0.0037	9.9
0.009	0.0075	-0.0165	0.0045	9.9
0.021	0.0052	-0.0135	0.0015	9.9
0.0382	0.0052	0.0075	0.003	9.9
0.0585	0.0067	0.03	0.0015	9.9
0.0622	0.0015	0.0292	-0.0015	9.9
0.0622	-0.0083	-0.0128	-0.0053	9.9
0.057	-0.0165	-0.0368	-0.0105	9.9
0.051	-0.012	-0.033	-0.0091	9.9
0.0367	-0.0046	-0.0315	-0.0091	9.9
0.021	-0.0038	-0.0256	-0.0105	9.9
0.0007	-0.0068	-0.0165	-0.0075	9.9
-0.0143	-0.0038	-0.0083	-0.0046	9.9
-0.0038	-0.0015	-0.0023	-0.0046	9.9
0.0015	-0.0023	0.0045	-0.003	9.9
-0.012	0.0007	0.009	-0.0008	9.9
-0.0256	0.0007	0.0112	0.0007	10
-0.0143	0.0015	0.0105	0.0022	10
-0.0143	0.0015	0.0142	0.0015	10
-0.024	0.0007	0.0307	0.0037	10
-0.0398	-0.003	0.0457	0.0045	10
-0.066	-0.0091	0.0405	0.0015	10
-0.0488	-0.0068	0.0247	0.0015	10
-0.0203	-0.006	0.0127	-0.0008	10
-0.021	-0.0053	-0.0008	-0.0015	10
-0.0143	-0.0023	-0.0091	-0.0015	10
0.0045	-0.0008	-0.0173	-0.0023	10.1
0.0232	0.0045	-0.0293	-0.0015	10.1
0.0502	0.0045	-0.0368	-0.003	10.1
0.075	0.0037	-0.0315	-0.0053	10.1
0.072	0.0007	-0.015	-0.0068	10.1
0.0277	-0.003	-0.0008	-0.0068	10.1
-0.0188	0.0015	0.0067	-0.0046	10.1
-0.0308	0.0022	0.0112	-0.003	10.1
-0.0218	0.0045	0.009	-0.0015	10.1
-0.015	0.0052	-0.006	-0.0008	10.1
-0.0173	0.0007	-0.0053	-0.0046	10.1
-0.012	-0.0008	-0.0008	-0.0053	10.1
0.0052	-0.0008	0.0045	-0.0015	10.1
0.0105	0	0.0052	0.0007	10.1
-0.0256	-0.0015	-0.0008	0.0015	10.1
-0.0511	0.0007	0.0007	0.0037	10.1
-0.0398	0	0.0015	0.0007	10.1
-0.039	-0.0046	0.0015	0.0015	10.1
-0.0278	-0.0038	0.0045	0.003	10.1
0.0067	0.0007	0.0067	0.0045	10.1
0.045	0.0045	0.0052	0.0082	10.1
0.0577	0.0045	0.0052	0.0075	10.1
0.0592	0.0015	0.0105	0.0015	10.1
0.0525	-0.0015	0.018	-0.0015	10.1
0.0195	-0.0046	0.021	-0.0015	10.1
-0.012	-0.0068	0.0187	-0.0008	10.1
-0.0173	-0.003	0.0127	0.0015	10.1
-0.003	0.0007	0.0045	0	10
0.0075	0.0007	-0.0105	-0.0008	10
0.0045	0.0007	-0.0195	-0.0008	10
-0.015	0.0007	-0.0135	-0.0008	10
-0.0346	0	-0.012	0.0015	10
-0.0233	0.003	-0.012	0.0022	10.1
0.0052	0.003	-0.0143	0.003	10.1
0.0067	0.003	-0.0158	0.0045	10.1
-0.0158	0.0037	-0.0053	0.003	10.1
-0.054	-0.003	0.009	0	10.1
-0.0735	-0.0046	0.0045	0.0015	10.1
-0.0413	-0.0046	0.0015	0.0015	10.1
-0.0135	-0.003	0.0127	0	10.1
0.0022	-0.0023	0.0022	0.0007	10.1
0.021	-0.0053	-0.0091	0.0007	10.1
0.0315	-0.0075	-0.0173	-0.0015	10.1
0.0307	-0.012	-0.0203	-0.003	10.1
0.0292	-0.012	-0.0083	-0.003	10.1
0.0202	-0.0098	-0.0053	-0.0038	10.1
-0.0046	-0.0068	-0.0105	-0.0046	10.1
-0.0195	-0.0053	-0.0091	-0.003	10.1
-0.0293	-0.0053	-0.006	-0.0046	10.1
-0.0188	-0.0008	0.003	-0.0046	10.1
-0.006	-0.0008	0.015	-0.003	10.1
0.0022	0.0015	0.0142	-0.003	10.1
0.0225	0.0067	0.0187	-0.0053	10.2
0.0142	0.0217	0.0255	-0.0113	10.2
0.0052	0.0322	0.0225	-0.0105	10.2
0.024	0.018	0.015	-0.0135	10.2
0.033	0.0067	0.003	-0.0158	10.2
0.0255	0.003	-0.0008	-0.015	10.2
0.0045	-0.0008	-0.0046	-0.0135	10.2
-0.0233	0.0015	-0.0068	-0.0173	10.2
-0.0465	-0.0038	-0.0015	-0.0233	10.2
-0.0315	-0.0068	0.0142	-0.0203	10.2
-0.0188	-0.0083	0.0172	-0.0181	10.2
-0.0218	-0.0105	0.0015	-0.015	10.2
-0.0173	-0.0068	-0.0128	-0.0068	10.2
0.003	0.0007	-0.0293	0	10.2
0.057	0.0022	-0.0293	0.003	10.2
0.0975	0.0007	-0.021	0.003	10.2
0.0915	-0.003	-0.0128	0.0007	10.2
0.0315	-0.0091	-0.003	0.0015	10.2
-0.0098	-0.0091	0.0007	0.0052	10.2
-0.015	-0.0046	0.0015	0.006	10.2
-0.0443	-0.0008	-0.003	0.0052	10.3
-0.0758	0	0	0.0067	10.3
-0.0795	-0.0015	0.003	0.0105	10.3
-0.0465	-0.0015	0.0105	0.0105	10.3
-0.0218	-0.0015	0.0105	0.0082	10.3
-0.0256	-0.003	0.012	0.009	10.3
-0.0346	-0.0038	0.0165	0.0082	10.3
-0.0488	-0.006	0.0052	0.0082	10.3
-0.048	-0.0046	0.0007	0.012	10.3
-0.0353	-0.0015	0.0052	0.015	10.3
-0.0181	0.0015	0.0135	0.0165	10.3
0.0022	0.0067	0.0097	0.0112	10.3
0.0315	0.0052	0.0045	0.009	10.3
0.0892	0.006	0.0127	0.0112	10.3
0.1387	0.0052	0.0307	0.0075	10.3
0.1057	-0.0046	0.042	0.0015	10.3
0.039	-0.0083	0.0172	-0.003	10.3
0.012	-0.0068	-0.021	-0.0023	10.3
-0.0023	-0.0046	-0.0346	0.0007	10.3
-0.0173	-0.0038	-0.033	0.0045	10.3
-0.0225	-0.0046	-0.0233	0.0067	10.3
-0.0218	0	-0.0105	0.009	10.3
-0.0015	0.0022	-0.0083	0.0052	10.4
0.009	-0.0008	-0.0135	0.003	10.4
-0.006	-0.0008	-0.0135	0.0067	10.4
-0.0285	0.0007	-0.0046	0.0082	10.4
-0.0495	-0.0008	0.0015	0.0105	10.4
-0.0511	0.0015	-0.0068	0.0112	10.4
-0.039	0.0052	-0.0195	0.0135	10.4
-0.0173	0.0052	-0.0143	0.0165	10.5
0	0.003	-0.0068	0.0142	10.5
0.009	0.0045	-0.0038	0.0142	10.5
0.0165	0.0045	0.0015	0.012	10.5
0.0405	0.003	0.0082	0.0082	10.5
0.0442	0.003	0.0127	0.0075	10.5
0.003	-0.0008	0.0112	0.006	10.5
-0.0158	-0.0015	0.0075	0.0082	10.5
-0.0195	-0.0008	-0.003	0.0082	10.5
-0.0188	-0.0008	-0.0068	0.0015	10.5
-0.0158	-0.0046	-0.0083	-0.0008	10.5
-0.0278	-0.0053	-0.0091	-0.0038	10.6
-0.0353	-0.0068	-0.0008	-0.003	10.6
-0.0308	-0.0038	0.0052	0.0007	10.6
0.0045	-0.0015	0.012	-0.0008	10.6
0.0375	-0.0015	0.0217	-0.0008	10.6
0.0232	0.0007	0.024	-0.0023	10.6
0.003	0.0007	0.012	-0.006	10.6
0.012	0.0015	0.0037	-0.0083	10.6
0.0255	0.0045	-0.0015	-0.0105	10.6
0.0367	0.0045	0.003	-0.0113	10.6
0.0457	0.0007	0.0127	-0.0158	10.6
0.0172	-0.0075	-0.0008	-0.0225	10.6
0.0045	-0.0128	-0.0038	-0.0256	10.6
-0.0046	-0.0083	0.0105	-0.0218	10.6
-0.027	-0.003	0.0135	-0.0181	10.6
0.0007	-0.0023	0.0067	-0.0165	10.6
-0.0075	0.0007	-0.0091	-0.0165	10.6
-0.0428	-0.0015	-0.0181	-0.0158	10.6
-0.0458	-0.0015	-0.0091	-0.0158	10.6
-0.0233	-0.0008	-0.0053	-0.0173	10.7
-0.0015	-0.0015	-0.0046	-0.0165	10.7
-0.0105	0.0007	-0.0046	-0.0143	10.7
-0.003	0.0022	-0.0038	-0.0128	10.7
-0.0098	0.0037	0	-0.0113	10.7
-0.0203	0.003	0	-0.0091	10.7
-0.0218	0.003	-0.006	-0.0083	10.7
-0.0165	0	-0.0165	-0.0083	10.7
0.0015	0	-0.0158	-0.0083	10.7
0.006	0	-0.0068	-0.0083	10.7
0.0225	-0.0015	-0.0008	-0.006	10.7
0.0277	-0.0015	-0.0008	-0.0015	10.7
0.015	-0.0015	0	0.0015	10.7
0.0022	-0.0008	0.0045	-0.0008	10.7
-0.0143	-0.0015	0.0015	-0.003	10.7
-0.0233	-0.0015	-0.0008	-0.0015	10.7
-0.0181	-0.0008	0.0067	0	10.7
-0.0053	-0.0008	0.012	0.003	10.7
0.0052	0.003	0	0.0037	10.7
0.0142	0.0045	-0.0158	0.0052	10.7
0.0225	0.0015	-0.0083	0.0045	10.7
0.0247	-0.0008	0.0075	0	10.7
0.0015	-0.0015	0.009	-0.0008	10.7
-0.033	-0.0053	0.0007	0.0015	10.7
-0.0361	-0.0023	-0.0068	0.0015	10.7
-0.0105	0.0007	-0.0113	0.0015	10.7
0.0127	-0.0008	-0.0105	-0.0023	10.7
0.0262	-0.0015	-0.0083	-0.0023	10.7
0.0345	-0.0015	-0.0015	-0.0008	10.7
0.045	-0.0015	0.0045	0.0007	10.7
0.0472	0	0.0007	0.0015	10.7
0.0225	0.0015	0.0015	-0.0008	10.7
-0.0008	0.0015	0.0082	-0.0008	10.7
0	0.003	0.009	-0.0008	10.7
0.0015	0.0015	0.003	-0.0008	10.7
-0.0203	-0.0015	0.0037	-0.0008	10.7
-0.0495	-0.0015	0.0045	0.0015	10.7
-0.063	0.0007	-0.0008	0.003	10.7
-0.0713	-0.0015	0.0007	0.0045	10.7
-0.0503	-0.003	0.0142	0.0067	10.7
-0.0128	-0.0008	0.018	0.0082	10.7
-0.012	0.0007	0.0187	0.0105	10.7
0.0082	0.0045	0.0172	0.0082	10.7
0.039	0.0045	0.0037	0.0015	10.7
0.0502	0.0007	-0.0046	-0.0068	10.7
0.0645	-0.0046	-0.006	-0.0091	10.7
0.0397	-0.0075	-0.0015	-0.006	10.7
0.009	-0.0053	-0.0075	-0.0046	10.7
-0.0046	-0.0023	-0.0158	-0.0046	10.7
-0.0053	0.0007	-0.0188	-0.003	10.7
0.003	0	-0.0218	-0.003	10.7
0.0015	-0.0015	-0.0188	0	10.7
0.0157	-0.0023	-0.0143	0.003	10.7
0.0157	-0.0008	-0.0068	0.003	10.7
0.0015	0	-0.0015	0.003	10.7
-0.0218	-0.0015	0.0007	0.0015	10.7
-0.0405	-0.0015	0.0052	0.003	10.6
-0.0465	-0.003	0.012	0.006	10.6
-0.0645	0	0.0067	0.0075	10.6
-0.057	0.0045	-0.0053	0.0082	10.6
-0.0181	0.0045	-0.0128	0.0082	10.7
-0.0128	0.0037	-0.0181	0.0097	10.7
-0.0368	0.0045	-0.0173	0.0105	10.7
-0.0315	0.0075	-0.0143	0.0082	10.7
-0.0068	0.0045	-0.0015	0.0045	10.7
0.0142	0.0022	0.009	0.0007	10.7
0.03	-0.0015	0.009	-0.0046	10.7
0.0427	-0.0046	0.027	-0.0038	10.7
0.0382	-0.006	0.0435	-0.0038	10.7
0.0262	-0.0068	0.039	-0.0015	10.7
0.0067	-0.003	0.0405	0.0007	10.7
-0.0218	-0.0038	0.033	-0.003	10.7
-0.0188	-0.0023	0.015	-0.0008	10.7
-0.0068	-0.0008	0.003	-0.0015	10.7
-0.0046	0.0007	-0.0038	-0.0015	10.7
0.0037	0.0007	-0.0008	0	10.7
-0.0023	0.0007	0.0045	-0.0015	10.7
-0.015	0.0007	0.0007	-0.0015	10.7
-0.021	-0.0008	-0.0091	-0.0015	10.7
-0.0218	0.0007	-0.0203	0	10.7
-0.0293	0.0022	-0.027	-0.0015	10.7
-0.0263	0.0015	-0.0256	-0.003	10.7
-0.0015	0	-0.0285	-0.003	10.7
0.0255	0.0015	-0.0233	-0.0023	10.7
0.0427	0.0007	-0.0053	-0.0008	10.7
0.0322	-0.0008	0.0015	-0.0015	10.7
0.0157	-0.0053	-0.0083	-0.003	10.8
0.0165	-0.0068	-0.006	0.0007	10.8
0.0277	-0.0015	0.0015	0.003	10.8
0.0337	0.0007	-0.0046	0.0015	10.8
0.024	0.0015	0.0097	0.0015	10.8
0.0195	0.0015	0.0255	-0.0015	10.8
0.003	-0.0015	0.0202	-0.003	10.8
-0.03	-0.0038	0.0097	0	10.8
-0.024	-0.003	-0.0015	0.0015	10.8
-0.003	-0.0015	-0.0068	-0.0008	10.8
-0.015	-0.0038	0.003	-0.0008	10.8
-0.0233	-0.0038	0.0225	-0.0015	10.8
-0.0353	-0.003	0.033	-0.0046	10.8
-0.03	-0.0015	0.0255	-0.003	10.8
-0.0015	0.0007	0.0082	-0.0046	10.8
0.0067	0.003	-0.0053	-0.0068	10.8
0.0232	0.0052	-0.0091	-0.0046	10.8
0.033	0.0082	-0.0046	-0.003	10.8
0.0255	0.0067	-0.0053	-0.0053	10.8
0.0232	0.0037	-0.0015	-0.0083	10.8
0.0142	-0.0015	-0.0038	-0.0091	10.8
-0.0083	-0.0053	-0.012	-0.0083	10.8
-0.0218	-0.0038	-0.0158	-0.006	10.8
-0.0256	-0.0015	-0.0225	-0.0023	10.8
-0.0233	0.0015	-0.0308	0.0007	10.8
-0.012	0.0022	-0.0315	0.0007	10.8
0.0007	0.0015	-0.0203	0.0007	10.8
0.0007	0.0007	-0.0105	-0.0015	10.8
-0.015	-0.003	-0.0083	-0.003	10.8
-0.0225	-0.0046	-0.0091	-0.0015	10.8
-0.0203	-0.0053	-0.0098	-0.0015	10.8
-0.0143	-0.0046	-0.0068	0.0007	10.8
-0.0075	-0.0015	0.0067	0.0022	10.8
0.0067	-0.0008	0.0195	0.0007	10.8
0.0082	-0.003	0.0202	-0.0015	10.8
-0.0068	-0.0008	0.012	0.0015	10.8
-0.006	0.0037	0.0075	0.0045	10.8
0.0195	0.003	0.0105	0.0022	10.8
0.0592	-0.003	0.0187	0.0022	10.8
0.0555	-0.0068	0.0157	0.0015	10.8
0.0232	-0.0075	0.0007	-0.003	10.8
0.0022	-0.0098	-0.003	-0.003	10.8
-0.0278	-0.0091	-0.0053	-0.0046	10.8
-0.0383	-0.0098	-0.0075	-0.0038	10.8
-0.042	-0.0105	-0.0046	-0.0015	10.8
-0.0593	-0.0098	-0.0046	-0.0015	10.8
-0.0563	-0.0098	-0.0015	-0.0008	10.8
-0.024	-0.006	0	0.0007	10.8
-0.0046	-0.0008	-0.0008	0.0007	10.8
0.0007	0.0105	-0.0046	0.0045	10.8
0.0015	0.0277	-0.0091	0.0067	10.8
0.003	0.0202	-0.0053	0.006	10.8
0.0052	0.009	-0.0008	0.0052	10.8
0.006	0.0097	0.0007	0.0037	10.8
0.009	0.0007	0.0022	0.003	10.8
0.0045	0.0007	0	-0.0008	10.8
0.0015	0	0.0015	-0.0015	10.8
-0.0008	-0.003	0.003	0	10.8
-0.0083	-0.0023	-0.0008	0.0007	10.8
-0.0165	-0.006	-0.0015	-0.0008	10.8
-0.0256	-0.0023	0.0015	-0.003	10.8
-0.0181	-0.003	0.003	-0.0038	10.8
-0.0008	-0.0008	0.0045	-0.0046	10.8
0.0135	-0.0008	0.0052	-0.0053	10.8
0.0315	-0.003	0.003	-0.0053	10.8
0.0495	-0.0015	-0.0015	-0.0038	10.8
0.039	-0.0046	0.0007	-0.0053	10.8
0.015	-0.006	0.0195	-0.006	10.8
0.0217	-0.0053	0.0345	-0.003	10.8
0.024	-0.0046	0.0157	-0.0015	10.8
-0.003	-0.0068	-0.0038	-0.003	10.8
-0.0203	-0.0083	0.003	-0.0023	10.8
-0.0256	-0.0053	0.0052	-0.0008	10.8
-0.0346	-0.003	0.0075	-0.0015	10.8
-0.0263	-0.003	-0.0008	-0.0008	10.8
-0.0075	-0.003	-0.0053	0.0022	10.8
0.0015	0	-0.0038	0.003	10.8
0.0045	0.003	-0.006	0.0007	10.8
0.0157	0.003	-0.0053	-0.0015	10.8
0.0232	-0.0008	-0.0105	-0.0015	10.8
0.0045	-0.003	-0.012	0.0007	10.8
-0.0083	-0.0015	-0.0075	0.003	10.8
0	0.0015	-0.0046	0.003	10.8
0.003	0	-0.003	0.003	10.8
0.0052	0.0015	-0.0038	0.0007	10.8
0.0037	0.0022	-0.0046	-0.0046	10.8
-0.0075	0.0007	-0.003	-0.0053	10.8
0	0.0045	0.0075	-0.0008	10.8
0.0165	0.006	0.0082	-0.0008	10.8
0.0135	0.0022	0.0007	-0.0015	10.8
-0.003	0	0	-0.0008	10.8
-0.0278	-0.0015	-0.0015	-0.0023	10.8
-0.0383	-0.0008	-0.0046	-0.0015	10.8
-0.0278	-0.0008	-0.0046	-0.0008	10.8
-0.0173	-0.0008	-0.0068	0.003	10.8
-0.003	0.0007	-0.0038	0.003	10.9
0.0217	0.0037	-0.0008	0.0045	10.9
0.0322	0.0045	-0.0053	0.003	10.9
0.0315	0.0022	-0.0053	-0.0015	10.9
0.018	0	-0.0053	-0.003	10.9
-0.0053	-0.0023	-0.0068	-0.0046	10.9
-0.006	-0.0068	-0.0098	-0.0053	10.9
-0.012	-0.0068	-0.0105	-0.0046	10.9
-0.0308	-0.0053	-0.0053	-0.003	10.9
-0.0428	-0.0038	0	-0.0015	10.9
-0.0368	-0.0008	0.0075	0.003	10.9
-0.0248	-0.0015	0.0105	0.0045	10.9
-0.0203	-0.0015	0.0067	0.0045	10.9
0.0045	0.0022	0.0052	0.0067	10.9
0.024	0.0052	0.0127	0.0067	10.9
0.0105	0.0052	0.0255	0.003	10.9
-0.012	0.0067	0.0277	0.0007	10.9
-0.0143	0.0052	0.0195	-0.003	10.9
-0.0105	0.0045	0.0075	-0.0053	10.9
-0.0113	0.0045	0.0007	-0.0038	10.9
-0.0053	0.003	-0.006	-0.0038	11
0.0037	0.003	-0.0091	-0.0046	11
0.018	0.0015	-0.0046	-0.0046	11
0.027	0.0022	-0.0053	-0.003	11
0.0217	-0.0015	-0.0075	-0.0046	11
0.0142	-0.0068	-0.006	-0.0068	11
0.0105	-0.006	-0.0083	-0.0068	11
0.0037	-0.0046	-0.0105	-0.0046	11
-0.0046	-0.0023	-0.0098	-0.0015	11
-0.0046	-0.0008	-0.0091	0	11
0.0045	-0.0015	-0.0053	0.0007	11
0.0157	0.0007	-0.0008	0	11
0.0022	0	0.0045	0.0015	11
-0.024	-0.0008	0.009	0.003	11
-0.03	-0.0008	0.0165	0.003	11
-0.0263	-0.0015	0.024	0.0045	11
-0.0256	-0.0015	0.0225	0.003	11
-0.03	-0.0015	0.0187	0.003	11
-0.0173	0.0022	0.006	0.003	11
0.012	0.0015	-0.0143	0.0007	11
0.012	-0.0015	-0.0173	0.003	11
0.0322	-0.003	-0.0053	-0.0008	11
0.0765	-0.0075	0.0082	-0.0038	11
0.0495	-0.0091	0.0052	-0.0038	11
0.003	-0.0068	-0.0091	-0.0046	11
-0.0053	-0.0068	-0.0165	-0.0008	11.1
-0.0075	-0.0038	-0.0218	-0.0008	11.1
-0.0083	-0.0046	-0.024	-0.0023	11.1
-0.0128	-0.0038	-0.0181	-0.0008	11.1
-0.0165	-0.003	-0.0098	0.0015	11.1
-0.0248	-0.0046	-0.0075	0.0022	11.1
-0.0256	-0.0046	-0.003	0.0007	11.1
-0.0256	-0.003	-0.0008	0	11.1
-0.0233	-0.0038	-0.003	-0.0015	11.1
-0.0181	-0.0023	-0.0023	-0.0008	11.1
-0.0195	-0.0023	-0.0075	0.0015	11.1
-0.0091	-0.0015	-0.0068	0.0007	11.1
0.0127	-0.0008	0	0.0015	11.1
0.0157	-0.0015	0.0045	-0.0008	11.1
0.0007	-0.003	0.0067	-0.0015	11.1
0.0082	-0.0046	0.012	-0.0008	11.1
0.0082	-0.0046	0.0142	-0.0015	11.1
-0.012	-0.0008	0.012	-0.0023	11.1
-0.0203	0.0015	0.0052	-0.003	11.1
-0.0128	0.003	-0.0046	-0.0046	11.1
0.0195	0.0015	-0.0068	-0.0068	11.1
0.0457	-0.0015	0.006	-0.006	11.1
0.0532	-0.0015	0.0135	-0.0046	11.1
0.048	0.0015	0.0015	-0.0038	11.1
0.0127	-0.0015	0.0022	-0.003	11.1
-0.015	-0.0068	0.012	-0.0015	11.1
-0.0165	-0.0083	0.0097	-0.0015	11.1
-0.0158	-0.006	0.0067	-0.0008	11.1
-0.0098	-0.003	-0.0008	0.0007	11.1
0.0015	-0.0023	-0.0023	0.0007	11.1
0.0052	-0.0008	0.0045	0.0022	11.1
-0.0053	0	0.0045	0.003	11.1
-0.0195	0.0007	0.0015	0.0037	11.1
-0.0225	0.0015	-0.0008	0.0045	11.1
-0.027	0.0037	-0.0023	0.0022	11.1
-0.0278	0.0045	-0.0046	0.0007	11.1
-0.0233	0.0045	-0.0046	-0.0008	11.1
-0.0181	0.0045	-0.0015	0.0007	11.1
-0.0075	0.0037	-0.0008	0.003	11.1
0.0007	0.0045	0.0007	0.0045	11.1
0	0.0052	0.0015	0.0037	11.1
0.0067	0.0052	0.0022	0.0022	11.1
0.0112	0.0052	0.0045	0.0015	11.1
0.003	0.003	0.0082	0.003	11.1
-0.0046	-0.0008	0.0045	0.0022	11.1
-0.0083	0.0007	-0.0068	0.0015	11.1
-0.0068	0.0007	-0.012	0.0007	11.1
-0.0038	-0.0008	-0.0143	0	11.1
-0.0015	-0.0008	-0.0143	0.0007	11.1
0.0082	0	-0.0143	-0.003	11.1
0.0225	0.0007	-0.0053	-0.0046	11.1
0.0195	-0.0008	0.0067	-0.0053	11.1
0.0105	0	0.0037	-0.0053	11.1
0.0037	-0.0015	-0.0068	-0.0046	11.1
-0.0015	-0.003	-0.0046	-0.0015	11.1
-0.0015	0.0007	0.0082	-0.0008	11.1
-0.0046	0.0007	0.0082	-0.0023	11.1
-0.0068	0.0007	0.0052	-0.0008	11.1
-0.0046	0.0015	0.0045	-0.0015	11.1
-0.0023	0.0022	0.0052	-0.0015	11.1
0.0007	0.0022	0.0067	-0.0008	11.1
0.0052	0.0015	0.0067	-0.003	11.1
0.0127	0	0.0045	-0.0023	11.1
0.0075	-0.003	0.0007	-0.003	11.1
-0.006	-0.0015	-0.0053	-0.0053	11.1
-0.0158	-0.0038	-0.0113	-0.0053	11.1
-0.0218	-0.0046	-0.0173	-0.0046	11.1
-0.021	0.0007	-0.0181	-0.0046	11.1
-0.0135	0	-0.0098	-0.0053	11.1
-0.0181	-0.003	0.0045	-0.0068	11.1
-0.0323	-0.0046	0.018	-0.006	11.1
-0.0368	-0.0015	0.0165	-0.003	11.1
-0.003	0.0015	0.0172	-0.0038	11.1
0.0457	-0.0023	0.0217	-0.0053	11.1
0.0292	-0.0053	0.0142	-0.0038	11.1
0.003	-0.0038	0.0082	-0.0015	11.2
-0.0015	-0.0046	0.0022	0	11.2
-0.0278	-0.0053	-0.0015	0.0022	11.2
-0.03	-0.003	-0.0075	0.0052	11.2
-0.0128	-0.0015	-0.0181	0.0022	11.2
0.0142	-0.0008	-0.0188	-0.0008	11.2
0.0127	0	-0.0143	-0.003	11.2
-0.0046	-0.0046	-0.0181	-0.0008	11.2
0.009	-0.0053	-0.0203	0.0007	11.2
0.0105	-0.0023	-0.0181	0.003	11.2
0.006	0.0015	-0.0143	0.0067	11.2
0.0067	0.0052	-0.006	0.0045	11.2
0.0052	0.0052	-0.0015	0.0037	11.2
0.0082	0.0052	0.0045	0.0022	11.2
0.0112	0.003	0.0097	0.0007	11.2
0.0052	0.0045	0.0165	0.0015	11.2
-0.003	0.0052	0.0195	0.0015	11.2
-0.0188	0.003	0.0157	0.0015	11.2
-0.0308	0.003	0.0097	0.003	11.2
-0.0293	0.0022	0.0105	0.003	11.2
-0.0203	0.0015	0.0127	0.0022	11.2
-0.0083	0.003	0.009	0.0007	11.2
-0.0046	0.0007	0.0015	0	11.2
0	-0.003	-0.0068	-0.0008	11.3
0.003	-0.0008	-0.0091	-0.0046	11.3
0.0075	-0.0008	-0.0098	-0.0068	11.3
0.021	-0.0008	-0.0083	-0.0075	11.3
0.039	0.0015	0.0007	-0.0091	11.3
0.051	0.0007	0.0127	-0.0075	11.3
0.0345	0.0007	0.0127	-0.006	11.3
0.0135	-0.0008	0.0105	-0.0053	11.3
-0.0038	-0.003	0.003	-0.0023	11.3
-0.0165	-0.0015	-0.0075	0	11.3
-0.0143	-0.0008	-0.0091	-0.0008	11.4
-0.0105	0.0007	-0.0098	-0.0015	11.4
-0.0105	0.0007	-0.0046	-0.0015	11.4
-0.0053	0.003	-0.0038	-0.0008	11.4
0.0067	0.0045	-0.0015	0.0015	11.4
0.0067	0.0022	0.0052	0.0015	11.4
-0.0068	-0.0008	0.0067	0.0015	11.4
-0.0158	0.0007	0.003	0.0015	11.4
-0.0165	0.0007	-0.0068	0	11.4
-0.0068	-0.0015	-0.0068	-0.0008	11.4
0.0007	-0.0015	-0.0053	-0.0023	11.4
0.0022	-0.003	-0.003	-0.003	11.4
-0.0046	-0.003	-0.0068	-0.0008	11.4
0.0045	0.0007	-0.0083	-0.0008	11.4
0.018	0	-0.0038	0.0015	11.4
0.0052	-0.0015	-0.0053	0.0015	11.4
-0.0135	-0.0015	-0.0105	0.0037	11.4
-0.0233	0.0015	-0.0113	0.0067	11.5
-0.0195	0.0015	-0.0015	0.0045	11.5
-0.0173	-0.003	0.0075	0.0015	11.5
-0.006	-0.0046	0.0097	0	11.5
0.0105	-0.003	0.0045	0.0007	11.5
0.009	-0.0015	0.0007	-0.0008	11.5
-0.003	-0.0023	0.0097	0	11.5
-0.0128	-0.0053	0.009	-0.0008	11.5
-0.012	-0.0038	0.0045	-0.0008	11.5
-0.0105	-0.0015	0.006	0.0007	11.5
-0.012	-0.0023	0.0052	0.0015	11.5
-0.0158	-0.0046	0.0082	0.0015	11.5
-0.0195	-0.0046	0.0112	0.0015	11.5
-0.0158	-0.0008	0.009	0.0022	11.5
-0.0068	0.0007	0.0045	0.003	11.5
-0.0008	0.0007	0.0007	0.0015	11.5
0.003	0.0007	0.0007	0.0015	11.5
0.0082	0.003	0.0007	-0.0008	11.5
0.0052	0.003	0.0007	-0.0023	11.5
-0.0046	0.0037	-0.0015	-0.003	11.5
-0.003	0.0045	-0.003	-0.0023	11.5
0.012	0.0052	0.003	-0.006	11.5
0.012	0.0022	0.0105	-0.0068	11.5
-0.0068	-0.0015	0.0045	-0.0046	11.5
-0.0091	-0.0015	-0.0091	-0.0023	11.5
0.003	-0.0008	-0.0143	-0.0015	11.5
0.0172	-0.003	-0.0113	-0.003	11.5
0.027	-0.0075	-0.0068	-0.0015	11.5
0.027	-0.0091	-0.003	-0.0008	11.5
0.018	-0.0068	0	-0.0015	11.5
0.0007	-0.0091	-0.0015	-0.003	11.6
-0.0068	-0.0083	-0.0068	-0.0046	11.6
-0.0083	-0.006	-0.0128	-0.0046	11.6
-0.0128	-0.0046	-0.0158	-0.0053	11.6
-0.0105	-0.0015	-0.0128	-0.0068	11.6
-0.0083	-0.0008	-0.0075	-0.0053	11.6
-0.0053	-0.0008	-0.0068	-0.0053	11.6
-0.0046	0	-0.003	-0.0046	11.6
-0.0038	0	-0.0023	-0.0046	11.6
-0.0053	-0.0008	0.0007	-0.0053	11.6
-0.0075	-0.0015	0.0052	-0.003	11.6
-0.0091	0.0007	0.009	-0.0008	11.6
-0.0068	0.0022	0.0105	0.0007	11.6
-0.003	0.003	0.0067	0.0022	11.6
-0.0068	0.0015	0.006	0.0045	11.6
-0.0091	-0.0008	0.0052	0.0037	11.6
-0.0113	0.0007	0.0007	0.0007	11.6
-0.0091	0.0037	-0.0008	0.0007	11.6
0.0067	0.0045	0.0037	-0.0015	11.6
0.0157	0.0015	0.0142	-0.0046	11.6
0.0067	0.0007	0.0142	-0.0053	11.7
-0.0023	0	0.0097	-0.0038	11.7
-0.0091	0.0007	0.009	-0.003	11.7
-0.0008	0.0022	0.0007	-0.0046	11.7
0.0285	0	-0.0143	-0.0046	11.7
0.0405	0.0007	-0.0173	-0.003	11.7
0.0202	-0.0008	-0.006	-0.0046	11.7
-0.0083	-0.0046	0.006	-0.0068	11.7
-0.0338	-0.0038	0.0135	-0.0053	11.7
-0.0503	-0.0038	0.0082	-0.0046	11.7
-0.0465	-0.0015	0.0052	-0.0038	11.7
-0.0308	0.0007	0.003	-0.003	11.7
-0.012	0	0.0037	0.0007	11.7
0.0015	0.0015	0.003	0.0052	11.7
0.0157	-0.0008	-0.0008	0.0052	11.7
0.0157	-0.003	0.0007	0.0045	11.7
-0.0008	-0.0038	-0.0008	0.0015	11.7
-0.0015	-0.0015	-0.003	0.0022	11.7
-0.0083	-0.0008	-0.0053	0.0045	11.7
-0.0158	-0.003	-0.0053	0.003	11.7
-0.0158	-0.0015	-0.0068	0.003	11.7
-0.012	-0.0015	-0.0105	0.0022	11.8
-0.0015	-0.0015	-0.0098	0	11.8
-0.0053	0.0007	-0.003	-0.0075	11.8
-0.0023	-0.0015	0.0045	-0.0135	11.8
0.0105	0.0007	0.0067	-0.0091	11.8
0.0202	0.003	0.0082	-0.0068	11.8
0.0315	0.0015	0.0052	-0.0135	11.8
0.0405	0.0015	0.0015	-0.03	11.8
0.0442	0	0.003	-0.0368	11.8
0.0382	-0.0015	0.0075	-0.0338	11.9
0.0232	-0.0015	0.0112	-0.0315	11.9
0.0015	-0.003	0.0082	-0.024	11.9
-0.0008	-0.0015	-0.003	-0.0173	11.9
-0.006	-0.003	-0.0143	-0.0135	11.9
-0.0203	-0.0068	-0.0158	-0.0083	11.9
-0.0158	-0.0068	-0.0098	-0.003	11.9
-0.0158	-0.0053	-0.0038	0.0022	11.9
-0.015	-0.0015	-0.0068	0.006	12
-0.0105	0	-0.0091	0.009	12
-0.0113	-0.0008	-0.0098	0.012	12
-0.0046	-0.0023	-0.0091	0.0157	12
-0.0008	-0.0015	-0.0046	0.021	12
0.0007	0.0007	0.0015	0.0232	12
-0.0083	0	0.003	0.0232	12
-0.0046	0.0007	0.006	0.0217	12
0.0015	0.0007	0.0075	0.0217	12
-0.0046	0.0015	0.0082	0.0225	12
-0.0046	0.0007	0.0097	0.018	12.1
-0.0068	0	0.0082	0.0172	12.1
-0.0053	-0.0008	0.006	0.0157	12.1
-0.0068	-0.0023	0.0045	0.012	12.1
-0.0098	-0.0008	0.0015	0.0127	12.1
-0.0128	0	-0.0015	0.0127	12.1
-0.0128	0	-0.0046	0.0127	12.1
-0.012	0.0015	-0.0068	0.0127	12.1
-0.0135	0.0045	-0.0046	0.012	12.1
-0.0105	0.006	-0.0046	0.012	12.1
-0.0075	0.0052	-0.006	0.0067	12.1
-0.0053	0.003	-0.006	0.0022	12.1
-0.0008	0.003	-0.0053	0.0007	12.1
0.0007	0.003	-0.0046	-0.0008	12.1
0.0015	0.0022	-0.006	-0.0008	12.1
-0.0015	0.003	-0.0068	-0.0008	12.2
-0.0105	0.0015	-0.0053	-0.0023	12.2
-0.0113	0	-0.0053	-0.0023	12.2
-0.0038	-0.0015	0.0015	-0.0023	12.2
-0.003	-0.0046	0.0037	-0.0015	12.2
-0.0091	-0.0053	-0.0015	-0.003	12.2
-0.0053	-0.0053	-0.0053	-0.0038	12.2
0.0067	-0.003	-0.0053	-0.003	12.2
0.012	-0.003	-0.0015	-0.0038	12.2
0.0142	-0.0008	0	-0.0046	12.2
0.0217	-0.0008	0.0022	-0.006	12.3
0.0277	-0.0015	0.0067	-0.006	12.3
0.0225	-0.003	0.0097	-0.0068	12.3
0.0075	-0.006	0.0127	-0.006	12.3
0.0045	-0.0023	0.0142	-0.0038	12.3
0.0007	-0.0008	0.012	-0.0023	12.3
-0.0068	0	0.009	0	12.4
-0.0053	0.0007	0.0082	0.0007	12.4
-0.0068	0.0007	0.0067	0	12.4
-0.0068	0.0015	0.006	-0.0008	12.4
-0.0068	0.003	0.0007	0	12.4
-0.0083	0.0015	-0.006	0	12.5
-0.0105	0.0007	-0.0083	0.0007	12.5
-0.0128	0.0015	-0.0113	0.003	12.5
-0.0135	-0.0015	-0.0128	0.003	12.5
-0.0143	-0.003	-0.0143	-0.0008	12.5
-0.0143	-0.0008	-0.0203	-0.0008	12.6
-0.0053	0	-0.0195	0.0007	12.6
0.0127	0.0007	-0.0091	-0.003	12.6
0.027	0.0007	-0.0015	-0.0053	12.6
0.024	-0.0008	0.0045	-0.0046	12.6
0.015	-0.0008	0.0127	-0.0046	12.6
-0.0008	-0.0008	0.018	-0.0053	12.6
-0.021	-0.003	0.0127	-0.0053	12.6
-0.0248	-0.0008	0.0067	-0.0046	12.7
-0.0233	-0.0015	0.0067	-0.0038	12.7
-0.0218	-0.0008	0.0052	-0.0015	12.7
-0.0195	0.0007	0.006	-0.0008	12.7
-0.0046	0.0007	0.0097	-0.0015	12.7
0.0127	-0.0008	0.009	-0.0008	12.7
0.015	-0.0015	0.0075	-0.0023	12.8
0.012	-0.0023	0.0045	-0.0038	12.8
-0.0046	-0.003	0.0082	-0.0023	12.8
-0.0181	-0.0015	0.009	-0.003	12.8
-0.0203	-0.003	-0.0023	-0.0038	12.8
-0.0046	-0.0023	-0.015	-0.0083	12.9
0.0112	-0.0015	-0.027	-0.0143	12.9
0.0067	-0.006	-0.024	-0.0113	12.9
-0.0023	-0.0068	-0.0218	-0.0091	12.9
-0.0053	-0.0046	-0.015	-0.0053	12.9
-0.003	-0.0023	-0.0046	-0.0015	12.9
-0.0098	-0.0015	-0.0053	-0.0008	13
-0.0098	-0.0023	-0.003	0.0037	13
-0.0053	-0.0015	-0.0046	0.0082	13
-0.003	0.0007	-0.0046	0.012	13
0.003	0.0015	-0.0008	0.0127	13
0.0045	0.0007	0.0067	0.0105	13
0.003	0.0007	0.0157	0.0097	13
-0.0008	-0.0008	0.0112	0.0105	13.1
-0.003	-0.0008	0.0052	0.0112	13.1
-0.0053	-0.0008	0.0022	0.0097	13.1
-0.0053	0.0007	0.0045	0.0067	13.1
-0.0008	0.0007	0.0067	0.0052	13.2
0.0007	0.0007	0.009	0.003	13.2
0.0007	0.0015	0.009	0.0007	13.2
0.0007	0.0015	0.0052	0.0007	13.2
0.0037	0.003	0.003	-0.0023	13.2
0.0052	0.003	0.0022	-0.0015	13.3
0.0045	0.0015	0.006	-0.0008	13.3
0.0037	0.0015	0.0067	-0.0015	13.3
0.0052	0.0007	0.0015	-0.0046	13.3
0.0015	-0.0008	0.0052	-0.0046	13.4
-0.0046	-0.0008	0.0067	-0.003	13.4
-0.0098	-0.0015	0.003	-0.0068	13.4
-0.012	-0.0015	-0.0008	-0.0083	13.4
-0.0046	-0.0023	-0.0038	-0.0075	13.4
-0.003	-0.0046	-0.0053	-0.0068	13.4
-0.003	-0.0038	-0.0091	-0.0075	13.4
0.0045	-0.0008	-0.0075	-0.0075	13.4
0.0172	0.0015	-0.0023	-0.003	13.4
0.0277	0.0007	0.0037	-0.003	13.4
0.0255	0	0.0045	-0.0046	13.4
0.0142	-0.0008	0.0015	-0.006	13.4
0.003	-0.0008	0.0075	-0.0098	13.4
-0.0083	0.0007	0.0097	-0.0068	13.4
-0.0143	0.0015	0.009	-0.0046	13.4
-0.0128	0.0007	0.0052	-0.0046	13.4
-0.0128	0.0007	-0.0015	-0.0023	13.3
-0.0113	0.0007	-0.0015	-0.0008	13.3
-0.0075	-0.0015	-0.0008	-0.0008	13.3
-0.0038	0	-0.0008	-0.0008	13.3
-0.0008	-0.0023	0	0.0015	13.3
-0.0075	-0.003	0.0015	0.0015	13.3
-0.0091	-0.0008	0.0015	0.0015	13.3
-0.0046	-0.0015	0.0037	0.0037	13.3
-0.0068	-0.0008	0.0037	0.003	13.3
-0.0053	-0.0023	0.0075	0.003	13.4
-0.0053	-0.0015	0.0142	0.003	13.4
-0.0105	-0.0008	0.0165	-0.0008	13.4
-0.0135	-0.0015	0.009	-0.0015	13.4
-0.0128	-0.0023	0.003	-0.0015	13.4
-0.0098	-0.0015	0.0022	-0.0008	13.5
-0.0068	0.0007	-0.0068	0.0015	13.5
-0.003	0.0015	-0.012	0.003	13.5
0.0075	0.0037	-0.0203	0.0045	13.5
0.0255	0.0045	-0.0308	0.0015	13.5
0.0367	0.0007	-0.0263	-0.0015	13.5
0.0382	-0.0015	-0.0173	-0.006	13.5
0.0217	-0.003	-0.0105	-0.0105	13.5
0.0015	-0.0046	0.0007	-0.0083	13.6
0.0007	-0.0053	0.0015	-0.0091	13.6
-0.0038	-0.0053	-0.0015	-0.0053	13.6
-0.006	-0.0023	-0.003	-0.003	13.6
-0.006	-0.0008	-0.0083	-0.0015	13.7
-0.0091	-0.0015	-0.0083	-0.0008	13.7
-0.0143	-0.0008	-0.0068	-0.0008	13.7
-0.0128	-0.0015	-0.0053	0	13.7
-0.006	-0.0008	-0.0068	0	13.8
-0.006	0.0022	-0.0113	-0.0015	13.8
-0.0068	-0.0008	-0.0128	-0.0046	13.8
-0.0008	-0.0038	-0.012	-0.0015	13.8
0.0067	-0.0046	-0.0105	-0.0015	13.8
0.015	-0.0038	-0.0083	-0.0008	13.9
0.024	-0.0008	0.0015	0.0015	13.9
0.0165	0	0.0127	-0.0015	13.9
-0.0046	-0.0015	0.021	-0.0015	13.9
-0.0203	0	0.0232	-0.0015	13.9
-0.0346	0.003	0.0195	-0.0008	14
-0.0405	0.003	0.0165	-0.0015	14
-0.0278	0.0015	0.0142	-0.003	14
-0.012	0.0022	0.0105	-0.003	14
-0.0083	0.0022	0.0067	-0.0008	14
-0.0053	0.0022	0.0045	0.0007	14.1
-0.003	0.0007	0.0015	-0.0008	14.1
-0.0046	0	0	0	14.1
-0.0038	0.0015	-0.0038	0.0015	14.2
-0.0053	0.0015	-0.0075	0.0007	14.2
-0.0023	0.0015	-0.0083	-0.0015	14.2
0	0.0007	-0.0083	-0.0015	14.2
0.0015	-0.0008	-0.0053	-0.0008	14.3
0.0045	0	-0.003	-0.0015	14.3
0.003	-0.0008	-0.0053	-0.0008	14.3
-0.0008	-0.0008	-0.0068	0	14.4
0.0007	-0.0015	-0.003	0.0007	14.4
0.0022	-0.0008	-0.0008	0.003	14.4
-0.0015	-0.0008	-0.0015	0.003	14.4
-0.0053	-0.0008	-0.0023	0.0037	14.4
0.0022	-0.0008	-0.0053	0.0052	14.4
0.012	-0.0008	-0.0083	0.0052	14.5
0.0105	-0.0015	-0.0053	0.0045	14.5
0.0097	-0.003	0.0022	0.0045	14.5
0.0157	-0.0008	0.009	0.0052	14.5
0.009	0.0007	0.0112	0.0052	14.6
-0.0083	-0.0015	0.0127	0.0045	14.6
-0.006	-0.003	0.0075	0.003	14.6
0.003	-0.003	0.003	0.0015	14.7
-0.0008	-0.0053	-0.0008	0.0015	14.7
0.0045	-0.0046	0.0007	0.003	14.7
0.0007	-0.0046	0.0045	0.0022	14.7
-0.0053	-0.0053	0.0045	0.0015	14.8
-0.0083	-0.0046	0.0037	0.0007	14.8
-0.0128	-0.0053	0.0022	-0.0008	14.8
-0.0128	-0.0046	0.0015	-0.0015	14.8
-0.0128	-0.003	0.0007	-0.003	14.8
-0.0075	-0.0023	0.003	-0.0046	14.9
-0.0046	-0.0008	0.0082	-0.0038	14.9
-0.0068	-0.0008	0.0067	-0.0053	14.9
-0.003	-0.0015	0.0022	-0.0053	14.9
0	-0.003	-0.0015	-0.0015	15
-0.0068	-0.0023	-0.0083	0.0007	15
-0.012	0.0007	-0.0128	-0.0015	15
0.0007	0.0015	-0.0105	-0.0038	15
0.009	0.0007	-0.0053	-0.006	15.1
0.0007	0.0015	-0.0046	-0.0083	15.1
-0.006	0.003	-0.0091	-0.0068	15.1
-0.003	0.003	-0.0135	-0.003	15.2
0.018	0.0045	-0.0046	-0.003	15.2
0.0405	0.0037	0.0082	-0.0015	15.2
0.0322	0.0022	0.0127	-0.003	15.2
0.009	0.0015	0.012	-0.003	15.3
-0.012	0	0.015	-0.0015	15.3
-0.0256	-0.0008	0.0165	-0.0015	15.3
-0.0203	-0.0015	0.0067	-0.0023	15.3
-0.0105	-0.0023	-0.0008	-0.0015	15.3
-0.0128	-0.0023	-0.0046	-0.0015	15.4
-0.0128	-0.0008	-0.0046	-0.0015	15.4
-0.0098	0	-0.0023	-0.003	15.4
-0.0128	-0.0008	-0.0038	-0.003	15.4
-0.0128	0.0015	-0.006	-0.0015	15.5
-0.0105	0.0015	-0.0068	-0.0023	15.5
0.0015	0.003	-0.006	-0.0015	15.5
0.0112	0.0007	-0.0015	-0.0015	15.5
0.006	-0.0008	0.0052	-0.003	15.6
-0.0091	-0.0008	0.0052	-0.0008	15.6
-0.0091	0	0.0015	0.0007	15.6
-0.0083	0.0007	-0.0008	0.0052	15.6
-0.0068	-0.0008	-0.003	0.006	15.7
-0.0008	-0.0008	-0.0038	0.0045	15.7
-0.003	-0.0023	-0.0015	0.0037	15.7
-0.003	-0.0023	0.0015	0.0015	15.7
-0.0053	-0.0008	0.0022	0	15.7
-0.0075	-0.0015	0.0015	-0.0008	15.7
-0.0038	0	0.0007	-0.0015	15.8
0.0045	-0.0015	-0.0008	-0.003	15.8
0.003	-0.0008	-0.0015	-0.0015	15.8
-0.0046	0.0007	0.0037	-0.0008	15.8
-0.003	0.0022	0.0082	-0.0015	15.8
-0.0046	0.006	0.0007	-0.0023	15.9
-0.0083	0.0045	-0.003	-0.0008	15.9
-0.006	0.0015	-0.003	-0.0008	15.9
-0.0023	0	-0.0015	-0.0038	15.9
0.0015	-0.0008	-0.0008	-0.003	16
0.0097	0.0007	-0.0008	-0.0023	16
0.0195	0.0007	0.0007	-0.0015	16
0.021	-0.0008	-0.0008	-0.003	16
0.0187	-0.0015	-0.0046	-0.006	16
0.012	-0.0046	-0.003	-0.006	16.1
0.0112	-0.0068	-0.0008	-0.006	16.1
0.0202	-0.003	0.0015	-0.0046	16.1
0.018	-0.0015	0.0075	-0.0046	16.1
-0.0046	-0.003	0.009	-0.003	16.2
-0.0195	-0.0015	0.0045	-0.0015	16.2
-0.0165	-0.003	0	-0.0008	16.2
-0.0128	-0.0046	-0.0008	-0.0008	16.2
-0.0128	-0.003	-0.0008	-0.0008	16.2
-0.0105	0	0.0015	0.0007	16.2
-0.0091	-0.0008	0.003	0.0007	16.2
-0.0098	-0.0008	0.0022	0.0015	16.3
-0.012	-0.0008	0.0007	0.003	16.3
-0.0165	-0.0015	0.0022	0.0022	16.3
-0.0158	-0.0008	0.0045	0.0037	16.3
-0.012	0.0007	0.0037	0.003	16.4
-0.0105	-0.0008	0.0037	0.0007	16.4
-0.0105	-0.0008	0	-0.0015	16.4
-0.0083	0.0007	-0.0053	-0.0008	16.4
-0.0091	0.0007	-0.0128	-0.0015	16.5
-0.0015	0.0015	-0.0181	-0.0015	16.5
0.0127	0.0015	-0.0158	-0.0008	16.5
0.027	0.0015	-0.0113	-0.0008	16.6
0.027	0.0007	-0.0068	-0.0008	16.6
0.0195	-0.0008	-0.0008	-0.0015	16.6
0.0127	0.0015	0.0075	-0.0015	16.6
0	0	0.0052	0	16.6
-0.0053	-0.0015	0.003	0	16.7
0.0007	-0.0015	-0.0008	0.0015	16.7
0.009	-0.0008	-0.0015	0.0045	16.7
0.0172	0	0.0052	0.003	16.7
0.0112	0	0.009	0.0007	16.8
-0.0046	-0.0008	0.0067	-0.0015	16.8
-0.0128	-0.003	0.0052	-0.0015	16.8
-0.012	-0.0023	0.0037	-0.0046	16.9
-0.0105	-0.0015	-0.0008	-0.0053	16.9
-0.0105	-0.003	-0.006	-0.0038	16.9
-0.0098	0	-0.0098	-0.003	17
-0.0068	0.0022	-0.0075	-0.003	17
-0.0068	0.0045	-0.006	-0.0015	17
-0.0128	0.0022	-0.003	-0.003	17
-0.015	0	0.0007	-0.0015	17
-0.0083	-0.0008	0.0045	-0.0015	17.1
-0.0046	-0.0008	0.009	-0.0008	17.1
-0.0038	-0.0015	0.009	0	17.1
-0.003	-0.0046	0.0142	-0.0008	17.2
0.003	-0.003	0.0135	0.003	17.2
0.012	-0.0015	0.0045	0.0022	17.2
0.0157	0	0.0007	0.0007	17.3
0.0105	-0.0008	-0.0008	0.0007	17.3
0	-0.003	-0.0046	0.003	17.3
0	-0.0038	-0.0083	0.0037	17.4
0.0105	-0.0015	-0.0083	0.0015	17.4
0.0232	-0.0008	-0.0053	0.003	17.4
0.0217	-0.0008	-0.0023	0.0007	17.5
0.009	-0.0015	0.0067	-0.003	17.5
-0.0075	-0.0053	0.0127	-0.0038	17.5
-0.0308	-0.0053	0.0067	-0.0046	17.5
-0.0458	-0.0046	0	-0.003	17.5
-0.042	-0.006	-0.0053	-0.0015	17.6
-0.021	-0.003	-0.0083	0.0015	17.6
-0.0105	-0.0008	-0.006	0.0045	17.6
-0.0053	-0.0015	-0.003	0.003	17.7
-0.0008	-0.0015	-0.0015	0.0037	17.7
-0.0015	0.0007	-0.0008	0.0037	17.7
0.0022	0.0015	0.0015	0.0015	17.7
0.003	0.0007	0.0022	0.0007	17.8
0.0037	-0.0015	-0.0015	-0.0008	17.8
0.0022	-0.0008	-0.0046	-0.003	17.8
0.0015	-0.0015	-0.0046	-0.0038	17.9
0.0015	-0.0008	-0.0046	-0.0046	17.9
-0.0015	0.0015	-0.003	-0.003	17.9
-0.0015	0.0015	0.0007	-0.003	18
-0.0046	0.0022	0	-0.0046	18
-0.0053	0.0007	-0.0008	-0.0046	18
-0.0046	0.0015	-0.0008	-0.0046	18
-0.0053	0.003	-0.0046	-0.0038	18
-0.0046	0.0052	-0.0075	-0.0023	18
-0.003	0.0067	-0.0083	-0.0023	18.1
-0.0008	0.0067	-0.0083	-0.003	18.1
0	0.0052	-0.0068	-0.0008	18.1
0.0052	0.0052	-0.0038	-0.0008	18.1
0.009	0.0052	-0.0023	-0.0008	18.1
0.0052	0.0022	-0.003	-0.0008	18.1
0.003	-0.0015	-0.0008	-0.003	18.2
0.0045	-0.003	0.0007	-0.0015	18.2
0.0015	-0.0053	-0.0008	-0.0008	18.2
0.0015	-0.0068	0.003	-0.0023	18.2
0.003	-0.0046	0.0082	-0.003	18.2
-0.0053	-0.003	0.006	-0.0008	18.3
-0.0143	-0.0038	0.0045	-0.0023	18.3
-0.0105	-0.003	0.006	-0.0015	18.3
-0.0083	-0.0015	0.0075	0.003	18.3
-0.012	0	0.0067	0.003	18.3
-0.0098	0.0015	0	0.0045	18.3
-0.0068	-0.0015	-0.006	0.0022	18.4
-0.0068	-0.0023	-0.0091	0.0015	18.4
0.003	0.0007	-0.0046	0.0015	18.4
0.0157	0	0.0045	-0.0015	18.4
0.0045	-0.0008	0.0157	-0.0008	18.5
-0.0053	-0.0015	0.0202	0.0015	18.5
-0.0023	0	0.0172	0.0015	18.5
0.0142	0.0015	0.012	0.0037	18.6
0.0232	0.0045	0.006	0.0015	18.6
0.0082	0.003	0.012	-0.0008	18.7
-0.0046	-0.0008	0.0105	0.0007	18.7
-0.0075	-0.003	-0.0008	-0.0008	18.8
-0.003	-0.0015	-0.0015	-0.003	18.8
0.003	0	0.0015	-0.003	18.8
0.0067	-0.0015	0.0007	-0.0068	18.9
0.0015	-0.003	-0.0091	-0.0068	18.9
-0.003	-0.0023	-0.015	-0.0046	18.9
0.0037	-0.003	-0.0128	-0.0046	19
0.0007	-0.0038	-0.012	-0.003	19
-0.0053	-0.0023	-0.0113	-0.003	19
-0.006	-0.0023	-0.0143	-0.003	19.1
-0.0083	-0.0023	-0.0128	-0.0053	19.1
-0.0091	-0.003	-0.0083	-0.003	19.2
0.0015	-0.0023	0	-0.0008	19.2
0.0082	-0.0015	0.0045	-0.0008	19.3
0	-0.0023	0.0052	-0.0015	19.3
-0.006	-0.0008	0.0067	-0.0008	19.3
-0.0091	-0.0008	0.0037	0.0007	19.4
-0.0068	-0.0008	-0.0008	0	19.4
-0.006	-0.0023	0.0015	-0.0008	19.5
-0.0091	-0.0038	0.0052	-0.0015	19.5
-0.0113	-0.0015	0.0052	-0.0015	19.6
-0.0098	-0.0008	-0.0008	-0.0008	19.6
-0.0105	-0.0008	-0.0105	0	19.6
-0.0075	-0.0008	-0.0203	0.0015	19.7
0.0022	-0.0008	-0.0285	0.0022	19.7
0.0067	-0.0023	-0.024	0.0022	19.8
0.0052	-0.0015	-0.012	0.0045	19.8
-0.003	-0.0015	-0.0008	0.0052	19.8
-0.0165	-0.003	0.0157	0.003	19.9
-0.0181	-0.0015	0.0397	0.0045	19.9
-0.0128	0.0007	0.0427	0.0052	20
-0.0098	0.0015	0.0232	0.003	20
0.0022	0.0007	0.0045	0.003	20.1
0.0105	-0.0008	-0.0091	0.0007	20.1
0.015	-0.0015	-0.0113	-0.0008	20.2
0.0202	-0.0023	-0.0105	-0.0023	20.2
0.0195	-0.0015	-0.0083	-0.0053	20.2
0.024	-0.0015	-0.0046	-0.0038	20.3
0.0142	0	-0.0046	-0.0053	20.3
-0.0023	0.0015	-0.0083	-0.0068	20.4
-0.0046	0.003	-0.0113	-0.0046	20.5
-0.0053	0.0037	-0.006	-0.0046	20.5
-0.0083	0.003	-0.0053	-0.0053	20.6
-0.0128	-0.0008	-0.006	-0.0068	20.6
-0.0113	-0.0015	0.003	-0.0068	20.7
-0.0083	0.0022	0.0202	-0.0046	20.7
-0.0053	0.0045	0.0217	-0.003	20.7
0.003	0.0037	0.0067	-0.0008	20.8
0.0007	0.003	0.0067	0.0015	20.8
-0.0075	0.0007	0.0082	0.0015	20.9
-0.0105	0.0007	0.0067	0.0037	20.9
-0.0068	-0.0008	0.0052	0.0045	21
-0.0008	0.0015	-0.0023	0.0045	21
0.0007	0.0015	-0.0008	0.003	21.1
0	-0.0008	0.0007	0.0015	21.1
-0.0008	0.0015	0.0022	-0.0015	21.1
-0.0023	0.0015	0.0007	-0.0008	21.1
-0.0015	0.003	-0.0015	0.0015	21.2
0.0015	0.0015	-0.0015	-0.0008	21.2
0.0015	0.0007	-0.003	0.0007	21.3
0.0045	-0.0008	-0.0038	0.0015	21.3
0.0052	0.0007	-0.0046	0.0007	21.3
0.0015	-0.0015	-0.0023	-0.0008	21.4
-0.0008	-0.003	-0.003	-0.0008	21.4
-0.0083	-0.0015	-0.0158	0	21.5
-0.0098	-0.0015	-0.0181	0.0007	21.5
-0.003	-0.0023	-0.0091	0.0015	21.5
-0.0083	-0.0023	-0.006	0.0022	21.5
-0.0091	0.0007	-0.0038	0.0015	21.6
-0.0046	-0.0008	0.0157	0.0015	21.6
-0.0091	-0.0008	0.0277	0	21.7
-0.0046	-0.0008	0.0052	-0.0008	21.7
0.0082	-0.0008	-0.0023	0.0007	21.8
0.012	0	-0.0015	-0.0023	21.8
0.0015	-0.0008	-0.0098	-0.003	21.9
-0.0023	-0.0015	-0.0091	-0.0015	22
-0.0008	-0.003	-0.0098	0.0007	22
0.0007	-0.0008	-0.0046	0.0015	22
0.0045	-0.0015	-0.003	0	22.1
-0.0008	-0.0015	0.0037	-0.0023	22.1
-0.0053	-0.003	0.009	-0.0015	22.2
-0.0091	-0.003	0.003	0	22.3
-0.0113	-0.0008	0.003	0	22.3
-0.012	-0.0008	0	-0.0023	22.4
-0.0113	-0.0015	0.0015	-0.003	22.4
-0.0091	-0.0008	0.0067	-0.0008	22.5
-0.0053	0	0.009	0.0007	22.5
0.0052	-0.0008	0.0142	0	22.6
0.012	-0.0015	0.0135	-0.0008	22.6
0.0127	-0.003	0.0142	0	22.7
0.0105	-0.0023	0.018	0.0007	22.7
0.009	-0.003	0.0105	0.0022	22.8
0.0022	-0.003	0.0007	0.0007	22.9
-0.0015	0.0007	-0.0068	0.0007	22.9
